subject_id,trial,correct_response,stim_time,response_time,x_coord,y_coord,trial_timeout,timeout_time,interTrial_timeout,left_rank,right_rank,distance,joint_rank,left_image,right_image
00000009,1,0,1444835396936,1444835396944,864,280,0,0,0,1,3,2,13,0004-00-0001-74.png,0003-00-0004-25.png
00000009,2,1,1444835400106,1444835400650,1004,410,0,0,0,5,1,4,51,0001-00-0007-11.png,0004-00-0000-07.png
00000009,3,0,1444835401924,1444835402877,455,268,0,0,0,3,1,2,31,0003-00-0005-18.png,0004-00-0008-62.png
00000009,4,0,1444835406065,1444835406107,866,251,0,0,0,2,3,1,23,0002-00-0002-22.png,0003-00-0008-30.png
00000009,5,1,1444835409277,1444835409795,966,379,0,0,0,5,2,3,52,0001-00-0003-37.png,0002-00-0009-60.png
00000009,6,1,1444835410751,1444835411474,917,361,0,0,0,4,2,2,42,0005-00-0006-34.png,0002-00-0000-59.png
00000009,7,1,1444835412490,1444835412514,868,421,0,0,0,2,1,1,21,0002-00-0008-33.png,0004-00-0004-58.png
00000009,8,1,1444835413810,1444835413858,862,410,0,0,0,4,1,3,41,0005-00-0007-29.png,0004-00-0000-30.png
00000009,9,0,1444835414990,1444835415149,862,477,0,0,0,4,5,1,45,0005-00-0009-36.png,0001-00-0001-18.png
00000009,10,1,1444835418283,1444835418917,399,318,0,0,0,1,2,1,12,0004-00-0003-25.png,0002-00-0008-94.png
00000009,11,1,1444835419842,1444835420476,964,424,0,0,0,3,2,1,32,0003-00-0009-33.png,0002-00-0006-07.png
00000009,12,0,1444835421371,1444835421443,919,418,0,0,0,3,5,2,35,0003-00-0005-38.png,0001-00-0001-69.png
00000009,13,1,1444835424598,1444835425177,400,309,0,0,0,2,5,3,25,0002-00-0007-01.png,0001-00-0002-09.png
00000009,14,0,1444835426017,1444835426718,437,285,0,0,0,5,4,1,54,0001-00-0008-68.png,0005-00-0004-66.png
00000009,15,0,1444835429870,1444835430368,1056,279,0,0,0,3,4,1,34,0003-00-0004-87.png,0005-00-0004-06.png
00000009,16,1,1444835433457,1444835434454,378,270,0,0,0,1,4,3,14,0004-00-0006-57.png,0005-00-0004-55.png
00000009,17,1,1444835435323,1444835436141,426,303,0,0,0,1,5,4,15,0004-00-0005-12.png,0001-00-0002-68.png
00000009,18,1,1444835437044,1444835438121,1018,300,0,0,0,5,3,2,53,0001-00-0005-28.png,0003-00-0008-08.png
00000009,19,0,1444835439030,1444835439122,913,410,0,0,0,2,4,2,24,0002-00-0009-13.png,0005-00-0006-44.png
00000009,20,0,1444835442271,1444835442870,401,291,0,0,0,4,3,1,43,0005-00-0002-30.png,0003-00-0009-16.png
00000009,21,1,1444835445835,1444835446342,1046,275,0,0,0,5,1,4,51,0001-00-0009-64.png,0004-00-0005-77.png
00000009,22,0,1444835447697,1444835448406,936,360,0,0,0,3,5,2,35,0003-00-0009-80.png,0001-00-0009-37.png
00000009,23,1,1444835451534,1444835451986,1040,312,0,0,0,4,2,2,42,0005-00-0001-95.png,0002-00-0008-33.png
00000009,24,1,1444835453292,1444835453924,462,256,0,0,0,2,5,3,25,0002-00-0008-12.png,0001-00-0002-51.png
00000009,25,0,1444835454813,1444835455568,915,365,0,0,0,4,5,1,45,0005-00-0003-14.png,0001-00-0008-64.png
00000009,26,1,1444835458470,1444835459005,952,405,0,0,0,5,3,2,53,0001-00-0005-36.png,0003-00-0003-84.png
00000009,27,0,1444835459889,1444835460662,433,291,0,0,0,4,3,1,43,0005-00-0004-47.png,0003-00-0006-60.png
00000009,28,1,1444835463495,1444835464003,963,351,0,0,0,3,2,1,32,0003-00-0004-33.png,0002-00-0004-79.png
00000009,29,1,1444835465303,1444835465920,468,279,0,0,0,1,5,4,15,0004-00-0009-07.png,0001-00-0007-28.png
00000009,30,1,1444835466920,1444835467668,367,376,0,0,0,2,3,1,23,0002-00-0004-97.png,0003-00-0007-15.png
00000009,31,1,1444835468575,1444835469135,969,372,0,0,0,3,1,2,31,0003-00-0001-40.png,0004-00-0005-13.png
00000009,32,1,1444835470055,1444835470123,895,402,0,0,0,2,1,1,21,0002-00-0006-37.png,0004-00-0002-81.png
00000009,33,0,1444835471269,1444835471305,871,410,0,0,0,1,2,1,12,0004-00-0003-82.png,0002-00-0005-39.png
00000009,34,1,1444835474518,1444835475033,459,273,0,0,0,2,4,2,24,0002-00-0002-56.png,0005-00-0009-77.png
00000009,35,1,1444835476377,1444835477003,965,333,0,0,0,4,1,3,41,0005-00-0002-85.png,0004-00-0009-69.png
00000009,36,1,1444835478615,1444835479315,964,345,0,0,0,5,4,1,54,0001-00-0004-42.png,0005-00-0003-96.png
00000009,37,0,1444835480248,1444835480308,889,428,0,0,0,1,4,3,14,0004-00-0003-25.png,0005-00-0001-19.png
00000009,38,1,1444835483174,1444835483298,875,328,0,0,0,5,2,3,52,0001-00-0007-80.png,0002-00-0001-70.png
00000009,39,0,1444835484247,1444835484323,862,477,0,0,0,1,3,2,13,0004-00-0003-46.png,0003-00-0000-00.png
00000009,40,1,1444835487448,1444835488081,458,277,0,0,0,3,4,1,34,0003-00-0007-66.png,0005-00-0005-70.png
00000009,41,1,1444835488913,1444835489839,1075,310,0,0,0,4,2,2,42,0005-00-0003-55.png,0002-00-0009-06.png
00000009,42,0,1444835490686,1444835490742,888,419,0,0,0,2,4,2,24,0002-00-0009-48.png,0005-00-0006-14.png
00000009,43,1,1444835493778,1444835494245,1067,279,0,0,0,5,2,3,52,0001-00-0006-34.png,0002-00-0005-19.png
00000009,44,1,1444835495558,1444835496201,462,255,0,0,0,1,5,4,15,0004-00-0006-22.png,0001-00-0008-81.png
00000009,45,1,1444835497088,1444835497762,440,296,0,0,0,2,5,3,25,0002-00-0001-36.png,0001-00-0000-63.png
00000009,46,0,1444835498737,1444835499361,899,349,0,0,0,1,2,1,12,0004-00-0008-96.png,0002-00-0006-32.png
00000009,47,1,1444835502523,1444835502539,884,316,0,0,0,4,3,1,43,0005-00-0009-82.png,0003-00-0006-28.png
00000009,48,0,1444835503393,1444835504244,436,284,0,0,0,5,4,1,54,0001-00-0009-71.png,0005-00-0003-04.png
00000009,49,1,1444835507234,1444835507759,480,256,0,0,0,2,3,1,23,0002-00-0003-66.png,0003-00-0004-70.png
00000009,50,1,1444835509144,1444835509719,948,353,0,0,0,2,1,1,21,0002-00-0000-15.png,0004-00-0006-08.png
00000009,51,1,1444835511119,1444835511777,424,276,0,0,0,1,4,3,14,0004-00-0002-45.png,0005-00-0001-41.png
00000009,52,1,1444835512826,1444835513361,951,360,0,0,0,4,1,3,41,0005-00-0009-42.png,0004-00-0003-19.png
00000009,53,1,1444835514376,1444835514403,906,402,0,0,0,5,1,4,51,0001-00-0002-43.png,0004-00-0007-75.png
00000009,54,0,1444835515592,1444835515661,871,445,0,0,0,1,3,2,13,0004-00-0002-52.png,0003-00-0000-75.png
00000009,55,0,1444835518838,1444835519414,427,295,0,0,0,5,3,2,53,0001-00-0009-05.png,0003-00-0001-83.png
00000009,56,1,1444835522569,1444835522793,917,327,0,0,0,3,1,2,31,0003-00-0009-37.png,0004-00-0002-62.png
00000009,57,0,1444835523711,1444835523758,870,427,0,0,0,3,5,2,35,0003-00-0005-08.png,0001-00-0003-17.png
00000009,58,0,1444835526888,1444835527408,1041,288,0,0,0,3,4,1,34,0003-00-0004-90.png,0005-00-0004-07.png
00000009,59,0,1444835530537,1444835530653,874,279,0,0,0,4,5,1,45,0005-00-0003-44.png,0001-00-0001-94.png
00000009,60,1,1444835533757,1444835534232,959,313,0,0,0,3,2,1,32,0003-00-0000-13.png,0002-00-0005-68.png
00000009,61,1,1444835535522,1444835536398,1041,268,0,0,0,4,1,3,41,0005-00-0007-06.png,0004-00-0004-75.png
00000009,62,0,1444835537251,1444835537299,890,406,0,0,0,2,4,2,24,0002-00-0003-71.png,0005-00-0002-15.png
00000009,63,0,1444835540502,1444835541005,965,336,0,0,0,3,5,2,35,0003-00-0004-16.png,0001-00-0008-41.png
00000009,64,0,1444835543912,1444835544455,913,399,0,0,0,1,4,3,14,0004-00-0003-49.png,0005-00-0003-17.png
00000009,65,1,1444835547540,1444835548093,950,306,0,0,0,5,1,4,51,0001-00-0002-38.png,0004-00-0000-67.png
00000009,66,1,1444835549458,1444835550054,931,359,0,0,0,5,4,1,54,0001-00-0008-60.png,0005-00-0003-20.png
00000009,67,1,1444835550999,1444835551063,923,419,0,0,0,4,2,2,42,0005-00-0000-47.png,0002-00-0006-30.png
00000009,68,1,1444835552181,1444835552225,858,412,0,0,0,4,3,1,43,0005-00-0001-25.png,0003-00-0002-06.png
00000009,69,0,1444835553402,1444835553438,872,436,0,0,0,4,5,1,45,0005-00-0001-16.png,0001-00-0001-79.png
00000009,70,1,1444835556292,1444835556777,1052,306,0,0,0,5,2,3,52,0001-00-0004-28.png,0002-00-0005-94.png
00000009,71,1,1444835558091,1444835558680,340,398,0,0,0,1,3,2,13,0004-00-0001-87.png,0003-00-0000-41.png
00000009,72,0,1444835559564,1444835560250,433,273,0,0,0,2,1,1,21,0002-00-0006-24.png,0004-00-0008-87.png
00000009,73,0,1444835563397,1444835563433,914,301,0,0,0,2,5,3,25,0002-00-0004-31.png,0001-00-0007-42.png
00000009,74,0,1444835566570,1444835566598,880,317,0,0,0,3,4,1,34,0003-00-0000-51.png,0005-00-0006-05.png
00000009,75,0,1444835569670,1444835569860,933,436,0,0,0,1,2,1,12,0004-00-0002-12.png,0002-00-0007-34.png
00000009,76,1,1444835573157,1444835573691,459,271,0,0,0,2,3,1,23,0002-00-0006-02.png,0003-00-0002-08.png
00000009,77,1,1444835575027,1444835575596,964,426,0,0,0,3,2,1,32,0003-00-0000-12.png,0002-00-0007-99.png
00000009,78,1,1444835576444,1444835576492,859,412,0,0,0,3,1,2,31,0003-00-0002-35.png,0004-00-0006-99.png
00000009,79,1,1444835577620,1444835577676,865,436,0,0,0,5,3,2,53,0001-00-0001-22.png,0003-00-0006-10.png
00000009,80,0,1444835578870,1444835578930,862,449,0,0,0,1,5,4,15,0004-00-0002-72.png,0001-00-0009-39.png
00000009,81,1,1444835581790,1444835582418,436,280,0,0,0,1,5,4,15,0004-00-0007-29.png,0001-00-0008-50.png
00000009,82,1,1444835583799,1444835584294,1039,283,0,0,0,4,3,1,43,0005-00-0005-36.png,0003-00-0006-03.png
00000009,83,0,1444835585126,1444835585178,860,422,0,0,0,4,5,1,45,0005-00-0001-99.png,0001-00-0000-51.png
00000009,84,0,1444835588179,1444835588665,909,346,0,0,0,1,2,1,12,0004-00-0001-11.png,0002-00-0000-85.png
00000009,85,1,1444835591510,1444835592003,941,350,0,0,0,5,2,3,52,0001-00-0004-20.png,0002-00-0008-63.png
00000009,86,1,1444835593251,1444835593835,448,264,0,0,0,2,5,3,25,0002-00-0002-21.png,0001-00-0004-96.png
00000009,87,1,1444835594690,1444835595395,409,235,0,0,0,2,4,2,24,0002-00-0001-82.png,0005-00-0000-33.png
00000009,88,1,1444835596520,1444835597167,415,356,0,0,0,3,4,1,34,0003-00-0006-48.png,0005-00-0002-36.png
00000009,89,1,1444835598321,1444835598960,1076,297,0,0,0,3,2,1,32,0003-00-0005-42.png,0002-00-0001-27.png
00000009,90,1,1444835599959,1444835599983,888,410,0,0,0,5,3,2,53,0001-00-0006-05.png,0003-00-0007-49.png
00000009,91,0,1444835601191,1444835601247,862,462,0,0,0,2,3,1,23,0002-00-0005-32.png,0003-00-0007-09.png
00000009,92,0,1444835604322,1444835604613,1010,283,0,0,0,3,5,2,35,0003-00-0008-32.png,0001-00-0001-23.png
00000009,93,1,1444835607766,1444835607862,964,279,0,0,0,3,1,2,31,0003-00-0006-32.png,0004-00-0007-04.png
00000009,94,0,1444835608772,1444835609483,960,351,0,0,0,1,4,3,14,0004-00-0007-56.png,0005-00-0006-11.png
00000009,95,1,1444835612678,1444835612936,983,353,0,0,0,5,1,4,51,0001-00-0001-14.png,0004-00-0004-32.png
00000009,96,1,1444835613940,1444835614000,871,426,0,0,0,4,1,3,41,0005-00-0005-10.png,0004-00-0001-68.png
00000009,97,1,1444835615104,1444835615201,862,462,0,0,0,2,1,1,21,0002-00-0001-02.png,0004-00-0004-80.png
00000009,98,0,1444835616566,1444835616634,889,433,0,0,0,1,3,2,13,0004-00-0000-21.png,0003-00-0009-94.png
00000009,99,1,1444835619823,1444835620294,1061,275,0,0,0,4,2,2,42,0005-00-0008-30.png,0002-00-0003-07.png
00000009,100,1,1444835621539,1444835622376,990,346,0,0,0,5,4,1,54,0001-00-0008-00.png,0005-00-0009-62.png
00000009,101,0,1444835623261,1444835623297,875,358,0,0,0,1,3,2,13,0004-00-0003-75.png,0003-00-0006-40.png
00000009,102,1,1444835626359,1444835626830,1083,279,0,0,0,5,4,1,54,0001-00-0005-72.png,0005-00-0008-37.png
00000009,103,1,1444835627659,1444835627679,863,390,0,0,0,5,2,3,52,0001-00-0004-51.png,0002-00-0001-55.png
00000009,104,1,1444835628936,1444835629274,882,469,0,0,0,3,2,1,32,0003-00-0000-94.png,0002-00-0005-58.png
00000009,105,0,1444835630396,1444835630444,862,447,0,0,0,4,5,1,45,0005-00-0006-42.png,0001-00-0001-17.png
00000009,106,1,1444835633584,1444835634102,431,304,0,0,0,2,4,2,24,0002-00-0001-03.png,0005-00-0001-33.png
00000009,107,1,1444835635395,1444835636148,444,234,0,0,0,3,4,1,34,0003-00-0009-09.png,0005-00-0006-02.png
00000009,108,1,1444835636980,1444835637701,905,388,0,0,0,2,1,1,21,0002-00-0009-33.png,0004-00-0003-23.png
00000009,109,1,1444835639071,1444835639484,988,542,0,0,0,5,1,4,51,0001-00-0006-41.png,0004-00-0001-38.png
00000009,110,1,1444835640563,1444835640619,888,423,0,0,0,3,1,2,31,0003-00-0000-95.png,0004-00-0001-01.png
00000009,111,0,1444835641835,1444835641859,870,434,0,0,0,2,5,3,25,0002-00-0002-95.png,0001-00-0007-38.png
00000009,112,1,1444835644952,1444835645659,348,408,0,0,0,1,2,1,12,0004-00-0009-87.png,0002-00-0006-45.png
00000009,113,0,1444835646969,1444835647842,451,281,0,0,0,4,1,3,41,0005-00-0003-96.png,0004-00-0002-58.png
00000009,114,1,1444835650956,1444835651470,457,292,0,0,0,2,3,1,23,0002-00-0008-81.png,0003-00-0004-12.png
00000009,115,0,1444835652324,1444835653331,924,381,0,0,0,3,5,2,35,0003-00-0006-44.png,0001-00-0009-50.png
00000009,116,1,1444835656482,1444835657018,433,278,0,0,0,1,5,4,15,0004-00-0007-23.png,0001-00-0009-92.png
00000009,117,1,1444835658379,1444835659337,920,359,0,0,0,4,3,1,43,0005-00-0008-03.png,0003-00-0006-94.png
00000009,118,1,1444835660205,1444835660277,865,436,0,0,0,4,2,2,42,0005-00-0006-69.png,0002-00-0000-68.png
00000009,119,1,1444835661448,1444835661539,880,472,0,0,0,5,3,2,53,0001-00-0002-95.png,0003-00-0006-90.png
00000009,120,0,1444835662732,1444835662788,860,439,0,0,0,1,4,3,14,0004-00-0005-93.png,0005-00-0008-46.png
00000009,121,0,1444835665829,1444835665959,939,279,0,0,0,1,3,2,13,0004-00-0000-72.png,0003-00-0004-64.png
00000009,122,1,1444835669072,1444835669534,1092,279,0,0,0,4,1,3,41,0005-00-0001-52.png,0004-00-0009-42.png
00000009,123,0,1444835670380,1444835671225,941,338,0,0,0,3,4,1,34,0003-00-0008-51.png,0005-00-0006-61.png
00000009,124,1,1444835674436,1444835674984,326,398,0,0,0,2,4,2,24,0002-00-0004-75.png,0005-00-0009-20.png
00000009,125,1,1444835676287,1444835676913,934,376,0,0,0,3,1,2,31,0003-00-0002-63.png,0004-00-0005-20.png
00000009,126,0,1444835677807,1444835677843,889,412,0,0,0,2,5,3,25,0002-00-0009-50.png,0001-00-0002-54.png
00000009,127,0,1444835680998,1444835681703,442,279,0,0,0,5,4,1,54,0001-00-0009-91.png,0005-00-0005-75.png
00000009,128,1,1444835684774,1444835684879,963,279,0,0,0,5,1,4,51,0001-00-0009-33.png,0004-00-0006-24.png
00000009,129,0,1444835685753,1444835686424,1067,292,0,0,0,1,2,1,12,0004-00-0004-08.png,0002-00-0007-01.png
00000009,130,0,1444835689580,1444835689608,955,279,0,0,0,3,5,2,35,0003-00-0006-66.png,0001-00-0003-34.png
00000009,131,0,1444835692766,1444835693792,313,398,0,0,0,4,3,1,43,0005-00-0005-79.png,0003-00-0004-00.png
00000009,132,1,1444835696909,1444835697705,327,378,0,0,0,1,4,3,14,0004-00-0004-26.png,0005-00-0006-87.png
00000009,133,0,1444835698534,1444835699915,342,363,0,0,0,5,3,2,53,0001-00-0005-42.png,0003-00-0005-14.png
00000009,134,1,1444835703188,1444835703748,955,373,0,0,0,2,1,1,21,0002-00-0007-56.png,0004-00-0001-13.png
00000009,135,1,1444835705185,1444835705708,438,308,0,0,0,2,3,1,23,0002-00-0009-07.png,0003-00-0007-94.png
00000009,136,1,1444835707274,1444835707871,937,316,0,0,0,4,2,2,42,0005-00-0002-87.png,0002-00-0004-19.png
00000009,137,0,1444835709548,1444835710104,1046,287,0,0,0,4,5,1,45,0005-00-0009-18.png,0001-00-0008-03.png
00000009,138,0,1444835713277,1444835713832,441,251,0,0,0,5,2,3,52,0001-00-0002-64.png,0002-00-0007-72.png
00000009,139,1,1444835717273,1444835717936,431,292,0,0,0,1,5,4,15,0004-00-0004-79.png,0001-00-0007-29.png
00000009,140,1,1444835720210,1444835720251,865,314,0,0,0,3,2,1,32,0003-00-0009-81.png,0002-00-0009-76.png
00000009,141,1,1444835721285,1444835722113,955,337,0,0,0,4,1,3,41,0005-00-0007-84.png,0004-00-0006-50.png
00000009,142,0,1444835723150,1444835723191,943,434,0,0,0,2,5,3,25,0002-00-0006-20.png,0001-00-0000-72.png
00000009,143,1,1444835726495,1444835727320,438,254,0,0,0,1,4,3,14,0004-00-0006-78.png,0005-00-0009-32.png
00000009,144,1,1444835728177,1444835729225,360,383,0,0,0,1,2,1,12,0004-00-0005-59.png,0002-00-0003-76.png
00000009,145,1,1444835730240,1444835731091,936,357,0,0,0,5,1,4,51,0001-00-0004-53.png,0004-00-0000-91.png
00000009,146,0,1444835732039,1444835732095,897,447,0,0,0,3,5,2,35,0003-00-0008-03.png,0001-00-0001-63.png
00000009,147,0,1444835735239,1444835735295,913,306,0,0,0,4,5,1,45,0005-00-0009-51.png,0001-00-0000-12.png
00000009,148,1,1444835738468,1444835738972,340,427,0,0,0,1,3,2,13,0004-00-0001-10.png,0003-00-0000-14.png
00000009,149,1,1444835739799,1444835740510,939,367,0,0,0,2,1,1,21,0002-00-0000-00.png,0004-00-0006-46.png
00000009,150,1,1444835741377,1444835741445,895,414,0,0,0,5,4,1,54,0001-00-0004-02.png,0005-00-0000-99.png
00000009,151,1,1444835742562,1444835742776,862,462,0,0,0,5,2,3,52,0001-00-0000-30.png,0002-00-0000-32.png
00000009,152,1,1444835744142,1444835744813,1054,306,0,0,0,3,2,1,32,0003-00-0002-36.png,0002-00-0002-21.png
00000009,153,0,1444835745658,1444835746892,357,382,0,0,0,5,3,2,53,0001-00-0001-44.png,0003-00-0005-62.png
00000009,154,1,1444835750036,1444835750932,993,374,0,0,0,4,3,1,43,0005-00-0009-63.png,0003-00-0008-41.png
00000009,155,1,1444835751769,1444835752407,990,346,0,0,0,3,1,2,31,0003-00-0001-64.png,0004-00-0001-60.png
00000009,156,0,1444835753326,1444835753371,902,421,0,0,0,3,4,1,34,0003-00-0000-93.png,0005-00-0008-87.png
00000009,157,1,1444835756264,1444835756791,360,391,0,0,0,2,4,2,24,0002-00-0005-26.png,0005-00-0006-98.png
00000009,158,0,1444835758174,1444835758711,964,427,0,0,0,1,5,4,15,0004-00-0009-23.png,0001-00-0001-06.png
00000009,159,1,1444835761860,1444835762382,942,327,0,0,0,4,2,2,42,0005-00-0005-75.png,0002-00-0006-00.png
00000009,160,0,1444835763212,1444835763280,891,425,0,0,0,2,3,1,23,0002-00-0002-77.png,0003-00-0003-71.png
00000009,161,1,1444835766374,1444835766905,1088,302,0,0,0,3,1,2,31,0003-00-0006-82.png,0004-00-0001-31.png
00000009,162,1,1444835767731,1444835767791,865,433,0,0,0,2,1,1,21,0002-00-0007-88.png,0004-00-0003-21.png
00000009,163,0,1444835768927,1444835768967,866,411,0,0,0,1,5,4,15,0004-00-0009-18.png,0001-00-0007-76.png
00000009,164,1,1444835772068,1444835772584,973,327,0,0,0,4,1,3,41,0005-00-0008-96.png,0004-00-0002-50.png
00000009,165,1,1444835773454,1444835774151,938,340,0,0,0,5,1,4,51,0001-00-0001-82.png,0004-00-0003-05.png
00000009,166,0,1444835775017,1444835775057,900,396,0,0,0,2,4,2,24,0002-00-0007-08.png,0005-00-0005-95.png
00000009,167,1,1444835778150,1444835778742,412,285,0,0,0,1,4,3,14,0004-00-0006-31.png,0005-00-0003-42.png
00000009,168,0,1444835780048,1444835780822,972,425,0,0,0,3,5,2,35,0003-00-0007-43.png,0001-00-0002-50.png
00000009,169,1,1444835783780,1444835784497,1067,279,0,0,0,5,2,3,52,0001-00-0002-56.png,0002-00-0007-65.png
00000009,170,1,1444835785860,1444835786957,944,328,0,0,0,5,3,2,53,0001-00-0003-07.png,0003-00-0005-39.png
00000009,171,0,1444835787816,1444835787880,872,386,0,0,0,2,3,1,23,0002-00-0008-05.png,0003-00-0005-47.png
00000009,172,1,1444835790900,1444835791850,337,361,0,0,0,4,5,1,45,0005-00-0004-55.png,0001-00-0001-71.png
00000009,173,0,1444835792695,1444835794097,358,403,0,0,0,4,3,1,43,0005-00-0007-51.png,0003-00-0006-06.png
00000009,174,1,1444835796968,1444835798055,391,277,0,0,0,1,2,1,12,0004-00-0008-41.png,0002-00-0002-43.png
00000009,175,0,1444835798953,1444835799057,860,410,0,0,0,3,4,1,34,0003-00-0003-83.png,0005-00-0001-93.png
00000009,176,1,1444835802216,1444835802793,956,374,0,0,0,3,2,1,32,0003-00-0003-49.png,0002-00-0000-93.png
00000009,177,0,1444835804148,1444835804952,446,258,0,0,0,5,4,1,54,0001-00-0007-24.png,0005-00-0008-52.png
00000009,178,1,1444835808124,1444835808342,905,336,0,0,0,4,2,2,42,0005-00-0003-01.png,0002-00-0008-36.png
00000009,179,1,1444835809436,1444835810523,331,403,0,0,0,2,5,3,25,0002-00-0001-97.png,0001-00-0000-03.png
00000009,180,1,1444835811493,1444835812529,356,400,0,0,0,1,3,2,13,0004-00-0005-49.png,0003-00-0006-60.png
00000009,181,1,1444835813447,1444835814150,931,339,0,0,0,5,4,1,54,0001-00-0003-97.png,0005-00-0007-33.png
00000009,182,0,1444835815299,1444835815567,913,436,0,0,0,1,2,1,12,0004-00-0008-39.png,0002-00-0007-21.png
00000009,183,0,1444835818568,1444835819111,960,308,0,0,0,3,5,2,35,0003-00-0001-69.png,0001-00-0002-31.png
00000009,184,1,1444835822195,1444835822345,982,277,0,0,0,3,1,2,31,0003-00-0002-27.png,0004-00-0002-55.png
00000009,185,1,1444835823277,1444835823894,1078,279,0,0,0,2,1,1,21,0002-00-0009-56.png,0004-00-0009-62.png
00000009,186,0,1444835824826,1444835824911,939,420,0,0,0,3,4,1,34,0003-00-0005-00.png,0005-00-0007-51.png
00000009,187,1,1444835827787,1444835828332,955,401,0,0,0,5,2,3,52,0001-00-0004-17.png,0002-00-0001-52.png
00000009,188,1,1444835829617,1444835830277,443,292,0,0,0,1,5,4,15,0004-00-0006-03.png,0001-00-0009-35.png
00000009,189,1,1444835831235,1444835831925,452,275,0,0,0,2,3,1,23,0002-00-0006-91.png,0003-00-0003-37.png
00000009,190,0,1444835832886,1444835833838,386,362,0,0,0,4,3,1,43,0005-00-0009-48.png,0003-00-0004-77.png
00000009,191,1,1444835837050,1444835837751,456,265,0,0,0,1,4,3,14,0004-00-0000-53.png,0005-00-0003-84.png
00000009,192,0,1444835839553,1444835840177,938,350,0,0,0,2,5,3,25,0002-00-0000-89.png,0001-00-0009-98.png
00000009,193,0,1444835843321,1444835843397,871,278,0,0,0,4,5,1,45,0005-00-0005-97.png,0001-00-0007-00.png
00000009,194,1,1444835846532,1444835847122,1051,300,0,0,0,4,2,2,42,0005-00-0009-63.png,0002-00-0003-57.png
00000009,195,1,1444835847960,1444835848635,363,371,0,0,0,1,3,2,13,0004-00-0001-66.png,0003-00-0003-85.png
00000009,196,1,1444835849573,1444835850404,414,295,0,0,0,2,4,2,24,0002-00-0005-45.png,0005-00-0006-74.png
00000009,197,1,1444835851381,1444835852055,953,334,0,0,0,3,2,1,32,0003-00-0008-98.png,0002-00-0002-05.png
00000009,198,1,1444835853081,1444835853125,893,428,0,0,0,5,1,4,51,0001-00-0003-87.png,0004-00-0001-55.png
00000009,199,1,1444835854553,1444835854631,879,425,0,0,0,4,1,3,41,0005-00-0006-93.png,0004-00-0004-48.png
00000009,200,1,1444835855841,1444835855889,868,427,0,0,0,5,3,2,53,0001-00-0005-71.png,0003-00-0005-07.png
00000009,201,0,1444835857322,1444835857394,893,447,0,0,0,1,3,2,13,0004-00-0004-01.png,0003-00-0006-06.png
00000009,202,1,1444835860380,1444835861029,939,357,0,0,0,3,2,1,32,0003-00-0009-57.png,0002-00-0001-44.png
00000009,203,0,1444835862292,1444835863060,948,354,0,0,0,4,5,1,45,0005-00-0006-67.png,0001-00-0002-18.png
00000009,204,0,1444835866247,1444835866990,369,401,0,0,0,5,3,2,53,0001-00-0000-43.png,0003-00-0009-91.png
00000009,205,0,1444835870139,1444835870786,504,257,0,0,0,4,3,1,43,0005-00-0006-23.png,0003-00-0004-02.png
00000009,206,1,1444835873800,1444835874325,940,364,0,0,0,2,1,1,21,0002-00-0004-83.png,0004-00-0002-22.png
00000009,207,0,1444835875669,1444835876325,964,358,0,0,0,2,5,3,25,0002-00-0003-38.png,0001-00-0006-90.png
00000009,208,1,1444835879494,1444835880034,389,417,0,0,0,1,5,4,15,0004-00-0005-33.png,0001-00-0006-77.png
00000009,209,1,1444835881452,1444835882223,465,253,0,0,0,2,3,1,23,0002-00-0009-75.png,0003-00-0002-15.png
00000009,210,0,1444835883160,1444835884231,961,338,0,0,0,1,2,1,12,0004-00-0007-92.png,0002-00-0005-51.png
00000009,211,1,1444835887406,1444835888175,470,266,0,0,0,3,4,1,34,0003-00-0005-17.png,0005-00-0000-44.png
00000009,212,1,1444835889007,1444835889793,942,339,0,0,0,3,1,2,31,0003-00-0006-39.png,0004-00-0006-07.png
00000009,213,1,1444835890723,1444835890751,888,416,0,0,0,4,1,3,41,0005-00-0005-15.png,0004-00-0008-93.png
00000009,214,1,1444835891866,1444835891926,862,436,0,0,0,5,2,3,52,0001-00-0002-57.png,0002-00-0008-08.png
00000009,215,1,1444835893135,1444835893199,862,451,0,0,0,4,2,2,42,0005-00-0002-00.png,0002-00-0004-25.png
00000009,216,0,1444835894516,1444835895645,930,325,0,0,0,2,4,2,24,0002-00-0006-43.png,0005-00-0002-48.png
00000009,217,1,1444835898607,1444835899111,388,376,0,0,0,1,4,3,14,0004-00-0004-95.png,0005-00-0009-54.png
00000009,218,1,1444835900409,1444835900924,911,350,0,0,0,5,1,4,51,0001-00-0000-72.png,0004-00-0006-24.png
00000009,219,0,1444835901802,1444835901850,858,422,0,0,0,3,5,2,35,0003-00-0005-47.png,0001-00-0003-27.png
00000009,220,1,1444835905005,1444835905534,974,329,0,0,0,5,4,1,54,0001-00-0004-81.png,0005-00-0001-62.png
00000009,221,1,1444835906872,1444835907613,360,344,0,0,0,1,2,1,12,0004-00-0009-08.png,0002-00-0000-49.png
00000009,222,0,1444835908456,1444835909357,961,344,0,0,0,4,5,1,45,0005-00-0002-25.png,0001-00-0004-34.png
00000009,223,1,1444835912397,1444835912890,962,326,0,0,0,3,1,2,31,0003-00-0006-74.png,0004-00-0006-64.png
00000009,224,0,1444835914162,1444835914186,862,384,0,0,0,1,5,4,15,0004-00-0007-22.png,0001-00-0009-27.png
00000009,225,1,1444835917316,1444835918268,355,434,0,0,0,1,3,2,13,0004-00-0004-42.png,0003-00-0001-95.png
00000009,226,1,1444835919101,1444835919996,427,265,0,0,0,1,4,3,14,0004-00-0000-75.png,0005-00-0007-07.png
00000009,227,1,1444835920903,1444835921774,941,401,0,0,0,5,1,4,51,0001-00-0009-98.png,0004-00-0007-22.png
00000009,228,1,1444835922821,1444835922857,876,419,0,0,0,3,2,1,32,0003-00-0000-80.png,0002-00-0003-08.png
00000009,229,1,1444835924292,1444835924368,883,464,0,0,0,4,3,1,43,0005-00-0008-51.png,0003-00-0009-54.png
00000009,230,1,1444835925685,1444835925729,868,433,0,0,0,5,4,1,54,0001-00-0001-19.png,0005-00-0004-93.png
00000009,231,0,1444835927014,1444835927811,472,220,0,0,0,2,1,1,21,0002-00-0005-85.png,0004-00-0007-08.png
00000009,232,1,1444835930770,1444835931812,940,353,0,0,0,5,2,3,52,0001-00-0000-74.png,0002-00-0009-77.png
00000009,233,1,1444835932711,1444835932747,860,464,0,0,0,5,3,2,53,0001-00-0005-48.png,0003-00-0003-10.png
00000009,234,1,1444835933751,1444835935051,363,388,0,0,0,3,5,2,35,0003-00-0000-09.png,0001-00-0003-70.png
00000009,235,1,1444835935915,1444835937154,382,375,0,0,0,2,3,1,23,0002-00-0000-62.png,0003-00-0004-57.png
00000009,236,1,1444835938067,1444835939013,357,405,0,0,0,2,5,3,25,0002-00-0001-85.png,0001-00-0001-23.png
00000009,237,1,1444835939891,1444835940914,384,382,0,0,0,2,4,2,24,0002-00-0007-83.png,0005-00-0001-86.png
00000009,238,0,1444835941930,1444835942811,952,362,0,0,0,3,4,1,34,0003-00-0006-54.png,0005-00-0000-43.png
00000009,239,1,1444835945773,1444835946324,1031,306,0,0,0,4,1,3,41,0005-00-0008-24.png,0004-00-0004-52.png
00000009,240,1,1444835947655,1444835948405,1041,291,0,0,0,4,2,2,42,0005-00-0001-94.png,0002-00-0009-50.png
00000009,241,0,1444835949361,1444835949389,858,435,0,0,0,3,5,2,35,0003-00-0003-94.png,0001-00-0000-46.png
00000009,242,1,1444835952253,1444835952813,939,370,0,0,0,4,2,2,42,0005-00-0000-66.png,0002-00-0003-02.png
00000009,243,1,1444835954122,1444835954698,362,372,0,0,0,2,3,1,23,0002-00-0005-73.png,0003-00-0007-66.png
00000009,244,0,1444835955591,1444835956574,408,374,0,0,0,5,4,1,54,0001-00-0004-91.png,0005-00-0005-68.png
00000009,245,1,1444835959660,1444835960194,930,324,0,0,0,3,2,1,32,0003-00-0005-53.png,0002-00-0009-99.png
00000009,246,0,1444835961066,1444835961106,859,429,0,0,0,3,4,1,34,0003-00-0002-58.png,0005-00-0002-92.png
00000009,247,1,1444835964192,1444835964760,449,277,0,0,0,2,4,2,24,0002-00-0005-86.png,0005-00-0007-81.png
00000009,248,1,1444835966005,1444835966620,403,412,0,0,0,1,4,3,14,0004-00-0005-10.png,0005-00-0008-47.png
00000009,249,1,1444835967984,1444835968629,926,355,0,0,0,4,1,3,41,0005-00-0009-85.png,0004-00-0002-97.png
00000009,250,0,1444835969507,1444835969553,886,415,0,0,0,4,5,1,45,0005-00-0005-54.png,0001-00-0005-21.png
00000009,251,1,1444835972617,1444835973161,453,304,0,0,0,1,5,4,15,0004-00-0006-92.png,0001-00-0007-18.png
00000009,252,1,1444835974484,1444835975036,464,279,0,0,0,2,5,3,25,0002-00-0009-07.png,0001-00-0000-63.png
00000009,253,1,1444835975943,1444835977005,1067,317,0,0,0,5,1,4,51,0001-00-0002-80.png,0004-00-0002-48.png
00000009,254,1,1444835978021,1444835978050,866,441,0,0,0,2,1,1,21,0002-00-0006-17.png,0004-00-0004-29.png
00000009,255,0,1444835979360,1444835979444,878,470,0,0,0,1,2,1,12,0004-00-0005-95.png,0002-00-0005-08.png
00000009,256,1,1444835982579,1444835983155,940,348,0,0,0,5,2,3,52,0001-00-0000-94.png,0002-00-0009-60.png
00000009,257,1,1444835984428,1444835985136,1049,299,0,0,0,3,1,2,31,0003-00-0003-64.png,0004-00-0007-46.png
00000009,258,0,1444835985967,1444835986762,460,248,0,0,0,5,3,2,53,0001-00-0004-98.png,0003-00-0001-51.png
00000009,259,1,1444835989916,1444835989952,961,302,0,0,0,4,3,1,43,0005-00-0004-59.png,0003-00-0008-59.png
00000009,260,1,1444835990900,1444835991649,403,384,0,0,0,1,3,2,13,0004-00-0006-38.png,0003-00-0005-82.png
00000009,261,0,1444835992507,1444835993752,1069,308,0,0,0,4,5,1,45,0005-00-0001-78.png,0001-00-0001-43.png
00000009,262,0,1444835996919,1444835997774,433,277,0,0,0,4,3,1,43,0005-00-0003-26.png,0003-00-0003-55.png
00000009,263,1,1444836000716,1444836001333,429,297,0,0,0,1,3,2,13,0004-00-0000-29.png,0003-00-0005-88.png
00000009,264,1,1444836002627,1444836003131,933,366,0,0,0,5,1,4,51,0001-00-0004-28.png,0004-00-0005-76.png
00000009,265,1,1444836004525,1444836005421,399,379,0,0,0,3,4,1,34,0003-00-0003-69.png,0005-00-0002-76.png
00000009,266,1,1444836006270,1444836007142,396,405,0,0,0,2,4,2,24,0002-00-0005-69.png,0005-00-0006-19.png
00000009,267,1,1444836008033,1444836008874,1053,291,0,0,0,5,2,3,52,0001-00-0001-04.png,0002-00-0001-03.png
00000009,268,1,1444836009781,1444836009909,939,514,0,0,0,4,2,2,42,0005-00-0001-54.png,0002-00-0008-07.png
00000009,269,1,1444836011081,1444836012292,1076,286,0,0,0,3,2,1,32,0003-00-0005-66.png,0002-00-0001-72.png
00000009,270,0,1444836013170,1444836013198,867,411,0,0,0,1,5,4,15,0004-00-0008-75.png,0001-00-0004-42.png
00000009,271,1,1444836016282,1444836016731,931,335,0,0,0,3,1,2,31,0003-00-0008-89.png,0004-00-0000-38.png
00000009,272,0,1444836018068,1444836018764,437,410,0,0,0,4,1,3,41,0005-00-0004-23.png,0004-00-0002-36.png
00000009,273,1,1444836021945,1444836022488,370,392,0,0,0,1,4,3,14,0004-00-0004-63.png,0005-00-0005-85.png
00000009,274,1,1444836023921,1444836024533,419,278,0,0,0,2,5,3,25,0002-00-0009-79.png,0001-00-0000-79.png
00000009,275,0,1444836025389,1444836025401,522,531,0,0,0,2,1,1,21,0002-00-0005-53.png,0004-00-0006-98.png
00000009,276,1,1444836028331,1444836028355,858,352,0,0,0,5,4,1,54,0001-00-0008-77.png,0005-00-0001-58.png
00000009,277,1,1444836029278,1444836030399,939,331,0,0,0,5,3,2,53,0001-00-0009-47.png,0003-00-0001-87.png
00000009,278,0,1444836031325,1444836031373,878,422,0,0,0,1,2,1,12,0004-00-0008-58.png,0002-00-0006-33.png
00000009,279,0,1444836034585,1444836035130,1056,282,0,0,0,3,5,2,35,0003-00-0001-78.png,0001-00-0007-63.png
00000009,280,1,1444836038252,1444836038879,380,413,0,0,0,2,3,1,23,0002-00-0007-83.png,0003-00-0009-63.png
00000009,281,0,1444836040269,1444836040888,428,277,0,0,0,2,1,1,21,0002-00-0003-31.png,0004-00-0005-73.png
00000009,282,1,1444836044057,1444836044152,936,306,0,0,0,3,2,1,32,0003-00-0000-47.png,0002-00-0001-70.png
00000009,283,1,1444836045129,1444836045953,364,358,0,0,0,2,4,2,24,0002-00-0007-43.png,0005-00-0002-60.png
00000009,284,0,1444836046838,1444836047699,435,374,0,0,0,4,3,1,43,0005-00-0004-71.png,0003-00-0004-13.png
00000009,285,1,1444836050594,1444836051239,391,358,0,0,0,2,5,3,25,0002-00-0008-32.png,0001-00-0000-29.png
00000009,286,1,1444836052124,1444836052875,937,356,0,0,0,3,1,2,31,0003-00-0007-92.png,0004-00-0007-97.png
00000009,287,0,1444836053754,1444836053802,881,392,0,0,0,2,3,1,23,0002-00-0008-25.png,0003-00-0005-91.png
00000009,288,0,1444836056653,1444836057440,962,345,0,0,0,4,5,1,45,0005-00-0009-14.png,0001-00-0000-40.png
00000009,289,0,1444836060553,1444836061037,1070,279,0,0,0,1,2,1,12,0004-00-0003-24.png,0002-00-0007-21.png
00000009,290,1,1444836064171,1444836064696,964,321,0,0,0,4,1,3,41,0005-00-0007-67.png,0004-00-0007-78.png
00000009,291,0,1444836066037,1444836066584,450,251,0,0,0,5,4,1,54,0001-00-0008-07.png,0005-00-0003-58.png
00000009,292,0,1444836069713,1444836070228,1092,293,0,0,0,3,4,1,34,0003-00-0001-85.png,0005-00-0005-18.png
00000009,293,0,1444836073293,1444836073849,940,327,0,0,0,3,5,2,35,0003-00-0002-52.png,0001-00-0004-31.png
00000009,294,1,1444836076998,1444836077833,944,342,0,0,0,5,2,3,52,0001-00-0004-90.png,0002-00-0001-81.png
00000009,295,1,1444836078663,1444836079453,441,252,0,0,0,1,3,2,13,0004-00-0009-14.png,0003-00-0007-27.png
00000009,296,1,1444836080367,1444836081119,1086,287,0,0,0,5,1,4,51,0001-00-0004-83.png,0004-00-0007-87.png
00000009,297,0,1444836081993,1444836082085,886,413,0,0,0,1,4,3,14,0004-00-0008-77.png,0005-00-0005-50.png
00000009,298,0,1444836085060,1444836089085,449,303,0,0,0,4,2,2,42,0005-00-0003-91.png,0002-00-0001-24.png
00000009,299,1,1444836092223,1444836092297,876,263,0,0,0,5,3,2,53,0001-00-0008-00.png,0003-00-0005-85.png
00000009,300,1,1444836093237,1444836093982,387,391,0,0,0,1,5,4,15,0004-00-0004-50.png,0001-00-0007-19.png
00000009,301,1,1444836094880,1444836095661,947,333,0,0,0,5,3,2,53,0001-00-0007-00.png,0003-00-0008-28.png
00000009,302,1,1444836096635,1444836097474,949,344,0,0,0,5,1,4,51,0001-00-0007-68.png,0004-00-0007-75.png
00000009,303,0,1444836098361,1444836098409,911,362,0,0,0,3,4,1,34,0003-00-0000-12.png,0005-00-0001-19.png
00000009,304,1,1444836101406,1444836102107,342,383,0,0,0,1,5,4,15,0004-00-0002-09.png,0001-00-0009-85.png
00000009,305,0,1444836103523,1444836104077,467,298,0,0,0,5,4,1,54,0001-00-0001-42.png,0005-00-0001-66.png
00000009,306,1,1444836107185,1444836107664,973,348,0,0,0,4,1,3,41,0005-00-0009-82.png,0004-00-0008-83.png
00000009,307,1,1444836109018,1444836109675,442,274,0,0,0,1,3,2,13,0004-00-0001-53.png,0003-00-0001-29.png
00000009,308,1,1444836110512,1444836111136,370,344,0,0,0,1,4,3,14,0004-00-0000-20.png,0005-00-0000-79.png
00000009,309,1,1444836112118,1444836112842,344,382,0,0,0,2,4,2,24,0002-00-0003-18.png,0005-00-0007-82.png
00000009,310,1,1444836114016,1444836115175,1041,279,0,0,0,2,1,1,21,0002-00-0001-57.png,0004-00-0003-32.png
00000009,311,0,1444836116049,1444836116101,896,331,0,0,0,3,5,2,35,0003-00-0004-69.png,0001-00-0001-06.png
00000009,312,1,1444836118942,1444836119479,964,358,0,0,0,4,2,2,42,0005-00-0008-30.png,0002-00-0005-60.png
00000009,313,1,1444836120702,1444836121507,1067,270,0,0,0,5,2,3,52,0001-00-0000-98.png,0002-00-0008-36.png
00000009,314,0,1444836122458,1444836122518,864,447,0,0,0,1,2,1,12,0004-00-0003-38.png,0002-00-0002-25.png
00000009,315,1,1444836125551,1444836126032,969,332,0,0,0,3,1,2,31,0003-00-0001-54.png,0004-00-0009-70.png
00000009,316,1,1444836126886,1444836126962,899,464,0,0,0,4,3,1,43,0005-00-0007-16.png,0003-00-0000-58.png
00000009,317,0,1444836128155,1444836128239,869,446,0,0,0,4,5,1,45,0005-00-0009-05.png,0001-00-0003-83.png
00000009,318,1,1444836131352,1444836131647,1014,335,0,0,0,3,2,1,32,0003-00-0004-10.png,0002-00-0005-21.png
00000009,319,0,1444836132493,1444836132573,895,477,0,0,0,2,3,1,23,0002-00-0006-37.png,0003-00-0008-31.png
00000009,320,1,1444836135598,1444836136184,459,246,0,0,0,2,5,3,25,0002-00-0000-94.png,0001-00-0003-27.png
00000009,321,1,1444836137577,1444836138054,1067,262,0,0,0,5,1,4,51,0001-00-0007-11.png,0004-00-0007-75.png
00000009,322,0,1444836138914,1444836138942,862,436,0,0,0,2,4,2,24,0002-00-0004-12.png,0005-00-0004-28.png
00000009,323,1,1444836141855,1444836142344,1041,328,0,0,0,3,1,2,31,0003-00-0002-37.png,0004-00-0000-68.png
00000009,324,0,1444836143637,1444836144312,479,249,0,0,0,4,3,1,43,0005-00-0009-99.png,0003-00-0001-62.png
00000009,325,1,1444836147354,1444836147902,376,343,0,0,0,1,4,3,14,0004-00-0002-76.png,0005-00-0000-72.png
00000009,326,0,1444836149281,1444836150086,445,244,0,0,0,5,3,2,53,0001-00-0006-88.png,0003-00-0002-24.png
00000009,327,1,1444836153125,1444836153358,901,362,0,0,0,5,2,3,52,0001-00-0009-82.png,0002-00-0000-66.png
00000009,328,1,1444836154227,1444836154267,857,447,0,0,0,5,4,1,54,0001-00-0004-31.png,0005-00-0009-46.png
00000009,329,0,1444836155453,1444836155509,862,436,0,0,0,3,5,2,35,0003-00-0003-25.png,0001-00-0000-79.png
00000009,330,1,1444836158500,1444836159025,939,346,0,0,0,4,2,2,42,0005-00-0000-51.png,0002-00-0000-32.png
00000009,331,1,1444836160361,1444836161021,466,247,0,0,0,1,5,4,15,0004-00-0008-00.png,0001-00-0008-70.png
00000009,332,1,1444836161909,1444836162715,389,349,0,0,0,2,5,3,25,0002-00-0003-53.png,0001-00-0007-54.png
00000009,333,0,1444836163691,1444836164455,933,342,0,0,0,1,2,1,12,0004-00-0004-72.png,0002-00-0002-66.png
00000009,334,0,1444836167386,1444836167960,365,353,0,0,0,2,1,1,21,0002-00-0002-94.png,0004-00-0008-75.png
00000009,335,1,1444836171502,1444836171989,356,424,0,0,0,1,3,2,13,0004-00-0002-83.png,0003-00-0003-97.png
00000009,336,0,1444836172838,1444836173768,1057,282,0,0,0,4,5,1,45,0005-00-0006-16.png,0001-00-0007-92.png
00000009,337,0,1444836176916,1444836177885,933,341,0,0,0,3,4,1,34,0003-00-0002-09.png,0005-00-0001-42.png
00000009,338,1,1444836180980,1444836181583,965,321,0,0,0,4,1,3,41,0005-00-0005-76.png,0004-00-0000-94.png
00000009,339,0,1444836182399,1444836182439,867,409,0,0,0,2,3,1,23,0002-00-0004-41.png,0003-00-0000-25.png
00000009,340,1,1444836185581,1444836186156,920,339,0,0,0,3,2,1,32,0003-00-0001-55.png,0002-00-0009-76.png
00000009,341,1,1444836186990,1444836187050,866,486,0,0,0,5,2,3,52,0001-00-0007-79.png,0002-00-0007-09.png
00000009,342,1,1444836188175,1444836189561,461,218,0,0,0,3,4,1,34,0003-00-0000-62.png,0005-00-0000-26.png
00000009,343,1,1444836190429,1444836191293,919,343,0,0,0,5,3,2,53,0001-00-0003-34.png,0003-00-0009-38.png
00000009,344,0,1444836192297,1444836192357,883,467,0,0,0,2,5,3,25,0002-00-0006-92.png,0001-00-0000-72.png
00000009,345,1,1444836195450,1444836195952,1109,314,0,0,0,2,1,1,21,0002-00-0005-70.png,0004-00-0002-83.png
00000009,346,0,1444836196860,1444836196880,858,435,0,0,0,2,3,1,23,0002-00-0002-37.png,0003-00-0006-08.png
00000009,347,0,1444836199983,1444836200211,922,369,0,0,0,1,2,1,12,0004-00-0007-40.png,0002-00-0006-79.png
00000009,348,1,1444836203142,1444836203635,1067,279,0,0,0,5,1,4,51,0001-00-0001-21.png,0004-00-0001-26.png
00000009,349,0,1444836204962,1444836206063,454,256,0,0,0,5,4,1,54,0001-00-0008-63.png,0005-00-0001-76.png
00000009,350,0,1444836209126,1444836209747,964,340,0,0,0,4,5,1,45,0005-00-0006-92.png,0001-00-0002-60.png
00000009,351,1,1444836212911,1444836213187,904,372,0,0,0,3,2,1,32,0003-00-0005-88.png,0002-00-0001-40.png
00000009,352,1,1444836214082,1444836214130,864,442,0,0,0,4,3,1,43,0005-00-0001-87.png,0003-00-0001-25.png
00000009,353,0,1444836215342,1444836215402,868,472,0,0,0,1,4,3,14,0004-00-0005-95.png,0005-00-0002-16.png
00000009,354,0,1444836219110,1444836219421,1040,306,0,0,0,1,3,2,13,0004-00-0005-88.png,0003-00-0007-58.png
00000009,355,1,1444836222623,1444836223129,368,420,0,0,0,2,4,2,24,0002-00-0004-00.png,0005-00-0008-76.png
00000009,356,1,1444836224557,1444836225050,936,341,0,0,0,4,1,3,41,0005-00-0008-32.png,0004-00-0001-16.png
00000009,357,1,1444836226583,1444836226691,888,436,0,0,0,3,1,2,31,0003-00-0003-59.png,0004-00-0006-96.png
00000009,358,0,1444836227747,1444836227815,859,435,0,0,0,3,5,2,35,0003-00-0008-43.png,0001-00-0007-78.png
00000009,359,1,1444836230967,1444836231624,370,374,0,0,0,1,5,4,15,0004-00-0000-97.png,0001-00-0004-82.png
00000009,360,1,1444836232914,1444836233585,1045,332,0,0,0,4,2,2,42,0005-00-0002-67.png,0002-00-0007-74.png
00000009,361,1,1444836234495,1444836234539,866,412,0,0,0,5,4,1,54,0001-00-0002-20.png,0005-00-0007-61.png
00000009,362,1,1444836235695,1444836236507,392,348,0,0,0,1,5,4,15,0004-00-0009-19.png,0001-00-0009-17.png
00000009,363,1,1444836237441,1444836238340,944,377,0,0,0,5,2,3,52,0001-00-0000-52.png,0002-00-0007-70.png
00000009,364,1,1444836239253,1444836239269,895,374,0,0,0,3,1,2,31,0003-00-0001-78.png,0004-00-0005-44.png
00000009,365,0,1444836240813,1444836240881,873,471,0,0,0,1,3,2,13,0004-00-0003-53.png,0003-00-0000-01.png
00000009,366,1,1444836243993,1444836244454,934,320,0,0,0,4,2,2,42,0005-00-0007-71.png,0002-00-0003-90.png
00000009,367,0,1444836245753,1444836246235,960,543,0,0,0,2,5,3,25,0002-00-0007-88.png,0001-00-0000-45.png
00000009,368,0,1444836249097,1444836249625,382,380,0,0,0,4,3,1,43,0005-00-0005-95.png,0003-00-0001-21.png
00000009,369,1,1444836252779,1444836252922,862,436,0,0,0,3,2,1,32,0003-00-0006-10.png,0002-00-0003-28.png
00000009,370,0,1444836253872,1444836253892,859,441,0,0,0,3,5,2,35,0003-00-0002-84.png,0001-00-0006-65.png
00000009,371,1,1444836256731,1444836257257,1092,314,0,0,0,5,1,4,51,0001-00-0001-09.png,0004-00-0007-75.png
00000009,372,0,1444836258613,1444836259306,1078,279,0,0,0,3,4,1,34,0003-00-0004-67.png,0005-00-0005-69.png
00000009,373,0,1444836262309,1444836262825,936,335,0,0,0,4,5,1,45,0005-00-0000-86.png,0001-00-0000-04.png
00000009,374,1,1444836266157,1444836266616,970,330,0,0,0,2,1,1,21,0002-00-0002-26.png,0004-00-0006-41.png
00000009,375,0,1444836267932,1444836268022,902,410,0,0,0,2,4,2,24,0002-00-0004-44.png,0005-00-0006-57.png
00000009,376,0,1444836271130,1444836272053,448,276,0,0,0,5,3,2,53,0001-00-0006-90.png,0003-00-0009-50.png
00000009,377,1,1444836275189,1444836275752,471,280,0,0,0,1,4,3,14,0004-00-0008-69.png,0005-00-0006-74.png
00000009,378,1,1444836277156,1444836277852,448,244,0,0,0,1,2,1,12,0004-00-0008-22.png,0002-00-0008-50.png
00000009,379,1,1444836279250,1444836279298,862,387,0,0,0,4,1,3,41,0005-00-0005-27.png,0004-00-0005-37.png
00000009,380,0,1444836280445,1444836280493,861,409,0,0,0,2,3,1,23,0002-00-0005-59.png,0003-00-0004-10.png
00000009,381,0,1444836283626,1444836284164,962,306,0,0,0,3,5,2,35,0003-00-0009-56.png,0001-00-0004-38.png
00000009,382,0,1444836287051,1444836287564,369,396,0,0,0,5,3,2,53,0001-00-0001-04.png,0003-00-0006-90.png
00000009,383,1,1444836290910,1444836291407,432,300,0,0,0,1,3,2,13,0004-00-0000-92.png,0003-00-0008-07.png
00000009,384,0,1444836292257,1444836292905,484,283,0,0,0,3,2,1,32,0003-00-0004-51.png,0002-00-0001-31.png
00000009,385,1,1444836296156,1444836296680,1092,279,0,0,0,3,1,2,31,0003-00-0003-53.png,0004-00-0006-56.png
00000009,386,1,1444836298006,1444836298590,477,230,0,0,0,1,5,4,15,0004-00-0009-21.png,0001-00-0003-27.png
00000009,387,1,1444836299421,1444836300289,379,377,0,0,0,2,5,3,25,0002-00-0007-81.png,0001-00-0004-92.png
00000009,388,1,1444836301204,1444836302259,943,411,0,0,0,4,2,2,42,0005-00-0007-87.png,0002-00-0000-24.png
00000009,389,1,1444836303150,1444836303202,862,436,0,0,0,5,4,1,54,0001-00-0009-30.png,0005-00-0007-80.png
00000009,390,0,1444836304284,1444836304320,862,396,0,0,0,2,3,1,23,0002-00-0007-38.png,0003-00-0001-88.png
00000009,391,0,1444836307366,1444836307873,478,268,0,0,0,4,3,1,43,0005-00-0009-29.png,0003-00-0007-19.png
00000009,392,1,1444836311024,1444836311517,987,339,0,0,0,5,1,4,51,0001-00-0006-91.png,0004-00-0006-00.png
00000009,393,1,1444836312801,1444836313440,949,349,0,0,0,5,2,3,52,0001-00-0000-81.png,0002-00-0002-21.png
00000009,394,0,1444836314275,1444836314331,888,423,0,0,0,1,2,1,12,0004-00-0002-11.png,0002-00-0007-95.png
00000009,395,0,1444836317331,1444836317552,939,410,0,0,0,2,4,2,24,0002-00-0002-55.png,0005-00-0004-39.png
00000009,396,1,1444836320702,1444836321168,371,389,0,0,0,1,4,3,14,0004-00-0008-30.png,0005-00-0005-64.png
00000009,397,0,1444836322460,1444836323056,968,325,0,0,0,4,5,1,45,0005-00-0000-24.png,0001-00-0003-80.png
00000009,398,1,1444836326166,1444836326773,964,423,0,0,0,2,1,1,21,0002-00-0003-64.png,0004-00-0007-25.png
00000009,399,0,1444836327994,1444836328742,1041,293,0,0,0,3,4,1,34,0003-00-0008-29.png,0005-00-0002-85.png
00000009,400,1,1444836331849,1444836332326,964,312,0,0,0,4,1,3,41,0005-00-0008-61.png,0004-00-0001-85.png
00000009,401,0,1444836333577,1444836334123,484,242,0,0,0,2,1,1,21,0002-00-0005-11.png,0004-00-0002-18.png
00000009,402,1,1444836337215,1444836337963,377,373,0,0,0,3,5,2,35,0003-00-0006-89.png,0001-00-0004-14.png
00000009,403,1,1444836338834,1444836339535,935,331,0,0,0,5,2,3,52,0001-00-0006-84.png,0002-00-0000-32.png
00000009,404,0,1444836340370,1444836340435,873,405,0,0,0,2,5,3,25,0002-00-0001-25.png,0001-00-0007-38.png
00000009,405,0,1444836343486,1444836344073,964,376,0,0,0,3,4,1,34,0003-00-0009-90.png,0005-00-0005-98.png
00000009,406,1,1444836347224,1444836347728,371,419,0,0,0,1,5,4,15,0004-00-0005-26.png,0001-00-0006-25.png
00000009,407,1,1444836349021,1444836349686,1067,306,0,0,0,3,2,1,32,0003-00-0008-07.png,0002-00-0007-66.png
00000009,408,0,1444836350663,1444836350707,866,428,0,0,0,2,4,2,24,0002-00-0004-08.png,0005-00-0000-51.png
00000009,409,0,1444836353603,1444836354578,372,375,0,0,0,4,3,1,43,0005-00-0008-22.png,0003-00-0009-56.png
00000009,410,0,1444836357697,1444836358738,443,291,0,0,0,4,2,2,42,0005-00-0005-99.png,0002-00-0009-80.png
00000009,411,1,1444836361763,1444836362771,328,358,0,0,0,1,2,1,12,0004-00-0009-09.png,0002-00-0007-49.png
00000009,412,1,1444836364044,1444836364651,387,384,0,0,0,1,4,3,14,0004-00-0006-52.png,0005-00-0005-23.png
00000009,413,1,1444836365567,1444836366413,400,393,0,0,0,2,3,1,23,0002-00-0006-16.png,0003-00-0009-18.png
00000009,414,0,1444836367505,1444836368344,476,248,0,0,0,5,3,2,53,0001-00-0003-43.png,0003-00-0008-21.png
00000009,415,0,1444836371384,1444836372198,969,346,0,0,0,4,5,1,45,0005-00-0006-22.png,0001-00-0002-26.png
00000009,416,1,1444836375386,1444836376042,964,401,0,0,0,4,1,3,41,0005-00-0009-26.png,0004-00-0004-26.png
00000009,417,1,1444836377385,1444836377927,948,325,0,0,0,3,1,2,31,0003-00-0007-84.png,0004-00-0008-22.png
00000009,418,1,1444836379309,1444836379674,913,474,0,0,0,5,4,1,54,0001-00-0005-36.png,0005-00-0009-13.png
00000009,419,0,1444836380771,1444836380799,863,420,0,0,0,1,3,2,13,0004-00-0004-58.png,0003-00-0004-95.png
00000009,420,1,1444836383929,1444836384439,949,324,0,0,0,5,1,4,51,0001-00-0002-81.png,0004-00-0001-77.png
00000009,421,0,1444836385671,1444836386484,1041,270,0,0,0,3,4,1,34,0003-00-0007-32.png,0005-00-0007-71.png
00000009,422,1,1444836389324,1444836389872,380,376,0,0,0,1,4,3,14,0004-00-0003-43.png,0005-00-0002-96.png
00000009,423,1,1444836390704,1444836391405,494,277,0,0,0,1,5,4,15,0004-00-0006-32.png,0001-00-0002-21.png
00000009,424,1,1444836392330,1444836393286,939,372,0,0,0,5,1,4,51,0001-00-0001-25.png,0004-00-0004-51.png
00000009,425,0,1444836394197,1444836394274,879,384,0,0,0,2,4,2,24,0002-00-0009-15.png,0005-00-0006-51.png
00000009,426,0,1444836397331,1444836397881,356,401,0,0,0,5,3,2,53,0001-00-0003-95.png,0003-00-0000-95.png
00000009,427,1,1444836401014,1444836401599,465,299,0,0,0,2,5,3,25,0002-00-0004-16.png,0001-00-0004-27.png
00000009,428,1,1444836402863,1444836403657,955,346,0,0,0,4,3,1,43,0005-00-0005-03.png,0003-00-0004-60.png
00000009,429,0,1444836404569,1444836404610,865,410,0,0,0,3,5,2,35,0003-00-0008-98.png,0001-00-0004-87.png
00000009,430,0,1444836407635,1444836408923,1112,349,0,0,0,4,5,1,45,0005-00-0006-72.png,0001-00-0006-23.png
00000009,431,0,1444836411998,1444836412691,462,250,0,0,0,5,2,3,52,0001-00-0000-85.png,0002-00-0007-55.png
00000009,432,1,1444836415843,1444836416354,1103,279,0,0,0,3,1,2,31,0003-00-0003-01.png,0004-00-0001-75.png
00000009,433,1,1444836417609,1444836418275,959,341,0,0,0,4,1,3,41,0005-00-0001-30.png,0004-00-0000-23.png
00000009,434,1,1444836419699,1444836420403,460,243,0,0,0,1,2,1,12,0004-00-0003-05.png,0002-00-0008-69.png
00000009,435,1,1444836421419,1444836422132,476,251,0,0,0,2,3,1,23,0002-00-0009-43.png,0003-00-0009-38.png
00000009,436,1,1444836423026,1444836423968,959,390,0,0,0,2,1,1,21,0002-00-0003-94.png,0004-00-0006-08.png
00000009,437,1,1444836424810,1444836424894,908,416,0,0,0,3,2,1,32,0003-00-0004-80.png,0002-00-0005-62.png
00000009,438,0,1444836426406,1444836426521,924,462,0,0,0,1,3,2,13,0004-00-0006-00.png,0003-00-0006-81.png
00000009,439,0,1444836429704,1444836430267,400,393,0,0,0,5,4,1,54,0001-00-0001-02.png,0005-00-0009-65.png
00000009,440,1,1444836433412,1444836433964,970,402,0,0,0,4,2,2,42,0005-00-0006-94.png,0002-00-0004-74.png
00000009,441,1,1444836434798,1444836435456,950,349,0,0,0,5,2,3,52,0001-00-0006-07.png,0002-00-0004-91.png
00000009,442,0,1444836436352,1444836436424,916,441,0,0,0,3,5,2,35,0003-00-0003-58.png,0001-00-0009-34.png
00000009,443,1,1444836439628,1444836439794,888,398,0,0,0,4,1,3,41,0005-00-0007-70.png,0004-00-0008-14.png
00000009,444,0,1444836440744,1444836440780,869,444,0,0,0,2,4,2,24,0002-00-0004-64.png,0005-00-0004-81.png
00000009,445,1,1444836443745,1444836443969,913,424,0,0,0,3,2,1,32,0003-00-0000-94.png,0002-00-0006-35.png
00000009,446,0,1444836444906,1444836444946,881,455,0,0,0,2,3,1,23,0002-00-0009-46.png,0003-00-0002-26.png
00000009,447,1,1444836448066,1444836448552,1076,278,0,0,0,5,1,4,51,0001-00-0004-71.png,0004-00-0007-74.png
00000009,448,1,1444836450262,1444836451455,341,377,0,0,0,1,5,4,15,0004-00-0005-49.png,0001-00-0005-47.png
00000009,449,1,1444836452279,1444836453413,937,352,0,0,0,5,4,1,54,0001-00-0006-61.png,0005-00-0006-20.png
00000009,450,0,1444836454329,1444836454377,884,426,0,0,0,1,2,1,12,0004-00-0002-61.png,0002-00-0006-33.png
00000009,451,1,1444836457262,1444836457746,1062,308,0,0,0,2,1,1,21,0002-00-0005-61.png,0004-00-0007-25.png
00000009,452,1,1444836459056,1444836459653,937,371,0,0,0,3,1,2,31,0003-00-0006-11.png,0004-00-0006-69.png
00000009,453,0,1444836460527,1444836460587,863,433,0,0,0,4,5,1,45,0005-00-0002-47.png,0001-00-0004-48.png
00000009,454,1,1444836463430,1444836463912,373,374,0,0,0,2,5,3,25,0002-00-0001-36.png,0001-00-0005-62.png
00000009,455,0,1444836465190,1444836465859,926,328,0,0,0,3,4,1,34,0003-00-0002-08.png,0005-00-0006-96.png
00000009,456,1,1444836468976,1444836469481,1068,299,0,0,0,4,2,2,42,0005-00-0004-17.png,0002-00-0009-62.png
00000009,457,1,1444836470764,1444836471453,467,253,0,0,0,1,3,2,13,0004-00-0009-56.png,0003-00-0001-93.png
00000009,458,1,1444836472394,1444836473864,448,240,0,0,0,1,4,3,14,0004-00-0003-93.png,0005-00-0002-46.png
00000009,459,0,1444836474752,1444836475469,384,356,0,0,0,4,3,1,43,0005-00-0003-52.png,0003-00-0007-86.png
00000009,460,0,1444836478291,1444836479068,450,276,0,0,0,5,3,2,53,0001-00-0001-84.png,0003-00-0002-94.png
00000009,461,1,1444836482111,1444836482769,469,279,0,0,0,1,5,4,15,0004-00-0006-70.png,0001-00-0000-66.png
00000009,462,1,1444836483633,1444836484438,941,373,0,0,0,5,2,3,52,0001-00-0009-11.png,0002-00-0000-45.png
00000009,463,1,1444836485343,1444836485426,915,445,0,0,0,4,2,2,42,0005-00-0004-92.png,0002-00-0000-54.png
00000009,464,1,1444836486605,1444836486673,880,463,0,0,0,5,3,2,53,0001-00-0004-99.png,0003-00-0003-98.png
00000009,465,0,1444836488074,1444836488134,899,436,0,0,0,1,2,1,12,0004-00-0001-65.png,0002-00-0007-24.png
00000009,466,1,1444836491074,1444836491598,463,270,0,0,0,1,4,3,14,0004-00-0001-45.png,0005-00-0000-63.png
00000009,467,1,1444836492855,1444836493611,1067,289,0,0,0,4,3,1,43,0005-00-0001-88.png,0003-00-0004-24.png
00000009,468,0,1444836494505,1444836494541,887,433,0,0,0,2,4,2,24,0002-00-0008-93.png,0005-00-0001-86.png
00000009,469,0,1444836497705,1444836498195,1092,262,0,0,0,4,5,1,45,0005-00-0006-10.png,0001-00-0002-02.png
00000009,470,1,1444836501112,1444836501658,372,372,0,0,0,2,5,3,25,0002-00-0005-41.png,0001-00-0000-26.png
00000009,471,0,1444836502999,1444836503648,473,264,0,0,0,5,1,4,51,0001-00-0007-08.png,0004-00-0008-81.png
00000009,472,1,1444836506760,1444836507398,453,270,0,0,0,1,3,2,13,0004-00-0002-75.png,0003-00-0001-66.png
00000009,473,0,1444836508699,1444836509312,466,242,0,0,0,2,1,1,21,0002-00-0001-22.png,0004-00-0007-78.png
00000009,474,1,1444836512549,1444836513062,1047,296,0,0,0,3,1,2,31,0003-00-0002-55.png,0004-00-0007-59.png
00000009,475,0,1444836514371,1444836514973,1051,263,0,0,0,3,5,2,35,0003-00-0000-05.png,0001-00-0002-25.png
00000009,476,0,1444836517876,1444836518583,1080,292,0,0,0,3,4,1,34,0003-00-0001-23.png,0005-00-0004-25.png
00000009,477,1,1444836521714,1444836522272,1066,288,0,0,0,3,2,1,32,0003-00-0001-67.png,0002-00-0003-20.png
00000009,478,1,1444836523108,1444836523192,858,465,0,0,0,4,1,3,41,0005-00-0008-13.png,0004-00-0002-60.png
00000009,479,1,1444836524271,1444836525438,455,224,0,0,0,2,3,1,23,0002-00-0001-51.png,0003-00-0007-93.png
00000009,480,1,1444836526332,1444836527657,918,330,0,0,0,5,4,1,54,0001-00-0006-76.png,0005-00-0008-89.png
00000009,481,0,1444836528613,1444836528641,896,474,0,0,0,3,4,1,34,0003-00-0008-99.png,0005-00-0004-02.png
00000009,482,0,1444836531818,1444836531942,923,283,0,0,0,2,5,3,25,0002-00-0008-37.png,0001-00-0003-99.png
00000009,483,0,1444836534877,1444836535346,367,359,0,0,0,5,3,2,53,0001-00-0006-43.png,0003-00-0001-54.png
00000009,484,1,1444836538410,1444836538923,960,286,0,0,0,5,2,3,52,0001-00-0008-23.png,0002-00-0005-73.png
00000009,485,1,1444836540248,1444836541139,372,349,0,0,0,4,5,1,45,0005-00-0005-17.png,0001-00-0005-93.png
00000009,486,1,1444836541962,1444836542762,361,374,0,0,0,1,5,4,15,0004-00-0009-09.png,0001-00-0006-12.png
00000009,487,1,1444836543943,1444836544713,956,353,0,0,0,4,1,3,41,0005-00-0001-69.png,0004-00-0006-76.png
00000009,488,1,1444836545703,1444836545731,875,415,0,0,0,3,2,1,32,0003-00-0001-31.png,0002-00-0005-12.png
00000009,489,1,1444836546856,1444836546916,862,423,0,0,0,5,4,1,54,0001-00-0005-52.png,0005-00-0009-02.png
00000009,490,0,1444836548238,1444836548318,882,446,0,0,0,2,4,2,24,0002-00-0005-56.png,0005-00-0008-28.png
00000009,491,1,1444836551388,1444836551923,485,249,0,0,0,1,3,2,13,0004-00-0006-75.png,0003-00-0003-54.png
00000009,492,1,1444836553099,1444836553767,1029,306,0,0,0,5,1,4,51,0001-00-0007-02.png,0004-00-0006-67.png
00000009,493,1,1444836555150,1444836555514,941,522,0,0,0,2,1,1,21,0002-00-0002-04.png,0004-00-0009-82.png
00000009,494,1,1444836556522,1444836557724,948,384,0,0,0,4,3,1,43,0005-00-0009-61.png,0003-00-0006-13.png
00000009,495,0,1444836558641,1444836558677,912,446,0,0,0,1,4,3,14,0004-00-0004-43.png,0005-00-0003-34.png
00000009,496,1,1444836561791,1444836562371,500,296,0,0,0,2,3,1,23,0002-00-0005-29.png,0003-00-0002-32.png
00000009,497,1,1444836563690,1444836564330,947,330,0,0,0,3,1,2,31,0003-00-0004-12.png,0004-00-0005-15.png
00000009,498,0,1444836565697,1444836565859,862,436,0,0,0,3,5,2,35,0003-00-0003-12.png,0001-00-0001-19.png
00000009,499,0,1444836569005,1444836569523,964,346,0,0,0,1,2,1,12,0004-00-0003-32.png,0002-00-0007-87.png
00000009,500,1,1444836572622,1444836573186,1095,303,0,0,0,4,2,2,42,0005-00-0001-60.png,0002-00-0003-29.png
00000009,501,1,1444836574461,1444836575354,453,242,0,0,0,1,5,4,15,0004-00-0003-97.png,0001-00-0001-70.png
00000009,502,1,1444836576188,1444836577472,447,243,0,0,0,2,3,1,23,0002-00-0009-29.png,0003-00-0004-52.png
00000009,503,1,1444836578364,1444836579102,473,266,0,0,0,1,4,3,14,0004-00-0004-88.png,0005-00-0007-24.png
00000009,504,0,1444836580244,1444836580370,859,460,0,0,0,3,4,1,34,0003-00-0006-40.png,0005-00-0000-19.png
00000009,505,1,1444836583250,1444836583875,1073,301,0,0,0,3,2,1,32,0003-00-0009-14.png,0002-00-0006-61.png
00000009,506,1,1444836585184,1444836585528,943,467,0,0,0,2,1,1,21,0002-00-0008-91.png,0004-00-0004-24.png
00000009,507,0,1444836586634,1444836586699,862,488,0,0,0,4,5,1,45,0005-00-0006-96.png,0001-00-0007-53.png
00000009,508,1,1444836589745,1444836590243,955,305,0,0,0,5,1,4,51,0001-00-0005-45.png,0004-00-0005-09.png
00000009,509,1,1444836591530,1444836592195,1018,290,0,0,0,3,1,2,31,0003-00-0006-83.png,0004-00-0005-19.png
00000009,510,0,1444836593092,1444836593140,925,419,0,0,0,1,3,2,13,0004-00-0008-84.png,0003-00-0006-79.png
00000009,511,1,1444836596066,1444836596524,964,301,0,0,0,4,1,3,41,0005-00-0001-36.png,0004-00-0002-76.png
00000009,512,1,1444836597845,1444836598534,415,360,0,0,0,1,2,1,12,0004-00-0001-30.png,0002-00-0000-00.png
00000009,513,1,1444836599512,1444836600280,453,246,0,0,0,2,5,3,25,0002-00-0007-38.png,0001-00-0002-23.png
00000009,514,0,1444836601307,1444836602261,478,237,0,0,0,5,4,1,54,0001-00-0002-37.png,0005-00-0006-99.png
00000009,515,0,1444836605225,1444836605791,465,272,0,0,0,5,3,2,53,0001-00-0002-78.png,0003-00-0003-09.png
00000009,516,1,1444836608922,1444836609742,1092,279,0,0,0,4,3,1,43,0005-00-0005-62.png,0003-00-0005-85.png
00000009,517,1,1444836610601,1444836610677,900,446,0,0,0,5,2,3,52,0001-00-0004-45.png,0002-00-0006-29.png
00000009,518,1,1444836611845,1444836611873,869,427,0,0,0,4,2,2,42,0005-00-0003-57.png,0002-00-0005-84.png
00000009,519,1,1444836613026,1444836613812,469,231,0,0,0,2,4,2,24,0002-00-0000-31.png,0005-00-0003-32.png
00000009,520,0,1444836614942,1444836615853,1067,314,0,0,0,3,5,2,35,0003-00-0007-67.png,0001-00-0006-68.png
00000009,521,0,1444836619021,1444836619777,495,287,0,0,0,4,3,1,43,0005-00-0009-98.png,0003-00-0001-59.png
00000009,522,1,1444836622935,1444836623376,960,322,0,0,0,3,1,2,31,0003-00-0005-96.png,0004-00-0005-46.png
00000009,523,1,1444836624724,1444836625296,913,333,0,0,0,5,2,3,52,0001-00-0008-03.png,0002-00-0002-94.png
00000009,524,0,1444836626193,1444836626911,921,332,0,0,0,4,5,1,45,0005-00-0003-63.png,0001-00-0004-84.png
00000009,525,0,1444836629832,1444836631053,1088,279,0,0,0,3,5,2,35,0003-00-0009-64.png,0001-00-0009-55.png
00000009,526,1,1444836633913,1444836634480,1067,294,0,0,0,3,2,1,32,0003-00-0004-00.png,0002-00-0001-18.png
00000009,527,0,1444836635337,1444836635365,888,410,0,0,0,1,5,4,15,0004-00-0008-21.png,0001-00-0004-16.png
00000009,528,1,1444836638319,1444836638879,357,342,0,0,0,1,4,3,14,0004-00-0005-56.png,0005-00-0004-59.png
00000009,529,0,1444836640187,1444836640812,462,247,0,0,0,2,1,1,21,0002-00-0000-49.png,0004-00-0009-98.png
00000009,530,1,1444836643981,1444836644516,450,281,0,0,0,1,3,2,13,0004-00-0000-31.png,0003-00-0000-61.png
00000009,531,1,1444836645373,1444836646335,359,345,0,0,0,2,4,2,24,0002-00-0004-20.png,0005-00-0000-42.png
00000009,532,0,1444836647170,1444836647954,924,353,0,0,0,3,4,1,34,0003-00-0002-62.png,0005-00-0008-36.png
00000009,533,0,1444836651488,1444836652121,347,398,0,0,0,5,3,2,53,0001-00-0008-71.png,0003-00-0003-41.png
00000009,534,1,1444836655135,1444836655701,369,385,0,0,0,1,2,1,12,0004-00-0005-58.png,0002-00-0005-47.png
00000009,535,1,1444836657033,1444836657667,911,330,0,0,0,4,2,2,42,0005-00-0001-41.png,0002-00-0003-24.png
00000009,536,1,1444836658577,1444836659425,937,331,0,0,0,5,1,4,51,0001-00-0001-18.png,0004-00-0003-35.png
00000009,537,0,1444836660382,1444836660470,934,454,0,0,0,2,3,1,23,0002-00-0008-71.png,0003-00-0009-76.png
00000009,538,0,1444836663601,1444836664506,444,269,0,0,0,5,4,1,54,0001-00-0007-08.png,0005-00-0006-35.png
00000009,539,1,1444836667346,1444836668263,1077,306,0,0,0,4,1,3,41,0005-00-0005-61.png,0004-00-0004-93.png
00000009,540,1,1444836669600,1444836670248,409,325,0,0,0,2,5,3,25,0002-00-0003-74.png,0001-00-0009-96.png
00000009,541,1,1444836671100,1444836671922,395,371,0,0,0,2,4,2,24,0002-00-0005-02.png,0005-00-0000-45.png
00000009,542,0,1444836672942,1444836673744,403,350,0,0,0,5,3,2,53,0001-00-0001-54.png,0003-00-0000-79.png
00000009,543,1,1444836676706,1444836677200,1092,295,0,0,0,5,1,4,51,0001-00-0000-31.png,0004-00-0006-18.png
00000009,544,1,1444836678495,1444836679130,480,260,0,0,0,2,3,1,23,0002-00-0006-19.png,0003-00-0006-07.png
00000009,545,1,1444836680076,1444836680971,960,336,0,0,0,5,2,3,52,0001-00-0002-66.png,0002-00-0000-34.png
00000009,546,0,1444836681884,1444836681907,913,436,0,0,0,2,5,3,25,0002-00-0002-90.png,0001-00-0003-53.png
00000009,547,1,1444836684914,1444836685746,1092,306,0,0,0,3,1,2,31,0003-00-0000-19.png,0004-00-0007-81.png
00000009,548,0,1444836687003,1444836687052,865,410,0,0,0,1,3,2,13,0004-00-0006-17.png,0003-00-0006-73.png
00000009,549,0,1444836690214,1444836690748,1118,308,0,0,0,3,5,2,35,0003-00-0008-37.png,0001-00-0006-03.png
00000009,550,1,1444836693595,1444836694175,366,365,0,0,0,1,4,3,14,0004-00-0003-37.png,0005-00-0003-91.png
00000009,551,0,1444836695010,1444836695050,863,412,0,0,0,1,5,4,15,0004-00-0003-71.png,0001-00-0003-32.png
00000009,552,1,1444836698144,1444836698701,505,275,0,0,0,3,4,1,34,0003-00-0009-65.png,0005-00-0001-88.png
00000009,553,1,1444836699630,1444836700635,440,253,0,0,0,4,5,1,45,0005-00-0000-77.png,0001-00-0008-92.png
00000009,554,1,1444836701547,1444836702532,1067,293,0,0,0,5,4,1,54,0001-00-0007-86.png,0005-00-0008-25.png
00000009,555,1,1444836703520,1444836703576,888,452,0,0,0,4,3,1,43,0005-00-0004-13.png,0003-00-0005-23.png
00000009,556,1,1444836705190,1444836705226,896,410,0,0,0,4,1,3,41,0005-00-0008-53.png,0004-00-0003-38.png
00000009,557,1,1444836706393,1444836706429,872,410,0,0,0,2,1,1,21,0002-00-0007-46.png,0004-00-0006-79.png
00000009,558,0,1444836707640,1444836707657,862,451,0,0,0,1,2,1,12,0004-00-0004-03.png,0002-00-0004-49.png
00000009,559,1,1444836710684,1444836711312,941,343,0,0,0,3,2,1,32,0003-00-0009-54.png,0002-00-0008-49.png
00000009,560,0,1444836712734,1444836713642,408,372,0,0,0,4,2,2,42,0005-00-0009-06.png,0002-00-0009-84.png
00000009,561,1,1444836716646,1444836717272,416,418,0,0,0,1,2,1,12,0004-00-0005-41.png,0002-00-0005-06.png
00000009,562,1,1444836718624,1444836719301,484,235,0,0,0,2,3,1,23,0002-00-0006-97.png,0003-00-0000-48.png
00000009,563,0,1444836720129,1444836720852,914,358,0,0,0,3,5,2,35,0003-00-0000-04.png,0001-00-0008-09.png
00000009,564,0,1444836723730,1444836724703,438,253,0,0,0,5,4,1,54,0001-00-0002-83.png,0005-00-0006-35.png
00000009,565,1,1444836727827,1444836728513,453,268,0,0,0,2,5,3,25,0002-00-0009-18.png,0001-00-0004-39.png
00000009,566,0,1444836729815,1444836730535,938,341,0,0,0,3,4,1,34,0003-00-0000-28.png,0005-00-0004-06.png
00000009,567,1,1444836733612,1444836734128,1075,279,0,0,0,5,1,4,51,0001-00-0005-09.png,0004-00-0003-87.png
00000009,568,1,1444836735437,1444836736132,468,270,0,0,0,1,3,2,13,0004-00-0001-42.png,0003-00-0009-12.png
00000009,569,1,1444836737060,1444836738111,1079,291,0,0,0,3,2,1,32,0003-00-0007-50.png,0002-00-0005-04.png
00000009,570,1,1444836739017,1444836739077,888,419,0,0,0,3,1,2,31,0003-00-0007-11.png,0004-00-0005-85.png
00000009,571,1,1444836740397,1444836740477,894,426,0,0,0,4,2,2,42,0005-00-0002-58.png,0002-00-0001-07.png
00000009,572,1,1444836741651,1444836741687,886,423,0,0,0,5,3,2,53,0001-00-0002-85.png,0003-00-0000-44.png
00000009,573,1,1444836742823,1444836742859,874,441,0,0,0,4,1,3,41,0005-00-0007-16.png,0004-00-0002-83.png
00000009,574,0,1444836744016,1444836744072,882,447,0,0,0,1,5,4,15,0004-00-0000-08.png,0001-00-0001-33.png
00000009,575,0,1444836747206,1444836748117,966,323,0,0,0,4,5,1,45,0005-00-0004-48.png,0001-00-0009-81.png
00000009,576,1,1444836751240,1444836751821,469,290,0,0,0,1,4,3,14,0004-00-0004-61.png,0005-00-0007-69.png
00000009,577,1,1444836753099,1444836753699,392,386,0,0,0,2,4,2,24,0002-00-0003-29.png,0005-00-0003-79.png
00000009,578,1,1444836754535,1444836755419,934,341,0,0,0,5,2,3,52,0001-00-0007-58.png,0002-00-0005-78.png
00000009,579,1,1444836756325,1444836756337,861,437,0,0,0,4,3,1,43,0005-00-0003-73.png,0003-00-0004-93.png
00000009,580,1,1444836757478,1444836757530,874,417,0,0,0,2,1,1,21,0002-00-0008-71.png,0004-00-0002-04.png
00000009,581,0,1444836758730,1444836758770,868,453,0,0,0,2,3,1,23,0002-00-0005-22.png,0003-00-0000-39.png
00000009,582,0,1444836761724,1444836762274,474,461,0,0,0,2,1,1,21,0002-00-0007-31.png,0004-00-0003-45.png
00000009,583,0,1444836765232,1444836765776,1097,299,0,0,0,1,2,1,12,0004-00-0000-61.png,0002-00-0000-14.png
00000009,584,1,1444836768681,1444836769395,1061,279,0,0,0,5,4,1,54,0001-00-0002-04.png,0005-00-0004-68.png
00000009,585,1,1444836770320,1444836771004,1067,292,0,0,0,4,1,3,41,0005-00-0008-61.png,0004-00-0001-31.png
00000009,586,1,1444836771847,1444836771867,938,408,0,0,0,5,1,4,51,0001-00-0007-23.png,0004-00-0006-29.png
00000009,587,1,1444836772933,1444836774250,935,383,0,0,0,4,3,1,43,0005-00-0001-00.png,0003-00-0000-39.png
00000009,588,0,1444836775196,1444836775219,858,423,0,0,0,1,3,2,13,0004-00-0000-80.png,0003-00-0002-22.png
00000009,589,1,1444836778148,1444836778596,961,356,0,0,0,3,1,2,31,0003-00-0007-59.png,0004-00-0006-56.png
00000009,590,0,1444836779879,1444836780176,937,492,0,0,0,3,5,2,35,0003-00-0008-41.png,0001-00-0008-34.png
00000009,591,1,1444836783316,1444836783901,479,270,0,0,0,1,4,3,14,0004-00-0003-78.png,0005-00-0008-10.png
00000009,592,0,1444836785194,1444836785920,481,265,0,0,0,5,3,2,53,0001-00-0000-05.png,0003-00-0008-01.png
00000009,593,1,1444836788830,1444836789357,1079,279,0,0,0,4,2,2,42,0005-00-0007-77.png,0002-00-0004-71.png
00000009,594,1,1444836790721,1444836791296,492,232,0,0,0,2,4,2,24,0002-00-0006-25.png,0005-00-0003-28.png
00000009,595,1,1444836792221,1444836793083,407,329,0,0,0,2,5,3,25,0002-00-0002-73.png,0001-00-0008-18.png
00000009,596,1,1444836794041,1444836794077,862,384,0,0,0,5,2,3,52,0001-00-0008-35.png,0002-00-0002-34.png
00000009,597,0,1444836795225,1444836795293,877,444,0,0,0,4,5,1,45,0005-00-0008-14.png,0001-00-0009-17.png
00000009,598,1,1444836798434,1444836798694,966,328,0,0,0,3,2,1,32,0003-00-0001-80.png,0002-00-0002-99.png
00000009,599,0,1444836800094,1444836800463,990,561,0,0,0,3,4,1,34,0003-00-0001-29.png,0005-00-0001-75.png
00000009,600,1,1444836803642,1444836804303,504,266,0,0,0,1,5,4,15,0004-00-0007-45.png,0001-00-0005-66.png
00000009,601,1,1444836805579,1444836806496,1092,296,0,0,0,5,2,3,52,0001-00-0008-87.png,0002-00-0008-08.png
00000009,602,1,1444836807914,1444836808037,878,436,0,0,0,4,2,2,42,0005-00-0004-79.png,0002-00-0007-51.png
00000009,603,1,1444836809116,1444836809164,862,423,0,0,0,5,3,2,53,0001-00-0005-36.png,0003-00-0001-18.png
00000009,604,0,1444836810499,1444836810543,891,446,0,0,0,3,4,1,34,0003-00-0005-42.png,0005-00-0008-87.png
00000009,605,1,1444836813376,1444836813975,392,363,0,0,0,2,4,2,24,0002-00-0004-90.png,0005-00-0006-71.png
00000009,606,1,1444836815258,1444836815941,887,356,0,0,0,3,2,1,32,0003-00-0007-44.png,0002-00-0001-62.png
00000009,607,0,1444836816783,1444836816835,879,418,0,0,0,4,5,1,45,0005-00-0000-72.png,0001-00-0002-63.png
00000009,608,0,1444836819697,1444836820195,939,305,0,0,0,3,5,2,35,0003-00-0006-63.png,0001-00-0001-09.png
00000009,609,1,1444836823088,1444836823631,947,323,0,0,0,5,1,4,51,0001-00-0002-28.png,0004-00-0005-29.png
00000009,610,1,1444836825027,1444836825827,401,335,0,0,0,2,5,3,25,0002-00-0003-80.png,0001-00-0003-28.png
00000009,611,0,1444836826714,1444836827987,456,230,0,0,0,5,4,1,54,0001-00-0003-84.png,0005-00-0008-38.png
00000009,612,1,1444836830920,1444836831468,366,362,0,0,0,1,2,1,12,0004-00-0007-14.png,0002-00-0008-89.png
00000009,613,1,1444836832767,1444836833491,1047,299,0,0,0,4,3,1,43,0005-00-0006-85.png,0003-00-0006-89.png
00000009,614,0,1444836834418,1444836834454,886,416,0,0,0,1,5,4,15,0004-00-0001-38.png,0001-00-0009-80.png
00000009,615,0,1444836837547,1444836838096,407,350,0,0,0,2,1,1,21,0002-00-0002-15.png,0004-00-0003-52.png
00000009,616,1,1444836841263,1444836841875,367,365,0,0,0,1,4,3,14,0004-00-0005-38.png,0005-00-0001-18.png
00000009,617,1,1444836843212,1444836843969,501,247,0,0,0,2,3,1,23,0002-00-0006-97.png,0003-00-0007-01.png
00000009,618,1,1444836844800,1444836845614,901,338,0,0,0,4,1,3,41,0005-00-0008-18.png,0004-00-0001-32.png
00000009,619,0,1444836846499,1444836846571,906,443,0,0,0,1,3,2,13,0004-00-0001-94.png,0003-00-0003-81.png
00000009,620,1,1444836849387,1444836849915,1074,307,0,0,0,3,1,2,31,0003-00-0006-75.png,0004-00-0002-22.png
00000009,621,0,1444836851260,1444836851766,975,563,0,0,0,4,5,1,45,0005-00-0003-51.png,0001-00-0006-59.png
00000009,622,1,1444836854737,1444836855229,1067,283,0,0,0,3,1,2,31,0003-00-0005-79.png,0004-00-0000-30.png
00000009,623,1,1444836856557,1444836857164,1082,279,0,0,0,5,1,4,51,0001-00-0009-25.png,0004-00-0007-21.png
00000009,624,1,1444836858055,1444836858922,1081,279,0,0,0,3,2,1,32,0003-00-0003-71.png,0002-00-0007-72.png
00000009,625,0,1444836859922,1444836859942,887,413,0,0,0,2,5,3,25,0002-00-0002-93.png,0001-00-0009-39.png
00000009,626,0,1444836864755,1444836865335,1082,279,0,0,0,3,4,1,34,0003-00-0001-70.png,0005-00-0002-19.png
00000009,627,1,1444836869663,1444836870382,341,379,0,0,0,1,4,3,14,0004-00-0005-01.png,0005-00-0006-27.png
00000009,628,1,1444836871696,1444836871750,889,303,0,0,0,5,3,2,53,0001-00-0007-52.png,0003-00-0000-50.png
00000009,629,1,1444836872701,1444836873329,496,231,0,0,0,2,3,1,23,0002-00-0000-03.png,0003-00-0005-64.png
00000009,630,0,1444836874182,1444836875077,408,333,0,0,0,2,1,1,21,0002-00-0001-20.png,0004-00-0002-91.png
00000009,631,1,1444836878218,1444836878772,1092,290,0,0,0,5,4,1,54,0001-00-0003-06.png,0005-00-0003-64.png
00000009,632,1,1444836879689,1444836880402,478,286,0,0,0,1,5,4,15,0004-00-0003-00.png,0001-00-0006-00.png
00000009,633,1,1444836881329,1444836881397,862,384,0,0,0,4,3,1,43,0005-00-0006-62.png,0003-00-0007-50.png
00000009,634,0,1444836882471,1444836882531,913,410,0,0,0,1,3,2,13,0004-00-0003-20.png,0003-00-0008-91.png
00000009,635,0,1444836885732,1444836885760,871,300,0,0,0,2,4,2,24,0002-00-0006-69.png,0005-00-0008-62.png
00000009,636,1,1444836888902,1444836888934,913,332,0,0,0,5,2,3,52,0001-00-0006-40.png,0002-00-0000-62.png
00000009,637,1,1444836889885,1444836890770,1056,292,0,0,0,4,2,2,42,0005-00-0007-96.png,0002-00-0002-27.png
00000009,638,0,1444836891604,1444836891668,937,429,0,0,0,3,5,2,35,0003-00-0008-85.png,0001-00-0004-27.png
00000009,639,1,1444836894806,1444836895348,445,261,0,0,0,1,2,1,12,0004-00-0001-60.png,0002-00-0008-77.png
00000009,640,1,1444836896693,1444836896721,901,279,0,0,0,4,1,3,41,0005-00-0009-42.png,0004-00-0004-47.png
00000009,641,1,1444836897766,1444836898488,381,373,0,0,0,1,5,4,15,0004-00-0006-77.png,0001-00-0004-48.png
00000009,642,1,1444836899461,1444836900132,403,369,0,0,0,4,5,1,45,0005-00-0009-58.png,0001-00-0006-95.png
00000009,643,1,1444836901152,1444836901184,889,387,0,0,0,4,3,1,43,0005-00-0009-78.png,0003-00-0009-77.png
00000009,644,0,1444836902386,1444836902441,911,458,0,0,0,3,4,1,34,0003-00-0003-54.png,0005-00-0000-72.png
00000009,645,1,1444836905516,1444836905664,862,425,0,0,0,3,2,1,32,0003-00-0002-56.png,0002-00-0006-26.png
00000009,646,0,1444836906629,1444836906669,878,474,0,0,0,1,3,2,13,0004-00-0003-48.png,0003-00-0008-94.png
00000009,647,1,1444836909651,1444836910601,375,410,0,0,0,2,4,2,24,0002-00-0005-24.png,0005-00-0004-24.png
00000009,648,1,1444836911956,1444836912503,942,338,0,0,0,4,1,3,41,0005-00-0008-96.png,0004-00-0008-41.png
00000009,649,0,1444836913355,1444836913383,883,414,0,0,0,3,5,2,35,0003-00-0009-83.png,0001-00-0003-68.png
00000009,650,1,1444836916736,1444836916764,894,306,0,0,0,2,1,1,21,0002-00-0006-09.png,0004-00-0007-84.png
00000009,651,1,1444836917770,1444836917839,862,498,0,0,0,3,1,2,31,0003-00-0008-76.png,0004-00-0000-65.png
00000009,652,1,1444836918935,1444836918995,888,427,0,0,0,5,2,3,52,0001-00-0008-53.png,0002-00-0007-29.png
00000009,653,1,1444836920206,1444836920274,880,443,0,0,0,5,4,1,54,0001-00-0008-32.png,0005-00-0002-69.png
00000009,654,0,1444836921678,1444836921714,896,420,0,0,0,2,5,3,25,0002-00-0005-64.png,0001-00-0008-64.png
00000009,655,1,1444836924867,1444836925390,478,265,0,0,0,2,3,1,23,0002-00-0002-49.png,0003-00-0003-38.png
00000009,656,0,1444836926235,1444836926267,921,454,0,0,0,1,4,3,14,0004-00-0000-63.png,0005-00-0002-04.png
00000009,657,1,1444836929299,1444836929932,931,351,0,0,0,5,3,2,53,0001-00-0000-64.png,0003-00-0008-31.png
00000009,658,0,1444836930848,1444836930896,865,497,0,0,0,1,2,1,12,0004-00-0000-54.png,0002-00-0009-68.png
00000009,659,1,1444836933749,1444836934213,1067,306,0,0,0,4,2,2,42,0005-00-0000-76.png,0002-00-0004-00.png
00000009,660,1,1444836935057,1444836935730,952,327,0,0,0,5,1,4,51,0001-00-0005-65.png,0004-00-0004-75.png
00000009,661,0,1444836936635,1444836936663,911,442,0,0,0,2,3,1,23,0002-00-0005-55.png,0003-00-0004-64.png
00000009,662,0,1444836939751,1444836940245,960,329,0,0,0,3,4,1,34,0003-00-0001-78.png,0005-00-0000-25.png
00000009,663,1,1444836943142,1444836943668,964,315,0,0,0,4,2,2,42,0005-00-0003-28.png,0002-00-0002-81.png
00000009,664,1,1444836945064,1444836945567,911,334,0,0,0,5,1,4,51,0001-00-0009-67.png,0004-00-0008-38.png
00000009,665,1,1444836946439,1444836946471,892,408,0,0,0,5,4,1,54,0001-00-0006-24.png,0005-00-0009-89.png
00000009,666,1,1444836947664,1444836947684,862,410,0,0,0,5,3,2,53,0001-00-0009-30.png,0003-00-0008-65.png
00000009,667,0,1444836948897,1444836948933,913,420,0,0,0,1,4,3,14,0004-00-0007-02.png,0005-00-0002-99.png
00000009,668,0,1444836952095,1444836952277,879,418,0,0,0,1,2,1,12,0004-00-0001-61.png,0002-00-0006-70.png
00000009,669,1,1444836955143,1444836955674,990,401,0,0,0,4,1,3,41,0005-00-0004-00.png,0004-00-0001-98.png
00000009,670,1,1444836956986,1444836957604,1086,294,0,0,0,3,2,1,32,0003-00-0006-69.png,0002-00-0003-09.png
00000009,671,0,1444836958441,1444836958497,891,413,0,0,0,2,4,2,24,0002-00-0006-95.png,0005-00-0007-84.png
00000009,672,1,1444836961566,1444836962100,362,405,0,0,0,1,5,4,15,0004-00-0005-52.png,0001-00-0009-05.png
00000009,673,1,1444836963404,1444836964066,498,252,0,0,0,1,3,2,13,0004-00-0008-86.png,0003-00-0006-97.png
00000009,674,1,1444836964954,1444836965002,858,463,0,0,0,2,1,1,21,0002-00-0009-91.png,0004-00-0004-93.png
00000009,675,0,1444836966107,1444836966147,881,404,0,0,0,4,5,1,45,0005-00-0001-01.png,0001-00-0008-78.png
00000009,676,1,1444836969038,1444836969680,461,261,0,0,0,2,5,3,25,0002-00-0001-06.png,0001-00-0004-76.png
00000009,677,1,1444836971007,1444836971568,923,333,0,0,0,3,1,2,31,0003-00-0006-12.png,0004-00-0004-67.png
00000009,678,0,1444836972426,1444836972466,890,435,0,0,0,3,5,2,35,0003-00-0001-45.png,0001-00-0000-78.png
00000009,679,1,1444836977040,1444836977068,913,347,0,0,0,4,3,1,43,0005-00-0007-07.png,0003-00-0008-00.png
00000009,680,1,1444836978071,1444836978764,906,347,0,0,0,5,2,3,52,0001-00-0007-15.png,0002-00-0004-33.png
00000009,681,0,1444836979685,1444836979701,888,410,0,0,0,2,3,1,23,0002-00-0003-68.png,0003-00-0009-72.png
00000009,682,1,1444836982860,1444836983504,370,368,0,0,0,4,5,1,45,0005-00-0003-03.png,0001-00-0003-01.png
00000009,683,1,1444836984851,1444836985530,440,384,0,0,0,1,3,2,13,0004-00-0001-90.png,0003-00-0003-00.png
00000009,684,1,1444836986388,1444836987181,457,244,0,0,0,1,4,3,14,0004-00-0008-27.png,0005-00-0006-04.png
00000009,685,1,1444836988057,1444836989158,1041,265,0,0,0,4,2,2,42,0005-00-0000-89.png,0002-00-0002-55.png
00000009,686,1,1444836990096,1444836990168,938,423,0,0,0,3,1,2,31,0003-00-0006-80.png,0004-00-0006-31.png
00000009,687,1,1444836991279,1444836991340,908,446,0,0,0,5,4,1,54,0001-00-0000-84.png,0005-00-0005-64.png
00000009,688,1,1444836992572,1444836992600,881,442,0,0,0,4,1,3,41,0005-00-0001-87.png,0004-00-0003-16.png
00000009,689,1,1444836994221,1444836994277,888,436,0,0,0,5,2,3,52,0001-00-0007-29.png,0002-00-0008-70.png
00000009,690,1,1444836995394,1444836995450,880,446,0,0,0,2,1,1,21,0002-00-0005-82.png,0004-00-0006-83.png
00000009,691,1,1444836996795,1444836996851,890,451,0,0,0,3,2,1,32,0003-00-0001-70.png,0002-00-0000-18.png
00000009,692,0,1444836998454,1444836998538,899,436,0,0,0,3,4,1,34,0003-00-0008-62.png,0005-00-0008-46.png
00000009,693,1,1444837001700,1444837002315,415,385,0,0,0,2,4,2,24,0002-00-0008-23.png,0005-00-0001-30.png
00000009,694,0,1444837003150,1444837003870,467,256,0,0,0,5,3,2,53,0001-00-0005-90.png,0003-00-0000-73.png
00000009,695,1,1444837007406,1444837008054,424,346,0,0,0,1,2,1,12,0004-00-0004-20.png,0002-00-0001-79.png
00000009,696,1,1444837008885,1444837009864,1065,287,0,0,0,4,3,1,43,0005-00-0009-93.png,0003-00-0009-73.png
00000009,697,1,1444837010752,1444837010812,913,436,0,0,0,5,1,4,51,0001-00-0009-44.png,0004-00-0005-39.png
00000009,698,0,1444837011839,1444837011915,907,433,0,0,0,2,5,3,25,0002-00-0001-96.png,0001-00-0003-34.png
00000009,699,0,1444837014817,1444837015310,964,330,0,0,0,3,5,2,35,0003-00-0008-48.png,0001-00-0009-80.png
00000009,700,1,1444837018230,1444837018713,371,376,0,0,0,1,5,4,15,0004-00-0006-60.png,0001-00-0000-07.png
00000009,701,1,1444837020014,1444837020666,485,250,0,0,0,1,4,3,14,0004-00-0001-53.png,0005-00-0000-46.png
00000009,702,1,1444837021504,1444837021576,862,395,0,0,0,5,1,4,51,0001-00-0008-20.png,0004-00-0002-45.png
00000009,703,1,1444837022601,1444837022649,862,410,0,0,0,5,2,3,52,0001-00-0003-29.png,0002-00-0000-89.png
00000009,704,0,1444837023802,1444837023862,879,444,0,0,0,3,5,2,35,0003-00-0000-13.png,0001-00-0008-67.png
00000009,705,1,1444837026864,1444837027449,970,308,0,0,0,3,2,1,32,0003-00-0000-98.png,0002-00-0005-07.png
00000009,706,0,1444837028316,1444837028375,918,472,0,0,0,2,5,3,25,0002-00-0007-90.png,0001-00-0007-38.png
00000009,707,1,1444837031394,1444837031951,436,265,0,0,0,2,4,2,24,0002-00-0007-77.png,0005-00-0004-78.png
00000009,708,1,1444837033244,1444837033810,1041,264,0,0,0,3,1,2,31,0003-00-0002-98.png,0004-00-0004-86.png
00000009,709,0,1444837034662,1444837034710,922,401,0,0,0,4,5,1,45,0005-00-0002-49.png,0001-00-0001-02.png
00000009,710,0,1444837037713,1444837037733,862,332,0,0,0,1,3,2,13,0004-00-0000-05.png,0003-00-0002-51.png
00000009,711,1,1444837040895,1444837041459,922,345,0,0,0,4,3,1,43,0005-00-0007-51.png,0003-00-0005-76.png
00000009,712,0,1444837042289,1444837042369,864,463,0,0,0,1,2,1,12,0004-00-0001-21.png,0002-00-0000-43.png
00000009,713,1,1444837045494,1444837046035,468,279,0,0,0,2,3,1,23,0002-00-0009-27.png,0003-00-0006-50.png
00000009,714,1,1444837047404,1444837048107,938,318,0,0,0,2,1,1,21,0002-00-0008-07.png,0004-00-0002-60.png
00000009,715,1,1444837049531,1444837050135,1047,272,0,0,0,4,2,2,42,0005-00-0007-73.png,0002-00-0001-43.png
00000009,716,0,1444837051647,1444837051667,868,418,0,0,0,1,5,4,15,0004-00-0007-69.png,0001-00-0008-95.png
00000009,717,0,1444837054609,1444837055082,1041,267,0,0,0,3,4,1,34,0003-00-0002-63.png,0005-00-0003-40.png
00000009,718,0,1444837057965,1444837058486,415,360,0,0,0,5,3,2,53,0001-00-0000-97.png,0003-00-0005-94.png
00000009,719,0,1444837061661,1444837062375,456,265,0,0,0,4,1,3,41,0005-00-0003-06.png,0004-00-0003-86.png
00000009,720,0,1444837065521,1444837066095,483,287,0,0,0,5,4,1,54,0001-00-0001-37.png,0005-00-0005-35.png
00000009,721,1,1444837069224,1444837069928,394,387,0,0,0,1,4,3,14,0004-00-0000-25.png,0005-00-0008-36.png
00000009,722,1,1444837071254,1444837071857,1051,281,0,0,0,3,1,2,31,0003-00-0005-73.png,0004-00-0008-09.png
00000009,723,1,1444837072687,1444837072759,897,410,0,0,0,5,4,1,54,0001-00-0003-46.png,0005-00-0002-14.png
00000009,724,1,1444837073838,1444837073886,872,410,0,0,0,4,2,2,42,0005-00-0005-62.png,0002-00-0009-73.png
00000009,725,0,1444837074994,1444837075034,888,445,0,0,0,1,2,1,12,0004-00-0005-34.png,0002-00-0007-74.png
00000009,726,0,1444837078112,1444837078701,478,272,0,0,0,5,3,2,53,0001-00-0002-50.png,0003-00-0000-03.png
00000009,727,1,1444837081857,1444837082468,471,267,0,0,0,4,5,1,45,0005-00-0008-79.png,0001-00-0001-07.png
00000009,728,1,1444837083346,1444837084289,468,251,0,0,0,2,5,3,25,0002-00-0000-66.png,0001-00-0005-49.png
00000009,729,1,1444837085673,1444837086226,462,268,0,0,0,2,3,1,23,0002-00-0000-00.png,0003-00-0000-19.png
00000009,730,1,1444837087091,1444837087874,1056,265,0,0,0,5,2,3,52,0001-00-0007-41.png,0002-00-0005-23.png
00000009,731,0,1444837088701,1444837088753,887,437,0,0,0,3,4,1,34,0003-00-0007-21.png,0005-00-0002-34.png
00000009,732,0,1444837091981,1444837092163,862,410,0,0,0,2,4,2,24,0002-00-0001-11.png,0005-00-0001-50.png
00000009,733,0,1444837095210,1444837095500,1018,305,0,0,0,3,5,2,35,0003-00-0006-48.png,0001-00-0000-84.png
00000009,734,1,1444837098450,1444837098986,490,300,0,0,0,1,5,4,15,0004-00-0005-22.png,0001-00-0005-51.png
00000009,735,1,1444837100299,1444837100880,917,352,0,0,0,3,2,1,32,0003-00-0001-22.png,0002-00-0006-09.png
00000009,736,1,1444837101718,1444837101758,866,429,0,0,0,4,3,1,43,0005-00-0001-19.png,0003-00-0002-82.png
00000009,737,1,1444837102706,1444837102762,862,410,0,0,0,2,1,1,21,0002-00-0002-53.png,0004-00-0007-84.png
00000009,738,1,1444837104008,1444837104065,892,401,0,0,0,5,1,4,51,0001-00-0003-62.png,0004-00-0004-01.png
00000009,739,1,1444837105190,1444837105238,879,440,0,0,0,4,1,3,41,0005-00-0006-14.png,0004-00-0004-59.png
00000009,740,0,1444837106452,1444837106500,883,449,0,0,0,1,3,2,13,0004-00-0003-84.png,0003-00-0003-93.png
00000009,741,1,1444837109489,1444837110085,990,436,0,0,0,2,1,1,21,0002-00-0005-72.png,0004-00-0007-82.png
00000009,742,1,1444837111388,1444837111989,445,416,0,0,0,2,3,1,23,0002-00-0009-49.png,0003-00-0005-47.png
00000009,743,0,1444837113417,1444837113992,914,334,0,0,0,4,5,1,45,0005-00-0006-71.png,0001-00-0007-30.png
00000009,744,1,1444837116832,1444837117355,1053,279,0,0,0,4,1,3,41,0005-00-0003-75.png,0004-00-0005-87.png
00000009,745,1,1444837118653,1444837119231,1073,262,0,0,0,3,1,2,31,0003-00-0007-00.png,0004-00-0006-99.png
00000009,746,0,1444837120058,1444837120151,915,466,0,0,0,1,5,4,15,0004-00-0001-08.png,0001-00-0001-35.png
00000009,747,0,1444837123292,1444837123415,897,291,0,0,0,2,4,2,24,0002-00-0004-79.png,0005-00-0005-44.png
00000009,748,1,1444837126434,1444837126984,471,267,0,0,0,1,2,1,12,0004-00-0004-79.png,0002-00-0007-04.png
00000009,749,1,1444837128271,1444837128500,862,384,0,0,0,5,3,2,53,0001-00-0005-79.png,0003-00-0002-22.png
00000009,750,1,1444837129506,1444837130198,916,326,0,0,0,5,1,4,51,0001-00-0000-39.png,0004-00-0002-54.png
00000009,751,1,1444837131529,1444837132132,372,374,0,0,0,1,3,2,13,0004-00-0005-55.png,0003-00-0000-93.png
00000009,752,1,1444837132968,1444837133048,869,453,0,0,0,5,4,1,54,0001-00-0001-67.png,0005-00-0002-45.png
00000009,753,1,1444837134156,1444837134192,898,412,0,0,0,4,2,2,42,0005-00-0000-13.png,0002-00-0006-52.png
00000009,754,1,1444837135256,1444837136131,911,347,0,0,0,3,2,1,32,0003-00-0002-32.png,0002-00-0009-15.png
00000009,755,0,1444837137146,1444837137170,928,422,0,0,0,2,5,3,25,0002-00-0008-53.png,0001-00-0002-52.png
00000009,756,0,1444837140337,1444837140822,1092,279,0,0,0,3,5,2,35,0003-00-0007-05.png,0001-00-0000-14.png
00000009,757,1,1444837143983,1444837144302,957,364,0,0,0,5,2,3,52,0001-00-0007-07.png,0002-00-0008-03.png
00000009,758,0,1444837145194,1444837145250,888,488,0,0,0,1,4,3,14,0004-00-0000-90.png,0005-00-0005-55.png
00000009,759,0,1444837148188,1444837148781,1023,327,0,0,0,3,4,1,34,0003-00-0002-15.png,0005-00-0004-08.png
00000009,760,1,1444837151686,1444837152274,1046,277,0,0,0,4,3,1,43,0005-00-0009-68.png,0003-00-0003-88.png
00000009,761,1,1444837153112,1444837153188,888,474,0,0,0,5,4,1,54,0001-00-0002-53.png,0005-00-0006-75.png
00000009,762,1,1444837154180,1444837154220,861,407,0,0,0,2,1,1,21,0002-00-0002-73.png,0004-00-0008-01.png
00000009,763,0,1444837155354,1444837155406,880,452,0,0,0,1,2,1,12,0004-00-0000-51.png,0002-00-0008-80.png
00000009,764,1,1444837158544,1444837159128,440,294,0,0,0,2,3,1,23,0002-00-0003-39.png,0003-00-0000-60.png
00000009,765,0,1444837160419,1444837160988,478,262,0,0,0,4,1,3,41,0005-00-0003-21.png,0004-00-0002-05.png
00000009,766,0,1444837164116,1444837164682,1088,289,0,0,0,3,5,2,35,0003-00-0001-80.png,0001-00-0000-02.png
00000009,767,1,1444837167883,1444837168400,929,321,0,0,0,5,1,4,51,0001-00-0006-84.png,0004-00-0006-86.png
00000009,768,1,1444837169661,1444837170260,476,256,0,0,0,1,5,4,15,0004-00-0004-23.png,0001-00-0007-35.png
00000009,769,0,1444837171700,1444837172014,964,478,0,0,0,2,4,2,24,0002-00-0009-68.png,0005-00-0006-63.png
00000009,770,1,1444837175137,1444837175613,385,385,0,0,0,1,3,2,13,0004-00-0000-33.png,0003-00-0006-74.png
00000009,771,1,1444837176918,1444837177551,1043,307,0,0,0,3,2,1,32,0003-00-0004-94.png,0002-00-0002-63.png
00000009,772,0,1444837179015,1444837179182,943,455,0,0,0,1,4,3,14,0004-00-0002-23.png,0005-00-0003-73.png
00000009,773,1,1444837182265,1444837182757,1046,316,0,0,0,5,2,3,52,0001-00-0009-39.png,0002-00-0003-87.png
00000009,774,1,1444837184042,1444837184926,457,261,0,0,0,2,5,3,25,0002-00-0000-32.png,0001-00-0004-45.png
00000009,775,1,1444837185768,1444837186502,937,337,0,0,0,4,2,2,42,0005-00-0009-21.png,0002-00-0003-40.png
00000009,776,1,1444837187453,1444837187477,910,412,0,0,0,3,1,2,31,0003-00-0001-65.png,0004-00-0000-51.png
00000009,777,1,1444837188644,1444837188720,904,462,0,0,0,4,3,1,43,0005-00-0005-92.png,0003-00-0006-15.png
00000009,778,0,1444837189896,1444837189980,931,473,0,0,0,3,4,1,34,0003-00-0005-27.png,0005-00-0001-31.png
00000009,779,0,1444837193092,1444837193682,966,325,0,0,0,4,5,1,45,0005-00-0006-63.png,0001-00-0006-46.png
00000009,780,0,1444837196615,1444837197145,479,274,0,0,0,5,3,2,53,0001-00-0000-17.png,0003-00-0003-48.png
00000009,781,1,1444837200040,1444837200516,945,314,0,0,0,5,1,4,51,0001-00-0007-10.png,0004-00-0001-01.png
00000009,782,1,1444837201773,1444837202494,1076,279,0,0,0,3,2,1,32,0003-00-0002-07.png,0002-00-0004-81.png
00000009,783,0,1444837203939,1444837203963,888,396,0,0,0,2,3,1,23,0002-00-0001-05.png,0003-00-0001-16.png
00000009,784,1,1444837207100,1444837207120,888,358,0,0,0,2,1,1,21,0002-00-0002-27.png,0004-00-0006-77.png
00000009,785,0,1444837208053,1444837209373,357,358,0,0,0,4,3,1,43,0005-00-0005-59.png,0003-00-0008-02.png
00000009,786,0,1444837212466,1444837213000,1080,288,0,0,0,1,2,1,12,0004-00-0001-43.png,0002-00-0002-65.png
00000009,787,1,1444837216062,1444837216118,876,361,0,0,0,5,3,2,53,0001-00-0005-34.png,0003-00-0007-28.png
00000009,788,0,1444837217096,1444837217132,862,488,0,0,0,3,4,1,34,0003-00-0005-21.png,0005-00-0006-18.png
00000009,789,1,1444837220248,1444837220891,479,254,0,0,0,1,3,2,13,0004-00-0005-21.png,0003-00-0000-09.png
00000009,790,0,1444837222254,1444837222858,1027,279,0,0,0,4,5,1,45,0005-00-0009-91.png,0001-00-0007-70.png
00000009,791,1,1444837226032,1444837226551,394,374,0,0,0,2,4,2,24,0002-00-0001-89.png,0005-00-0003-97.png
00000009,792,1,1444837227908,1444837228488,956,339,0,0,0,3,1,2,31,0003-00-0000-88.png,0004-00-0002-04.png
00000009,793,1,1444837229365,1444837229397,866,434,0,0,0,5,2,3,52,0001-00-0004-36.png,0002-00-0002-47.png
00000009,794,1,1444837230553,1444837230597,898,427,0,0,0,5,4,1,54,0001-00-0004-92.png,0005-00-0007-16.png
00000009,795,0,1444837231782,1444837231841,885,439,0,0,0,2,5,3,25,0002-00-0006-91.png,0001-00-0006-68.png
00000009,796,0,1444837234992,1444837235116,888,288,0,0,0,1,4,3,14,0004-00-0001-49.png,0005-00-0002-47.png
00000009,797,1,1444837238083,1444837239237,463,265,0,0,0,3,5,2,35,0003-00-0001-38.png,0001-00-0004-79.png
00000009,798,1,1444837240079,1444837241164,918,331,0,0,0,4,2,2,42,0005-00-0006-16.png,0002-00-0008-69.png
00000009,799,0,1444837242037,1444837242077,917,433,0,0,0,1,5,4,15,0004-00-0003-71.png,0001-00-0003-57.png
00000009,800,1,1444837245027,1444837245548,969,324,0,0,0,4,1,3,41,0005-00-0006-25.png,0004-00-0008-30.png
00000009,801,1,1444837246851,1444837247422,930,326,0,0,0,5,4,1,54,0001-00-0003-49.png,0005-00-0007-97.png
00000009,802,1,1444837248331,1444837249051,377,367,0,0,0,2,3,1,23,0002-00-0009-12.png,0003-00-0002-06.png
00000009,803,0,1444837249960,1444837250741,1067,279,0,0,0,4,5,1,45,0005-00-0003-67.png,0001-00-0004-94.png
00000009,804,0,1444837253885,1444837254468,414,410,0,0,0,2,1,1,21,0002-00-0005-98.png,0004-00-0004-92.png
00000009,805,1,1444837257530,1444837257953,963,331,0,0,0,5,2,3,52,0001-00-0003-68.png,0002-00-0004-20.png
00000009,806,0,1444837259261,1444837259906,388,348,0,0,0,5,3,2,53,0001-00-0005-55.png,0003-00-0005-39.png
00000009,807,1,1444837263104,1444837263725,455,277,0,0,0,1,4,3,14,0004-00-0003-02.png,0005-00-0002-81.png
00000009,808,0,1444837264587,1444837265263,931,332,0,0,0,1,5,4,15,0004-00-0003-53.png,0001-00-0001-54.png
00000009,809,1,1444837268245,1444837268814,474,268,0,0,0,1,3,2,13,0004-00-0009-45.png,0003-00-0007-89.png
00000009,810,1,1444837270173,1444837270726,439,273,0,0,0,1,2,1,12,0004-00-0002-53.png,0002-00-0003-95.png
00000009,811,1,1444837272122,1444837272464,925,514,0,0,0,4,3,1,43,0005-00-0003-94.png,0003-00-0004-26.png
00000009,812,1,1444837273662,1444837273698,888,384,0,0,0,4,1,3,41,0005-00-0001-51.png,0004-00-0009-48.png
00000009,813,0,1444837274685,1444837274733,895,425,0,0,0,3,5,2,35,0003-00-0000-57.png,0001-00-0007-43.png
00000009,814,1,1444837277871,1444837278325,1092,279,0,0,0,5,1,4,51,0001-00-0001-08.png,0004-00-0006-92.png
00000009,815,1,1444837279653,1444837280003,996,534,0,0,0,3,1,2,31,0003-00-0003-82.png,0004-00-0005-39.png
00000009,816,1,1444837280956,1444837280980,899,422,0,0,0,4,2,2,42,0005-00-0008-53.png,0002-00-0001-21.png
00000009,817,0,1444837281980,1444837282056,888,449,0,0,0,2,4,2,24,0002-00-0001-75.png,0005-00-0005-04.png
00000009,818,1,1444837285374,1444837285838,990,399,0,0,0,3,2,1,32,0003-00-0007-16.png,0002-00-0001-79.png
00000009,819,1,1444837287087,1444837288508,439,251,0,0,0,3,4,1,34,0003-00-0000-28.png,0005-00-0007-87.png
00000009,820,0,1444837289410,1444837289438,888,470,0,0,0,2,5,3,25,0002-00-0003-44.png,0001-00-0006-16.png
00000009,821,0,1444837292552,1444837293229,968,331,0,0,0,3,4,1,34,0003-00-0005-73.png,0005-00-0008-69.png
00000009,822,1,1444837296220,1444837296695,374,400,0,0,0,2,3,1,23,0002-00-0000-68.png,0003-00-0009-73.png
00000009,823,1,1444837297978,1444837298351,1041,541,0,0,0,5,2,3,52,0001-00-0002-16.png,0002-00-0002-07.png
00000009,824,0,1444837299309,1444837299369,917,445,0,0,0,2,5,3,25,0002-00-0000-97.png,0001-00-0009-98.png
00000009,825,1,1444837302569,1444837303111,941,390,0,0,0,3,1,2,31,0003-00-0000-97.png,0004-00-0007-98.png
00000009,826,1,1444837304348,1444837304909,890,357,0,0,0,4,2,2,42,0005-00-0003-75.png,0002-00-0000-26.png
00000009,827,1,1444837306314,1444837307079,490,245,0,0,0,2,4,2,24,0002-00-0005-23.png,0005-00-0002-11.png
00000009,828,1,1444837307940,1444837308955,1068,295,0,0,0,2,1,1,21,0002-00-0005-55.png,0004-00-0003-52.png
00000009,829,0,1444837309940,1444837309948,893,382,0,0,0,1,3,2,13,0004-00-0006-28.png,0003-00-0000-34.png
00000009,830,1,1444837313078,1444837313190,862,270,0,0,0,4,3,1,43,0005-00-0001-68.png,0003-00-0005-13.png
00000009,831,0,1444837314136,1444837314156,862,462,0,0,0,1,2,1,12,0004-00-0003-39.png,0002-00-0001-65.png
00000009,832,0,1444837317035,1444837317543,376,363,0,0,0,5,4,1,54,0001-00-0008-69.png,0005-00-0000-46.png
00000009,833,1,1444837320615,1444837321128,1088,313,0,0,0,5,1,4,51,0001-00-0007-12.png,0004-00-0003-46.png
00000009,834,1,1444837321955,1444837322583,962,356,0,0,0,3,2,1,32,0003-00-0009-94.png,0002-00-0007-43.png
00000009,835,1,1444837323464,1444837324163,924,309,0,0,0,4,1,3,41,0005-00-0004-97.png,0004-00-0002-48.png
00000009,836,0,1444837325086,1444837325126,924,428,0,0,0,4,5,1,45,0005-00-0005-18.png,0001-00-0009-89.png
00000009,837,0,1444837328366,1444837328659,954,354,0,0,0,1,5,4,15,0004-00-0005-90.png,0001-00-0006-79.png
00000009,838,0,1444837331544,1444837332384,1041,295,0,0,0,3,5,2,35,0003-00-0005-86.png,0001-00-0005-73.png
00000009,839,1,1444837335481,1444837335999,453,262,0,0,0,1,4,3,14,0004-00-0002-56.png,0005-00-0005-40.png
00000009,840,1,1444837336831,1444837336892,912,412,0,0,0,5,3,2,53,0001-00-0004-39.png,0003-00-0003-48.png
00000009,841,1,1444837337984,1444837338013,888,436,0,0,0,4,1,3,41,0005-00-0008-03.png,0004-00-0000-59.png
00000009,842,0,1444837339097,1444837339165,907,443,0,0,0,2,5,3,25,0002-00-0005-73.png,0001-00-0001-22.png
00000009,843,1,1444837341999,1444837342549,388,347,0,0,0,1,2,1,12,0004-00-0002-98.png,0002-00-0009-74.png
00000009,844,1,1444837343989,1444837344729,934,340,0,0,0,5,2,3,52,0001-00-0000-34.png,0002-00-0007-72.png
00000009,845,1,1444837345588,1444837345620,865,433,0,0,0,2,1,1,21,0002-00-0006-10.png,0004-00-0003-15.png
00000009,846,0,1444837346671,1444837346747,907,424,0,0,0,3,4,1,34,0003-00-0002-00.png,0005-00-0004-58.png
00000009,847,1,1444837349567,1444837350065,960,333,0,0,0,3,2,1,32,0003-00-0002-11.png,0002-00-0007-01.png
00000009,848,1,1444837351380,1444837352003,453,422,0,0,0,2,3,1,23,0002-00-0008-94.png,0003-00-0009-42.png
00000009,849,1,1444837352932,1444837352960,867,414,0,0,0,5,4,1,54,0001-00-0006-09.png,0005-00-0006-64.png
00000009,850,0,1444837354065,1444837354125,893,453,0,0,0,3,5,2,35,0003-00-0006-19.png,0001-00-0007-17.png
00000009,851,0,1444837357225,1444837357859,391,343,0,0,0,5,3,2,53,0001-00-0001-66.png,0003-00-0006-90.png
00000009,852,1,1444837360761,1444837361487,459,258,0,0,0,4,5,1,45,0005-00-0007-83.png,0001-00-0005-38.png
00000009,853,0,1444837362360,1444837362400,860,485,0,0,0,1,4,3,14,0004-00-0004-41.png,0005-00-0008-30.png
00000009,854,1,1444837365594,1444837366396,507,258,0,0,0,2,4,2,24,0002-00-0009-92.png,0005-00-0000-88.png
00000009,855,0,1444837367258,1444837367310,888,502,0,0,0,1,3,2,13,0004-00-0008-38.png,0003-00-0008-69.png
00000009,856,1,1444837370372,1444837371015,364,372,0,0,0,1,5,4,15,0004-00-0007-83.png,0001-00-0009-26.png
00000009,857,1,1444837372351,1444837373031,1063,312,0,0,0,5,1,4,51,0001-00-0004-19.png,0004-00-0007-49.png
00000009,858,1,1444837373878,1444837373918,906,415,0,0,0,4,3,1,43,0005-00-0001-43.png,0003-00-0001-07.png
00000009,859,1,1444837375014,1444837375077,901,427,0,0,0,4,2,2,42,0005-00-0008-61.png,0002-00-0009-51.png
00000009,860,1,1444837376266,1444837376314,888,420,0,0,0,3,1,2,31,0003-00-0003-80.png,0004-00-0003-18.png
00000009,861,0,1444837377507,1444837377575,909,437,0,0,0,3,5,2,35,0003-00-0008-14.png,0001-00-0002-51.png
00000009,862,1,1444837380685,1444837381390,964,418,0,0,0,5,3,2,53,0001-00-0005-39.png,0003-00-0004-45.png
00000009,863,1,1444837382694,1444837383327,470,263,0,0,0,2,3,1,23,0002-00-0000-13.png,0003-00-0004-93.png
00000009,864,1,1444837384164,1444837385283,427,254,0,0,0,2,4,2,24,0002-00-0008-83.png,0005-00-0000-10.png
00000009,865,0,1444837386227,1444837386924,387,356,0,0,0,4,3,1,43,0005-00-0000-48.png,0003-00-0007-43.png
00000009,866,1,1444837389950,1444837390513,389,389,0,0,0,1,2,1,12,0004-00-0006-40.png,0002-00-0002-96.png
00000009,867,0,1444837391421,1444837392313,368,330,0,0,0,5,4,1,54,0001-00-0005-48.png,0005-00-0008-24.png
00000009,868,1,1444837397403,1444837397997,357,375,0,0,0,3,4,1,34,0003-00-0002-49.png,0005-00-0002-29.png
00000009,869,1,1444837399381,1444837399935,936,354,0,0,0,3,2,1,32,0003-00-0002-58.png,0002-00-0008-81.png
00000009,870,1,1444837400831,1444837401582,489,237,0,0,0,1,5,4,15,0004-00-0002-81.png,0001-00-0003-61.png
00000009,871,0,1444837402500,1444837403240,382,375,0,0,0,2,1,1,21,0002-00-0008-02.png,0004-00-0003-60.png
00000009,872,1,1444837406274,1444837406791,940,331,0,0,0,5,2,3,52,0001-00-0004-20.png,0002-00-0007-32.png
00000009,873,1,1444837408166,1444837408740,478,262,0,0,0,1,3,2,13,0004-00-0008-37.png,0003-00-0005-81.png
00000009,874,1,1444837410153,1444837410777,1041,318,0,0,0,3,1,2,31,0003-00-0008-91.png,0004-00-0007-21.png
00000009,875,0,1444837411651,1444837411691,940,393,0,0,0,4,5,1,45,0005-00-0008-22.png,0001-00-0004-06.png
00000009,876,1,1444837414683,1444837415281,940,334,0,0,0,4,2,2,42,0005-00-0007-84.png,0002-00-0004-46.png
00000009,877,0,1444837416185,1444837416205,865,464,0,0,0,1,4,3,14,0004-00-0006-83.png,0005-00-0004-62.png
00000009,878,1,1444837419086,1444837419581,1067,306,0,0,0,5,1,4,51,0001-00-0004-00.png,0004-00-0003-95.png
00000009,879,0,1444837420417,1444837420497,907,461,0,0,0,2,5,3,25,0002-00-0004-12.png,0001-00-0005-88.png
00000009,880,1,1444837423325,1444837423820,1067,271,0,0,0,4,1,3,41,0005-00-0007-34.png,0004-00-0009-33.png
00000009,881,0,1444837425205,1444837425889,478,238,0,0,0,5,4,1,54,0001-00-0006-05.png,0005-00-0009-94.png
00000009,882,1,1444837429003,1444837429772,945,375,0,0,0,2,1,1,21,0002-00-0001-74.png,0004-00-0005-09.png
00000009,883,0,1444837430691,1444837430731,893,460,0,0,0,1,5,4,15,0004-00-0002-52.png,0001-00-0007-11.png
00000009,884,1,1444837433673,1444837434293,380,344,0,0,0,2,5,3,25,0002-00-0001-72.png,0001-00-0005-07.png
00000009,885,1,1444837435162,1444837435242,931,473,0,0,0,4,1,3,41,0005-00-0006-32.png,0004-00-0000-64.png
00000009,886,0,1444837436296,1444837436384,923,409,0,0,0,3,5,2,35,0003-00-0009-68.png,0001-00-0003-38.png
00000009,887,1,1444837439264,1444837439783,1078,283,0,0,0,3,2,1,32,0003-00-0000-63.png,0002-00-0002-26.png
00000009,888,0,1444837440609,1444837440681,915,469,0,0,0,1,4,3,14,0004-00-0008-05.png,0005-00-0005-18.png
00000009,889,1,1444837443760,1444837444259,964,322,0,0,0,4,2,2,42,0005-00-0004-90.png,0002-00-0006-30.png
00000009,890,0,1444837445097,1444837445157,935,490,0,0,0,2,4,2,24,0002-00-0007-12.png,0005-00-0003-97.png
00000009,891,0,1444837448207,1444837448795,447,307,0,0,0,5,3,2,53,0001-00-0004-67.png,0003-00-0008-32.png
00000009,892,1,1444837453181,1444837453747,444,325,0,0,0,4,5,1,45,0005-00-0002-92.png,0001-00-0006-04.png
00000009,893,1,1444837455157,1444837455725,477,250,0,0,0,2,3,1,23,0002-00-0006-90.png,0003-00-0000-83.png
00000009,894,1,1444837456564,1444837456624,858,441,0,0,0,5,1,4,51,0001-00-0009-23.png,0004-00-0004-56.png
00000009,895,0,1444837457641,1444837457669,888,410,0,0,0,1,2,1,12,0004-00-0007-99.png,0002-00-0006-36.png
00000009,896,0,1444837460713,1444837460741,862,427,0,0,0,1,3,2,13,0004-00-0003-21.png,0003-00-0007-24.png
00000009,897,0,1444837463864,1444837464448,467,265,0,0,0,4,3,1,43,0005-00-0006-03.png,0003-00-0000-78.png
00000009,898,0,1444837467700,1444837468260,960,314,0,0,0,3,4,1,34,0003-00-0001-39.png,0005-00-0001-75.png
00000009,899,1,1444837471197,1444837471693,1067,294,0,0,0,3,1,2,31,0003-00-0001-34.png,0004-00-0007-84.png
00000009,900,1,1444837472560,1444837472580,865,462,0,0,0,5,2,3,52,0001-00-0006-01.png,0002-00-0005-98.png
00000009,901,1,1444837473543,1444837473611,900,384,0,0,0,3,2,1,32,0003-00-0007-36.png,0002-00-0004-00.png
00000009,902,0,1444837474555,1444837474635,862,410,0,0,0,1,4,3,14,0004-00-0006-12.png,0005-00-0001-58.png
00000009,903,1,1444837477882,1444837478424,1066,306,0,0,0,5,1,4,51,0001-00-0009-41.png,0004-00-0003-82.png
00000009,904,1,1444837479753,1444837479805,888,332,0,0,0,5,2,3,52,0001-00-0008-26.png,0002-00-0002-78.png
00000009,905,0,1444837480815,1444837480879,862,436,0,0,0,2,4,2,24,0002-00-0000-01.png,0005-00-0000-55.png
00000009,906,1,1444837483757,1444837484260,412,410,0,0,0,1,3,2,13,0004-00-0000-23.png,0003-00-0008-34.png
00000009,907,0,1444837485617,1444837485886,954,375,0,0,0,2,5,3,25,0002-00-0009-63.png,0001-00-0000-63.png
00000009,908,1,1444837488981,1444837489680,348,344,0,0,0,4,5,1,45,0005-00-0004-61.png,0001-00-0009-18.png
00000009,909,1,1444837490526,1444837491286,452,243,0,0,0,2,3,1,23,0002-00-0007-69.png,0003-00-0009-17.png
00000009,910,1,1444837492672,1444837493030,966,492,0,0,0,3,1,2,31,0003-00-0003-89.png,0004-00-0007-94.png
00000009,911,1,1444837494082,1444837494106,941,409,0,0,0,5,4,1,54,0001-00-0007-12.png,0005-00-0002-75.png
00000009,912,0,1444837495196,1444837495236,913,438,0,0,0,1,5,4,15,0004-00-0001-38.png,0001-00-0006-61.png
00000009,913,1,1444837498310,1444837498813,380,354,0,0,0,3,4,1,34,0003-00-0006-39.png,0005-00-0006-57.png
00000009,914,1,1444837499709,1444837499749,888,452,0,0,0,2,1,1,21,0002-00-0003-65.png,0004-00-0002-92.png
00000009,915,0,1444837500779,1444837500863,913,449,0,0,0,3,5,2,35,0003-00-0007-45.png,0001-00-0009-66.png
00000009,916,1,1444837504091,1444837504594,964,324,0,0,0,4,2,2,42,0005-00-0001-51.png,0002-00-0001-10.png
00000009,917,0,1444837505458,1444837505498,934,448,0,0,0,1,2,1,12,0004-00-0006-34.png,0002-00-0008-09.png
00000009,918,1,1444837508405,1444837508886,1055,265,0,0,0,4,1,3,41,0005-00-0001-23.png,0004-00-0003-71.png
00000009,919,1,1444837510233,1444837511108,948,278,0,0,0,5,3,2,53,0001-00-0003-96.png,0003-00-0001-74.png
00000009,920,1,1444837512061,1444837512093,908,416,0,0,0,4,3,1,43,0005-00-0005-13.png,0003-00-0000-14.png
00000009,921,0,1444837513243,1444837513283,913,410,0,0,0,1,5,4,15,0004-00-0000-12.png,0001-00-0008-10.png
00000009,922,0,1444837516627,1444837517126,966,329,0,0,0,4,5,1,45,0005-00-0001-39.png,0001-00-0001-43.png
00000009,923,1,1444837520220,1444837520695,1001,308,0,0,0,3,2,1,32,0003-00-0006-21.png,0002-00-0002-81.png
00000009,924,0,1444837521578,1444837521650,939,488,0,0,0,2,5,3,25,0002-00-0005-48.png,0001-00-0000-32.png
00000009,925,0,1444837524516,1444837525033,945,323,0,0,0,2,4,2,24,0002-00-0008-53.png,0005-00-0003-33.png
00000009,926,0,1444837528096,1444837528630,414,359,0,0,0,5,1,4,51,0001-00-0000-99.png,0004-00-0005-48.png
00000009,927,1,1444837531735,1444837532212,498,296,0,0,0,1,3,2,13,0004-00-0005-15.png,0003-00-0007-18.png
00000009,928,0,1444837533076,1444837533124,913,462,0,0,0,3,4,1,34,0003-00-0008-95.png,0005-00-0006-15.png
00000009,929,1,1444837536257,1444837536549,1026,335,0,0,0,5,3,2,53,0001-00-0000-44.png,0003-00-0008-57.png
00000009,930,0,1444837537498,1444837537530,923,465,0,0,0,2,3,1,23,0002-00-0009-80.png,0003-00-0007-83.png
00000009,931,1,1444837540696,1444837541180,1095,301,0,0,0,2,1,1,21,0002-00-0002-60.png,0004-00-0002-43.png
00000009,932,1,1444837542537,1444837543242,471,251,0,0,0,1,4,3,14,0004-00-0001-28.png,0005-00-0007-20.png
00000009,933,1,1444837544126,1444837544168,888,436,0,0,0,4,1,3,41,0005-00-0005-63.png,0004-00-0007-65.png
00000009,934,1,1444837545329,1444837545405,905,436,0,0,0,4,2,2,42,0005-00-0005-94.png,0002-00-0007-51.png
00000009,935,1,1444837546503,1444837546563,913,436,0,0,0,4,3,1,43,0005-00-0002-62.png,0003-00-0005-05.png
00000009,936,0,1444837547814,1444837547878,900,475,0,0,0,3,5,2,35,0003-00-0006-66.png,0001-00-0001-44.png
00000009,937,1,1444837550734,1444837551286,1101,317,0,0,0,5,2,3,52,0001-00-0001-88.png,0002-00-0002-88.png
00000009,938,0,1444837552211,1444837553081,917,331,0,0,0,1,2,1,12,0004-00-0003-55.png,0002-00-0009-96.png
00000009,939,1,1444837556210,1444837556813,975,303,0,0,0,5,4,1,54,0001-00-0007-95.png,0005-00-0009-74.png
00000009,940,1,1444837557691,1444837557719,888,478,0,0,0,3,1,2,31,0003-00-0003-99.png,0004-00-0009-01.png
00000009,941,0,1444837558735,1444837558775,913,394,0,0,0,2,5,3,25,0002-00-0002-31.png,0001-00-0004-16.png
