subject_id,trial,correct_response,stim_time,response_time,x_coord,y_coord,trial_timeout,timeout_time,interTrial_timeout,left_rank,right_rank,distance,joint_rank,left_image,right_image
14,1,1,1444926155315,1444926156544,347,359,0,0,0,3,4,1,34,0003-00-0006-31.png,0005-00-0003-77.png
14,2,1,1444926172552,1444926173243,1021,415,0,0,0,2,3,1,23,0002-00-0005-92.png,0003-00-0000-02.png
14,3,1,1444926176571,1444926177227,355,400,0,0,0,4,1,3,41,0005-00-0003-21.png,0004-00-0004-26.png
14,4,1,1444926243282,1444926244139,325,433,0,0,0,4,1,3,41,0005-00-0007-70.png,0004-00-0008-35.png
14,5,0,1444926247063,1444926247466,316,375,0,0,0,4,3,1,43,0005-00-0003-26.png,0003-00-0008-89.png
14,6,1,1444926248448,1444926248883,913,559,0,0,0,4,5,1,45,0005-00-0009-45.png,0001-00-0009-09.png
14,7,1,1444926249910,1444926250348,933,489,0,0,0,2,5,3,25,0002-00-0009-88.png,0001-00-0002-49.png
14,8,1,1444926251760,1444926252299,353,361,0,0,0,1,3,2,13,0004-00-0006-87.png,0003-00-0007-14.png
14,9,0,1444926253438,1444926253866,888,358,0,0,0,4,3,1,43,0005-00-0004-44.png,0003-00-0003-11.png
14,10,1,1444926255046,1444926255434,389,517,0,0,0,3,4,1,34,0003-00-0005-58.png,0005-00-0000-73.png
14,11,0,1444926256351,1444926256785,350,387,0,0,0,5,4,1,54,0001-00-0006-17.png,0005-00-0007-84.png
14,12,1,1444926257616,1444926258140,917,414,0,0,0,5,1,4,51,0001-00-0003-35.png,0004-00-0002-08.png
14,13,1,1444926259062,1444926259542,930,480,0,0,0,5,1,4,51,0001-00-0000-33.png,0004-00-0006-62.png
14,14,0,1444926260466,1444926260856,397,400,0,0,0,4,5,1,45,0005-00-0000-40.png,0001-00-0003-74.png
14,15,0,1444926261738,1444926262175,366,416,0,0,0,4,3,1,43,0005-00-0009-30.png,0003-00-0001-97.png
14,16,0,1444926263109,1444926263585,942,409,0,0,0,2,1,1,21,0002-00-0000-35.png,0004-00-0001-13.png
14,17,1,1444926264586,1444926265061,906,470,0,0,0,1,2,1,12,0004-00-0001-32.png,0002-00-0005-97.png
14,18,1,1444926266092,1444926266544,388,492,0,0,0,5,2,3,52,0001-00-0003-00.png,0002-00-0001-83.png
14,19,1,1444926267544,1444926268028,912,482,0,0,0,2,4,2,24,0002-00-0006-22.png,0005-00-0001-94.png
14,20,1,1444926268954,1444926269372,331,410,0,0,0,4,3,1,43,0005-00-0005-25.png,0003-00-0001-45.png
14,21,0,1444926270387,1444926270820,306,405,0,0,0,1,5,4,15,0004-00-0000-29.png,0001-00-0005-22.png
14,22,1,1444926271778,1444926272380,862,370,0,0,0,4,2,2,42,0005-00-0009-28.png,0002-00-0004-77.png
14,23,1,1444926273398,1444926273896,368,496,0,0,0,2,5,3,25,0002-00-0004-30.png,0001-00-0002-20.png
14,24,1,1444926276977,1444926277400,337,521,0,0,0,2,5,3,25,0002-00-0003-60.png,0001-00-0009-95.png
14,25,1,1444926278359,1444926278814,316,435,0,0,0,4,1,3,41,0005-00-0009-79.png,0004-00-0003-72.png
14,26,1,1444926280119,1444926280576,901,436,0,0,0,4,1,3,41,0005-00-0005-59.png,0004-00-0004-48.png
14,27,1,1444926283617,1444926283967,296,439,0,0,0,3,5,2,35,0003-00-0004-64.png,0001-00-0006-52.png
14,28,1,1444926286847,1444926287193,392,390,0,0,0,3,2,1,32,0003-00-0004-39.png,0002-00-0007-30.png
14,29,0,1444926290052,1444926290496,953,415,0,0,0,4,3,1,43,0005-00-0004-99.png,0003-00-0005-58.png
14,30,1,1444926293474,1444926293898,954,380,0,0,0,5,3,2,53,0001-00-0001-10.png,0003-00-0001-89.png
14,31,1,1444926294896,1444926295348,328,445,0,0,0,5,4,1,54,0001-00-0002-38.png,0005-00-0000-46.png
14,32,0,1444926298249,1444926298669,292,453,0,0,0,5,3,2,53,0001-00-0006-71.png,0003-00-0006-78.png
14,33,1,1444926299545,1444926300025,357,521,0,0,0,2,1,1,21,0002-00-0006-20.png,0004-00-0006-52.png
14,34,1,1444926301056,1444926301516,926,423,0,0,0,2,1,1,21,0002-00-0005-51.png,0004-00-0000-26.png
14,35,0,1444926303325,1444926303800,317,471,0,0,0,4,5,1,45,0005-00-0000-15.png,0001-00-0003-94.png
14,36,0,1444926305343,1444926305869,867,359,0,0,0,1,2,1,12,0004-00-0008-32.png,0002-00-0003-88.png
14,37,1,1444926306816,1444926307311,927,388,0,0,0,1,3,2,13,0004-00-0000-09.png,0003-00-0006-08.png
14,38,1,1444926308306,1444926308821,900,391,0,0,0,5,2,3,52,0001-00-0003-90.png,0002-00-0009-64.png
14,39,0,1444926309817,1444926310278,318,457,0,0,0,2,5,3,25,0002-00-0002-71.png,0001-00-0002-03.png
14,40,1,1444926311287,1444926311929,495,376,0,0,0,5,1,4,51,0001-00-0006-37.png,0004-00-0005-76.png
14,41,1,1444926313008,1444926313532,896,382,0,0,0,5,1,4,51,0001-00-0006-41.png,0004-00-0007-63.png
14,42,0,1444926314517,1444926314937,316,413,0,0,0,1,2,1,12,0004-00-0009-58.png,0002-00-0001-92.png
14,43,1,1444926315981,1444926316483,901,398,0,0,0,1,2,1,12,0004-00-0009-03.png,0002-00-0001-74.png
14,44,1,1444926317530,1444926318033,336,371,0,0,0,3,2,1,32,0003-00-0006-31.png,0002-00-0009-31.png
14,45,0,1444926319100,1444926319586,292,416,0,0,0,3,5,2,35,0003-00-0001-48.png,0001-00-0008-31.png
14,46,1,1444926320571,1444926321085,925,387,0,0,0,3,5,2,35,0003-00-0003-08.png,0001-00-0002-35.png
14,47,1,1444926322163,1444926322665,901,383,0,0,0,1,3,2,13,0004-00-0008-37.png,0003-00-0008-13.png
14,48,1,1444926323684,1444926324135,325,448,0,0,0,5,2,3,52,0001-00-0006-44.png,0002-00-0007-38.png
14,49,0,1444926325205,1444926325650,918,391,0,0,0,5,2,3,52,0001-00-0000-07.png,0002-00-0002-81.png
14,50,1,1444926326695,1444926327119,314,445,0,0,0,3,1,2,31,0003-00-0009-85.png,0004-00-0003-52.png
14,51,0,1444926328082,1444926328541,295,451,0,0,0,1,2,1,12,0004-00-0006-08.png,0002-00-0008-86.png
14,52,0,1444926329556,1444926330040,310,410,0,0,0,5,3,2,53,0001-00-0007-86.png,0003-00-0003-70.png
14,53,1,1444926331038,1444926331536,862,365,0,0,0,4,2,2,42,0005-00-0001-63.png,0002-00-0003-31.png
14,54,1,1444926332617,1444926333055,325,423,0,0,0,1,5,4,15,0004-00-0000-62.png,0001-00-0001-95.png
14,55,0,1444926334112,1444926334603,903,425,0,0,0,3,4,1,34,0003-00-0003-40.png,0005-00-0008-87.png
14,56,0,1444926335622,1444926336157,886,416,0,0,0,3,5,2,35,0003-00-0001-79.png,0001-00-0000-73.png
14,57,1,1444926337214,1444926337716,863,473,0,0,0,4,3,1,43,0005-00-0005-24.png,0003-00-0002-21.png
14,58,1,1444926338829,1444926339265,342,406,0,0,0,2,3,1,23,0002-00-0006-13.png,0003-00-0002-42.png
14,59,1,1444926340342,1444926340766,376,422,0,0,0,1,5,4,15,0004-00-0005-77.png,0001-00-0001-64.png
14,60,0,1444926341824,1444926342358,888,423,0,0,0,4,5,1,45,0005-00-0007-16.png,0001-00-0008-92.png
14,61,1,1444926345241,1444926345655,879,479,0,0,0,2,1,1,21,0002-00-0002-06.png,0004-00-0008-41.png
14,62,1,1444926346585,1444926347070,926,344,0,0,0,5,2,3,52,0001-00-0000-16.png,0002-00-0006-93.png
14,63,0,1444926350081,1444926350117,521,414,0,0,0,3,4,1,34,0003-00-0009-59.png,0005-00-0001-31.png
14,64,1,1444926353024,1444926353447,901,475,0,0,0,3,1,2,31,0003-00-0008-10.png,0004-00-0001-81.png
14,65,1,1444926354426,1444926354909,861,501,0,0,0,2,1,1,21,0002-00-0004-00.png,0004-00-0005-71.png
14,66,1,1444926355887,1444926356300,350,422,0,0,0,1,3,2,13,0004-00-0003-45.png,0003-00-0009-46.png
14,67,0,1444926357366,1444926357859,919,382,0,0,0,3,5,2,35,0003-00-0006-13.png,0001-00-0006-12.png
14,68,1,1444926358974,1444926359389,312,424,0,0,0,3,1,2,31,0003-00-0004-00.png,0004-00-0004-97.png
14,69,1,1444926360480,1444926360967,922,379,0,0,0,1,2,1,12,0004-00-0005-17.png,0002-00-0000-17.png
14,70,1,1444926362058,1444926362555,919,351,0,0,0,1,2,1,12,0004-00-0000-26.png,0002-00-0001-66.png
14,71,1,1444926363640,1444926364215,408,375,0,0,0,3,2,1,32,0003-00-0005-84.png,0002-00-0000-73.png
14,72,1,1444926365280,1444926365713,325,423,0,0,0,3,1,2,31,0003-00-0000-99.png,0004-00-0005-51.png
14,73,1,1444926366748,1444926367225,332,446,0,0,0,3,2,1,32,0003-00-0007-59.png,0002-00-0003-20.png
14,74,1,1444926368283,1444926368789,402,418,0,0,0,2,4,2,24,0002-00-0002-17.png,0005-00-0004-71.png
14,75,1,1444926369804,1444926370279,350,423,0,0,0,3,4,1,34,0003-00-0008-42.png,0005-00-0009-44.png
14,76,1,1444926371455,1444926371896,350,529,0,0,0,4,3,1,43,0005-00-0007-63.png,0003-00-0004-45.png
14,77,1,1444926374980,1444926375408,940,423,0,0,0,5,4,1,54,0001-00-0000-52.png,0005-00-0002-95.png
14,78,1,1444926376428,1444926376898,882,488,0,0,0,3,1,2,31,0003-00-0005-76.png,0004-00-0007-04.png
14,79,1,1444926377994,1444926378582,900,371,0,0,0,2,5,3,25,0002-00-0007-76.png,0001-00-0009-48.png
14,80,1,1444926379589,1444926380068,413,557,0,0,0,1,3,2,13,0004-00-0001-14.png,0003-00-0004-95.png
14,81,1,1444926381252,1444926381718,301,400,0,0,0,4,2,2,42,0005-00-0002-38.png,0002-00-0001-89.png
14,82,0,1444926382862,1444926383360,922,381,0,0,0,2,4,2,24,0002-00-0006-66.png,0005-00-0007-89.png
14,83,1,1444926384483,1444926384975,884,461,0,0,0,3,2,1,32,0003-00-0002-45.png,0002-00-0009-92.png
14,84,0,1444926386073,1444926386548,350,448,0,0,0,4,5,1,45,0005-00-0006-82.png,0001-00-0008-01.png
14,85,0,1444926389471,1444926389920,376,437,0,0,0,4,5,1,45,0005-00-0002-94.png,0001-00-0000-92.png
14,86,1,1444926390892,1444926391375,929,410,0,0,0,2,3,1,23,0002-00-0002-13.png,0003-00-0000-24.png
14,87,0,1444926392404,1444926392875,346,413,0,0,0,5,4,1,54,0001-00-0001-00.png,0005-00-0004-44.png
14,88,1,1444926393876,1444926394309,350,410,0,0,0,3,4,1,34,0003-00-0008-40.png,0005-00-0002-45.png
14,89,1,1444926395416,1444926395907,290,444,0,0,0,3,5,2,35,0003-00-0009-35.png,0001-00-0004-34.png
14,90,1,1444926396968,1444926397471,870,471,0,0,0,2,4,2,24,0002-00-0004-69.png,0005-00-0003-70.png
14,91,1,1444926398568,1444926399131,873,482,0,0,0,1,5,4,15,0004-00-0001-20.png,0001-00-0008-79.png
14,92,1,1444926402153,1444926402610,922,393,0,0,0,2,3,1,23,0002-00-0001-12.png,0003-00-0008-74.png
14,93,1,1444926403617,1444926404051,311,398,0,0,0,1,4,3,14,0004-00-0000-00.png,0005-00-0007-57.png
14,94,0,1444926405087,1444926405594,926,371,0,0,0,5,3,2,53,0001-00-0006-25.png,0003-00-0006-87.png
14,95,1,1444926406618,1444926407101,944,384,0,0,0,4,1,3,41,0005-00-0008-18.png,0004-00-0007-12.png
14,96,1,1444926408188,1444926408651,306,394,0,0,0,4,3,1,43,0005-00-0008-94.png,0003-00-0007-98.png
14,97,1,1444926409758,1444926410311,860,482,0,0,0,5,4,1,54,0001-00-0000-61.png,0005-00-0009-46.png
14,98,1,1444926413297,1444926413727,947,419,0,0,0,3,1,2,31,0003-00-0008-27.png,0004-00-0002-17.png
14,99,1,1444926414724,1444926415169,331,393,0,0,0,4,1,3,41,0005-00-0008-43.png,0004-00-0001-68.png
14,100,0,1444926416231,1444926416743,332,431,0,0,0,4,3,1,43,0005-00-0002-25.png,0003-00-0000-48.png
14,101,1,1444926420156,1444926420619,379,400,0,0,0,5,4,1,54,0001-00-0000-13.png,0005-00-0008-07.png
14,102,0,1444926421657,1444926422135,901,383,0,0,0,2,1,1,21,0002-00-0001-48.png,0004-00-0001-31.png
14,103,0,1444926423156,1444926423632,874,385,0,0,0,3,5,2,35,0003-00-0004-79.png,0001-00-0003-01.png
14,104,1,1444926424708,1444926425168,367,402,0,0,0,1,3,2,13,0004-00-0003-32.png,0003-00-0006-57.png
14,105,1,1444926426268,1444926426747,903,390,0,0,0,3,2,1,32,0003-00-0005-45.png,0002-00-0002-24.png
14,106,1,1444926427847,1444926428370,897,461,0,0,0,3,2,1,32,0003-00-0005-44.png,0002-00-0005-79.png
14,107,0,1444926429489,1444926429941,343,442,0,0,0,3,1,2,31,0003-00-0008-08.png,0004-00-0006-38.png
14,108,1,1444926432779,1444926433222,385,405,0,0,0,3,4,1,34,0003-00-0003-90.png,0005-00-0006-47.png
14,109,0,1444926434250,1444926434663,357,514,0,0,0,2,1,1,21,0002-00-0008-36.png,0004-00-0009-69.png
14,110,1,1444926435751,1444926436243,877,467,0,0,0,4,1,3,41,0005-00-0006-85.png,0004-00-0007-40.png
14,111,0,1444926439145,1444926439603,939,397,0,0,0,3,4,1,34,0003-00-0007-23.png,0005-00-0004-57.png
14,112,1,1444926442787,1444926443282,922,367,0,0,0,5,2,3,52,0001-00-0000-02.png,0002-00-0003-23.png
14,113,1,1444926444278,1444926445175,311,433,0,0,0,5,1,4,51,0001-00-0006-33.png,0004-00-0005-33.png
14,114,0,1444926446116,1444926446598,350,501,0,0,0,3,5,2,35,0003-00-0009-13.png,0001-00-0000-47.png
14,115,1,1444926447648,1444926448288,391,309,0,0,0,1,4,3,14,0004-00-0005-21.png,0005-00-0002-53.png
14,116,0,1444926451286,1444926451741,273,370,0,0,0,5,4,1,54,0001-00-0008-75.png,0005-00-0001-08.png
14,117,1,1444926452753,1444926453258,915,390,0,0,0,1,5,4,15,0004-00-0009-45.png,0001-00-0001-92.png
14,118,1,1444926454406,1444926454892,913,371,0,0,0,1,2,1,12,0004-00-0002-13.png,0002-00-0004-63.png
14,119,1,1444926455888,1444926456375,907,393,0,0,0,5,1,4,51,0001-00-0003-68.png,0004-00-0002-35.png
14,120,1,1444926459343,1444926459790,919,484,0,0,0,4,1,3,41,0005-00-0003-35.png,0004-00-0006-17.png
14,121,1,1444926460738,1444926461139,325,436,0,0,0,1,3,2,13,0004-00-0001-52.png,0003-00-0005-63.png
14,122,0,1444926462108,1444926462585,949,378,0,0,0,1,2,1,12,0004-00-0005-44.png,0002-00-0007-37.png
14,123,0,1444926463565,1444926464053,896,459,0,0,0,2,1,1,21,0002-00-0009-16.png,0004-00-0004-44.png
14,124,1,1444926465060,1444926465646,900,404,0,0,0,2,4,2,24,0002-00-0008-40.png,0005-00-0004-94.png
14,125,1,1444926468967,1444926469398,875,382,0,0,0,4,2,2,42,0005-00-0001-62.png,0002-00-0001-61.png
14,126,1,1444926472525,1444926473017,325,397,0,0,0,2,4,2,24,0002-00-0009-36.png,0005-00-0000-70.png
14,127,0,1444926473981,1444926474440,881,494,0,0,0,4,3,1,43,0005-00-0004-17.png,0003-00-0000-62.png
14,128,1,1444926475446,1444926475934,900,410,0,0,0,4,2,2,42,0005-00-0002-24.png,0002-00-0004-84.png
14,129,0,1444926476916,1444926477372,289,397,0,0,0,5,2,3,52,0001-00-0000-44.png,0002-00-0008-15.png
14,130,0,1444926478508,1444926479020,899,463,0,0,0,2,1,1,21,0002-00-0001-82.png,0004-00-0009-42.png
14,131,1,1444926480187,1444926480662,302,416,0,0,0,2,3,1,23,0002-00-0009-42.png,0003-00-0005-07.png
14,132,1,1444926481690,1444926482245,314,404,0,0,0,4,2,2,42,0005-00-0005-14.png,0002-00-0000-26.png
14,133,0,1444926483349,1444926483756,317,375,0,0,0,5,3,2,53,0001-00-0008-69.png,0003-00-0001-31.png
14,134,1,1444926484820,1444926485321,905,401,0,0,0,2,4,2,24,0002-00-0007-48.png,0005-00-0008-08.png
14,135,0,1444926486390,1444926486907,857,501,0,0,0,5,3,2,53,0001-00-0008-76.png,0003-00-0005-61.png
14,136,0,1444926488030,1444926488694,409,367,0,0,0,5,3,2,53,0001-00-0000-85.png,0003-00-0009-03.png
14,137,0,1444926491776,1444926492281,901,384,0,0,0,4,2,2,42,0005-00-0000-08.png,0002-00-0004-59.png
14,138,1,1444926493248,1444926493711,307,431,0,0,0,3,1,2,31,0003-00-0004-26.png,0004-00-0008-13.png
14,139,1,1444926494747,1444926495182,334,414,0,0,0,4,5,1,45,0005-00-0005-36.png,0001-00-0003-80.png
14,140,1,1444926496338,1444926496845,925,386,0,0,0,4,1,3,41,0005-00-0001-51.png,0004-00-0005-89.png
14,141,0,1444926498164,1444926498604,337,398,0,0,0,1,4,3,14,0004-00-0008-49.png,0005-00-0006-96.png
14,142,1,1444926499708,1444926500215,888,489,0,0,0,2,3,1,23,0002-00-0000-10.png,0003-00-0007-58.png
14,143,1,1444926501328,1444926501856,376,436,0,0,0,2,4,2,24,0002-00-0005-23.png,0005-00-0007-97.png
14,144,0,1444926509455,1444926509801,977,397,0,0,0,5,1,4,51,0001-00-0009-71.png,0004-00-0007-12.png
14,145,0,1444926510777,1444926511246,929,390,0,0,0,2,5,3,25,0002-00-0001-39.png,0001-00-0006-97.png
14,146,1,1444926512258,1444926512730,876,459,0,0,0,1,5,4,15,0004-00-0001-38.png,0001-00-0006-63.png
14,147,1,1444926513730,1444926514150,368,427,0,0,0,1,4,3,14,0004-00-0009-89.png,0005-00-0001-42.png
14,148,0,1444926515290,1444926515749,264,396,0,0,0,3,5,2,35,0003-00-0001-93.png,0001-00-0009-78.png
14,149,1,1444926518816,1444926519263,362,398,0,0,0,2,5,3,25,0002-00-0004-36.png,0001-00-0003-71.png
14,150,1,1444926520360,1444926520885,351,368,0,0,0,2,5,3,25,0002-00-0000-31.png,0001-00-0001-11.png
14,151,1,1444926521851,1444926522324,911,396,0,0,0,4,2,2,42,0005-00-0000-95.png,0002-00-0004-89.png
14,152,1,1444926525478,1444926525894,938,423,0,0,0,5,3,2,53,0001-00-0008-62.png,0003-00-0002-14.png
14,153,1,1444926526870,1444926527362,885,385,0,0,0,5,1,4,51,0001-00-0002-67.png,0004-00-0000-18.png
14,154,1,1444926530925,1444926531391,307,467,0,0,0,5,2,3,52,0001-00-0003-37.png,0002-00-0006-79.png
14,155,0,1444926532355,1444926532858,928,389,0,0,0,4,5,1,45,0005-00-0003-99.png,0001-00-0007-29.png
14,156,0,1444926533932,1444926534481,875,462,0,0,0,5,4,1,54,0001-00-0003-45.png,0005-00-0007-94.png
14,157,1,1444926535449,1444926535905,401,424,0,0,0,5,3,2,53,0001-00-0004-44.png,0003-00-0002-01.png
14,158,1,1444926536898,1444926537424,955,401,0,0,0,3,4,1,34,0003-00-0003-56.png,0005-00-0002-39.png
14,159,1,1444926538431,1444926538887,903,403,0,0,0,5,3,2,53,0001-00-0003-99.png,0003-00-0006-81.png
14,160,1,1444926539851,1444926540342,350,440,0,0,0,1,5,4,15,0004-00-0006-30.png,0001-00-0007-45.png
14,161,0,1444926541401,1444926541875,925,410,0,0,0,2,1,1,21,0002-00-0000-34.png,0004-00-0001-05.png
14,162,1,1444926543329,1444926543755,337,446,0,0,0,5,2,3,52,0001-00-0009-12.png,0002-00-0004-27.png
14,163,1,1444926544842,1444926545293,382,427,0,0,0,1,5,4,15,0004-00-0009-68.png,0001-00-0005-04.png
14,164,0,1444926546299,1444926546746,325,437,0,0,0,2,4,2,24,0002-00-0000-84.png,0005-00-0004-37.png
14,165,1,1444926547753,1444926548263,921,394,0,0,0,3,1,2,31,0003-00-0007-17.png,0004-00-0001-89.png
14,166,0,1444926549284,1444926549804,894,425,0,0,0,5,4,1,54,0001-00-0006-91.png,0005-00-0002-09.png
14,167,0,1444926550876,1444926551341,401,448,0,0,0,3,4,1,34,0003-00-0007-27.png,0005-00-0006-59.png
14,168,1,1444926552415,1444926552929,887,424,0,0,0,5,2,3,52,0001-00-0000-59.png,0002-00-0002-03.png
14,169,1,1444926554063,1444926554517,305,437,0,0,0,1,4,3,14,0004-00-0003-40.png,0005-00-0001-76.png
14,170,0,1444926555744,1444926556164,382,420,0,0,0,3,1,2,31,0003-00-0009-19.png,0004-00-0004-74.png
14,171,1,1444926557227,1444926557629,355,413,0,0,0,1,4,3,14,0004-00-0007-16.png,0005-00-0008-62.png
14,172,1,1444926558788,1444926559230,376,450,0,0,0,2,3,1,23,0002-00-0009-57.png,0003-00-0007-65.png
14,173,0,1444926560328,1444926560906,888,414,0,0,0,1,3,2,13,0004-00-0002-29.png,0003-00-0008-15.png
14,174,1,1444926561904,1444926562400,882,501,0,0,0,2,4,2,24,0002-00-0008-98.png,0005-00-0000-06.png
14,175,1,1444926563578,1444926564070,906,427,0,0,0,2,3,1,23,0002-00-0006-10.png,0003-00-0003-03.png
14,176,1,1444926565089,1444926565603,915,397,0,0,0,3,5,2,35,0003-00-0008-54.png,0001-00-0006-32.png
14,177,1,1444926566789,1444926567299,926,410,0,0,0,1,5,4,15,0004-00-0004-96.png,0001-00-0005-38.png
14,178,1,1444926568350,1444926568838,895,498,0,0,0,4,5,1,45,0005-00-0006-81.png,0001-00-0003-83.png
14,179,1,1444926569951,1444926570501,373,445,0,0,0,2,5,3,25,0002-00-0008-69.png,0001-00-0009-48.png
14,180,1,1444926574821,1444926575286,298,449,0,0,0,1,4,3,14,0004-00-0006-25.png,0005-00-0001-72.png
14,181,0,1444926576301,1444926576765,352,458,0,0,0,5,1,4,51,0001-00-0008-43.png,0004-00-0006-09.png
14,182,0,1444926577831,1444926578314,905,402,0,0,0,1,4,3,14,0004-00-0002-48.png,0005-00-0006-20.png
14,183,1,1444926579320,1444926579811,420,442,0,0,0,4,1,3,41,0005-00-0004-24.png,0004-00-0007-33.png
14,184,0,1444926580794,1444926581391,305,366,0,0,0,5,1,4,51,0001-00-0001-29.png,0004-00-0001-68.png
14,185,1,1444926582454,1444926583503,931,377,0,0,0,5,4,1,54,0001-00-0000-37.png,0005-00-0002-48.png
14,186,0,1444926586459,1444926586985,950,404,0,0,0,1,2,1,12,0004-00-0004-62.png,0002-00-0003-09.png
14,187,1,1444926587961,1444926588409,924,388,0,0,0,1,5,4,15,0004-00-0005-43.png,0001-00-0002-96.png
14,188,1,1444926589463,1444926589945,902,520,0,0,0,1,4,3,14,0004-00-0003-23.png,0005-00-0006-89.png
14,189,0,1444926591133,1444926591648,366,414,0,0,0,1,3,2,13,0004-00-0008-39.png,0003-00-0004-70.png
14,190,1,1444926592722,1444926593177,321,467,0,0,0,3,2,1,32,0003-00-0000-50.png,0002-00-0001-72.png
14,191,0,1444926594263,1444926594732,295,408,0,0,0,2,3,1,23,0002-00-0004-02.png,0003-00-0002-23.png
14,192,1,1444926595843,1444926596344,901,408,0,0,0,3,2,1,32,0003-00-0000-82.png,0002-00-0000-50.png
14,193,1,1444926597353,1444926597859,874,482,0,0,0,4,2,2,42,0005-00-0005-91.png,0002-00-0000-23.png
14,194,1,1444926599123,1444926599586,869,342,0,0,0,1,4,3,14,0004-00-0003-13.png,0005-00-0006-87.png
14,195,1,1444926600696,1444926601306,377,385,0,0,0,3,2,1,32,0003-00-0003-22.png,0002-00-0009-30.png
14,196,0,1444926602354,1444926602798,350,384,0,0,0,4,5,1,45,0005-00-0000-73.png,0001-00-0006-53.png
14,197,1,1444926603924,1444926604404,927,411,0,0,0,2,3,1,23,0002-00-0004-40.png,0003-00-0005-18.png
14,198,1,1444926605585,1444926606144,862,423,0,0,0,1,3,2,13,0004-00-0008-27.png,0003-00-0003-53.png
14,199,1,1444926607255,1444926607873,924,457,0,0,0,2,5,3,25,0002-00-0005-83.png,0001-00-0006-17.png
14,200,1,1444926610861,1444926611407,336,345,0,0,0,4,2,2,42,0005-00-0009-93.png,0002-00-0002-46.png
14,201,1,1444926612501,1444926613484,931,393,0,0,0,5,1,4,51,0001-00-0008-92.png,0004-00-0004-47.png
14,202,1,1444926614468,1444926614971,905,401,0,0,0,2,3,1,23,0002-00-0006-26.png,0003-00-0005-18.png
14,203,0,1444926616081,1444926616680,878,480,0,0,0,5,4,1,54,0001-00-0008-72.png,0005-00-0007-36.png
14,204,0,1444926617820,1444926618341,376,384,0,0,0,5,4,1,54,0001-00-0009-57.png,0005-00-0007-22.png
14,205,1,1444926619531,1444926620083,880,454,0,0,0,1,2,1,12,0004-00-0008-27.png,0002-00-0002-94.png
14,206,1,1444926623077,1444926623513,292,400,0,0,0,5,3,2,53,0001-00-0003-32.png,0003-00-0005-66.png
14,207,1,1444926624490,1444926625004,318,436,0,0,0,5,1,4,51,0001-00-0000-47.png,0004-00-0009-72.png
14,208,1,1444926626032,1444926626505,926,409,0,0,0,2,1,1,21,0002-00-0007-22.png,0004-00-0006-32.png
14,209,0,1444926627531,1444926628038,937,424,0,0,0,5,1,4,51,0001-00-0007-11.png,0004-00-0001-06.png
14,210,1,1444926629173,1444926629726,870,524,0,0,0,4,2,2,42,0005-00-0006-43.png,0002-00-0006-38.png
14,211,0,1444926632799,1444926633247,900,438,0,0,0,4,5,1,45,0005-00-0007-41.png,0001-00-0005-73.png
14,212,1,1444926634289,1444926634808,334,464,0,0,0,4,5,1,45,0005-00-0001-19.png,0001-00-0000-78.png
14,213,1,1444926635932,1444926636518,940,388,0,0,0,1,3,2,13,0004-00-0007-22.png,0003-00-0004-59.png
14,214,0,1444926637543,1444926638085,375,455,0,0,0,4,1,3,41,0005-00-0001-29.png,0004-00-0006-14.png
14,215,0,1444926639192,1444926639738,413,563,0,0,0,4,5,1,45,0005-00-0005-95.png,0001-00-0006-59.png
14,216,0,1444926640973,1444926641455,927,435,0,0,0,5,3,2,53,0001-00-0009-48.png,0003-00-0009-72.png
14,217,1,1444926642552,1444926643100,900,410,0,0,0,2,4,2,24,0002-00-0008-23.png,0005-00-0009-88.png
14,218,1,1444926644113,1444926644634,350,371,0,0,0,4,3,1,43,0005-00-0001-24.png,0003-00-0009-70.png
14,219,1,1444926647550,1444926648052,272,446,0,0,0,4,1,3,41,0005-00-0007-53.png,0004-00-0008-90.png
14,220,1,1444926649050,1444926649536,901,435,0,0,0,1,5,4,15,0004-00-0002-97.png,0001-00-0002-65.png
14,221,1,1444926650671,1444926651182,902,439,0,0,0,2,5,3,25,0002-00-0009-06.png,0001-00-0002-19.png
14,222,1,1444926654230,1444926654683,376,409,0,0,0,4,1,3,41,0005-00-0009-01.png,0004-00-0006-11.png
14,223,1,1444926655702,1444926656200,893,483,0,0,0,3,2,1,32,0003-00-0009-64.png,0002-00-0003-85.png
14,224,1,1444926657162,1444926657594,314,418,0,0,0,4,1,3,41,0005-00-0008-65.png,0004-00-0007-95.png
14,225,0,1444926659183,1444926659619,273,423,0,0,0,5,3,2,53,0001-00-0009-48.png,0003-00-0002-68.png
14,226,1,1444926660899,1444926661355,899,424,0,0,0,2,3,1,23,0002-00-0001-60.png,0003-00-0003-22.png
14,227,0,1444926662430,1444926662904,888,501,0,0,0,1,5,4,15,0004-00-0004-78.png,0001-00-0006-99.png
14,228,1,1444926664030,1444926664474,309,402,0,0,0,1,4,3,14,0004-00-0007-86.png,0005-00-0007-31.png
14,229,1,1444926665581,1444926666118,329,393,0,0,0,5,1,4,51,0001-00-0001-77.png,0004-00-0004-38.png
14,230,1,1444926667190,1444926667612,401,423,0,0,0,2,4,2,24,0002-00-0001-69.png,0005-00-0003-63.png
14,231,1,1444926668741,1444926669232,886,502,0,0,0,4,1,3,41,0005-00-0006-75.png,0004-00-0003-43.png
14,232,1,1444926670310,1444926670836,858,408,0,0,0,2,5,3,25,0002-00-0000-53.png,0001-00-0006-41.png
14,233,0,1444926671859,1444926672422,913,371,0,0,0,3,5,2,35,0003-00-0004-15.png,0001-00-0007-41.png
14,234,0,1444926673443,1444926673910,862,358,0,0,0,4,3,1,43,0005-00-0005-07.png,0003-00-0009-00.png
14,235,1,1444926675169,1444926675616,904,415,0,0,0,1,3,2,13,0004-00-0002-93.png,0003-00-0008-85.png
14,236,0,1444926676729,1444926677169,363,410,0,0,0,5,1,4,51,0001-00-0007-91.png,0004-00-0002-71.png
14,237,0,1444926678273,1444926678698,301,428,0,0,0,4,3,1,43,0005-00-0008-26.png,0003-00-0007-73.png
14,238,0,1444926679903,1444926680328,361,410,0,0,0,3,5,2,35,0003-00-0009-38.png,0001-00-0008-25.png
14,239,1,1444926681454,1444926681846,381,421,0,0,0,3,2,1,32,0003-00-0002-73.png,0002-00-0002-47.png
14,240,1,1444926683004,1444926683518,878,492,0,0,0,2,5,3,25,0002-00-0009-98.png,0001-00-0000-74.png
14,241,1,1444926684661,1444926685209,341,402,0,0,0,4,3,1,43,0005-00-0003-22.png,0003-00-0009-88.png
14,242,1,1444926686316,1444926686859,873,540,0,0,0,3,1,2,31,0003-00-0008-78.png,0004-00-0001-20.png
14,243,1,1444926687963,1444926688442,913,424,0,0,0,1,3,2,13,0004-00-0006-99.png,0003-00-0005-34.png
14,244,1,1444926689785,1444926690202,376,423,0,0,0,4,5,1,45,0005-00-0006-34.png,0001-00-0004-98.png
14,245,1,1444926691473,1444926691956,875,384,0,0,0,3,5,2,35,0003-00-0002-42.png,0001-00-0002-46.png
14,246,0,1444926694811,1444926695257,348,438,0,0,0,3,4,1,34,0003-00-0009-87.png,0005-00-0003-47.png
14,247,1,1444926698291,1444926698754,926,391,0,0,0,5,1,4,51,0001-00-0009-58.png,0004-00-0006-85.png
14,248,0,1444926699833,1444926700327,299,436,0,0,0,3,4,1,34,0003-00-0008-89.png,0005-00-0000-17.png
14,249,1,1444926701333,1444926701840,899,413,0,0,0,1,3,2,13,0004-00-0001-72.png,0003-00-0001-54.png
14,250,1,1444926702871,1444926703307,376,398,0,0,0,1,3,2,13,0004-00-0002-67.png,0003-00-0007-74.png
14,251,0,1444926704625,1444926705114,925,412,0,0,0,5,4,1,54,0001-00-0004-77.png,0005-00-0004-74.png
14,252,1,1444926706165,1444926706589,342,428,0,0,0,5,2,3,52,0001-00-0008-34.png,0002-00-0007-82.png
14,253,1,1444926707786,1444926708245,387,422,0,0,0,3,5,2,35,0003-00-0003-72.png,0001-00-0001-32.png
14,254,0,1444926709365,1444926709872,901,409,0,0,0,1,2,1,12,0004-00-0000-99.png,0002-00-0007-10.png
14,255,1,1444926710865,1444926711380,906,402,0,0,0,5,2,3,52,0001-00-0003-19.png,0002-00-0000-42.png
14,256,1,1444926712436,1444926712959,390,462,0,0,0,2,1,1,21,0002-00-0008-80.png,0004-00-0003-94.png
14,257,0,1444926714008,1444926714455,337,397,0,0,0,1,2,1,12,0004-00-0007-00.png,0002-00-0007-62.png
14,258,0,1444926715617,1444926716659,949,431,0,0,0,2,1,1,21,0002-00-0002-35.png,0004-00-0003-93.png
14,259,0,1444926719737,1444926720169,955,401,0,0,0,1,2,1,12,0004-00-0002-35.png,0002-00-0002-85.png
14,260,1,1444926721154,1444926721591,407,446,0,0,0,1,3,2,13,0004-00-0002-77.png,0003-00-0002-41.png
14,261,0,1444926722744,1444926723475,951,438,0,0,0,3,4,1,34,0003-00-0003-28.png,0005-00-0008-15.png
14,262,1,1444926724494,1444926725017,924,404,0,0,0,5,4,1,54,0001-00-0008-60.png,0005-00-0009-82.png
14,263,1,1444926726053,1444926726603,917,417,0,0,0,2,3,1,23,0002-00-0006-25.png,0003-00-0002-78.png
14,264,0,1444926727754,1444926728297,375,385,0,0,0,3,5,2,35,0003-00-0004-69.png,0001-00-0009-98.png
14,265,1,1444926729364,1444926729827,360,502,0,0,0,3,4,1,34,0003-00-0008-23.png,0005-00-0001-60.png
14,266,0,1444926730955,1444926731455,926,411,0,0,0,5,3,2,53,0001-00-0003-34.png,0003-00-0006-22.png
14,267,0,1444926732554,1444926733049,366,450,0,0,0,4,5,1,45,0005-00-0000-84.png,0001-00-0008-98.png
14,268,1,1444926734136,1444926734650,862,527,0,0,0,2,3,1,23,0002-00-0003-40.png,0003-00-0005-59.png
14,269,1,1444926737650,1444926738117,301,385,0,0,0,3,4,1,34,0003-00-0007-61.png,0005-00-0001-82.png
14,270,0,1444926739185,1444926739693,920,415,0,0,0,5,3,2,53,0001-00-0002-93.png,0003-00-0003-81.png
14,271,1,1444926740655,1444926741165,938,423,0,0,0,1,5,4,15,0004-00-0006-72.png,0001-00-0008-86.png
14,272,0,1444926742236,1444926743243,905,400,0,0,0,5,3,2,53,0001-00-0009-33.png,0003-00-0003-71.png
14,273,1,1444926744233,1444926744715,926,410,0,0,0,1,3,2,13,0004-00-0003-26.png,0003-00-0000-26.png
14,274,1,1444926745898,1444926746378,928,410,0,0,0,4,2,2,42,0005-00-0002-07.png,0002-00-0001-62.png
14,275,1,1444926747712,1444926748193,376,384,0,0,0,3,5,2,35,0003-00-0002-11.png,0001-00-0005-57.png
14,276,1,1444926749293,1444926749752,345,435,0,0,0,3,1,2,31,0003-00-0007-53.png,0004-00-0009-68.png
14,277,1,1444926750864,1444926751355,933,389,0,0,0,3,1,2,31,0003-00-0003-33.png,0004-00-0000-64.png
14,278,0,1444926752573,1444926753015,350,410,0,0,0,4,5,1,45,0005-00-0009-07.png,0001-00-0000-13.png
14,279,1,1444926754143,1444926754658,920,409,0,0,0,4,5,1,45,0005-00-0001-56.png,0001-00-0001-10.png
14,280,0,1444926755684,1444926756149,340,445,0,0,0,1,2,1,12,0004-00-0007-37.png,0002-00-0005-47.png
14,281,1,1444926757374,1444926757949,362,477,0,0,0,3,4,1,34,0003-00-0001-41.png,0005-00-0005-75.png
14,282,1,1444926759033,1444926759966,318,425,0,0,0,5,4,1,54,0001-00-0003-79.png,0005-00-0005-88.png
14,283,0,1444926763008,1444926763545,909,487,0,0,0,2,3,1,23,0002-00-0000-19.png,0003-00-0000-94.png
14,284,0,1444926764576,1444926765051,919,416,0,0,0,4,3,1,43,0005-00-0006-96.png,0003-00-0000-89.png
14,285,1,1444926767956,1444926767984,492,439,0,0,0,2,3,1,23,0002-00-0008-53.png,0003-00-0004-52.png
14,286,1,1444926771178,1444926771602,293,421,0,0,0,4,3,1,43,0005-00-0007-04.png,0003-00-0002-72.png
14,287,0,1444926772649,1444926773166,324,387,0,0,0,4,1,3,41,0005-00-0002-35.png,0004-00-0009-63.png
14,288,1,1444926774202,1444926774702,905,427,0,0,0,2,5,3,25,0002-00-0009-72.png,0001-00-0004-13.png
14,289,1,1444926775822,1444926776344,898,431,0,0,0,1,2,1,12,0004-00-0005-70.png,0002-00-0004-80.png
14,290,1,1444926779257,1444926779293,453,410,0,0,0,3,5,2,35,0003-00-0000-33.png,0001-00-0000-68.png
14,291,0,1444926782239,1444926782676,298,397,0,0,0,3,5,2,35,0003-00-0008-36.png,0001-00-0004-00.png
14,292,1,1444926783642,1444926784184,897,509,0,0,0,3,1,2,31,0003-00-0007-98.png,0004-00-0009-94.png
14,293,0,1444926785203,1444926785679,329,409,0,0,0,3,1,2,31,0003-00-0000-36.png,0004-00-0006-67.png
14,294,1,1444926786864,1444926787331,872,481,0,0,0,4,2,2,42,0005-00-0002-91.png,0002-00-0007-14.png
14,295,1,1444926788502,1444926788891,363,404,0,0,0,2,4,2,24,0002-00-0002-86.png,0005-00-0001-55.png
14,296,1,1444926790026,1444926790516,925,410,0,0,0,1,3,2,13,0004-00-0005-36.png,0003-00-0002-46.png
14,297,0,1444926791680,1444926792097,376,423,0,0,0,5,4,1,54,0001-00-0006-07.png,0005-00-0003-89.png
14,298,1,1444926793187,1444926793762,951,412,0,0,0,4,1,3,41,0005-00-0004-63.png,0004-00-0005-25.png
14,299,1,1444926794900,1444926795370,873,490,0,0,0,5,4,1,54,0001-00-0007-58.png,0005-00-0006-95.png
14,300,1,1444926796536,1444926797017,925,412,0,0,0,3,1,2,31,0003-00-0007-70.png,0004-00-0000-37.png
14,301,1,1444926798256,1444926798745,376,423,0,0,0,3,2,1,32,0003-00-0002-77.png,0002-00-0008-81.png
14,302,1,1444926800025,1444926800500,374,387,0,0,0,5,4,1,54,0001-00-0000-20.png,0005-00-0008-04.png
14,303,0,1444926801646,1444926802165,904,387,0,0,0,1,2,1,12,0004-00-0003-08.png,0002-00-0006-88.png
14,304,1,1444926805660,1444926806073,898,402,0,0,0,5,2,3,52,0001-00-0002-43.png,0002-00-0003-86.png
14,305,1,1444926807190,1444926807677,322,431,0,0,0,3,1,2,31,0003-00-0002-81.png,0004-00-0003-60.png
14,306,1,1444926809196,1444926809665,902,410,0,0,0,1,3,2,13,0004-00-0005-30.png,0003-00-0006-84.png
14,307,0,1444926812886,1444926813352,857,487,0,0,0,3,5,2,35,0003-00-0001-92.png,0001-00-0006-97.png
14,308,1,1444926814485,1444926814969,900,423,0,0,0,3,5,2,35,0003-00-0008-02.png,0001-00-0001-61.png
14,309,1,1444926818064,1444926818537,947,471,0,0,0,3,2,1,32,0003-00-0000-04.png,0002-00-0006-09.png
14,310,1,1444926819664,1444926820227,300,404,0,0,0,5,2,3,52,0001-00-0004-29.png,0002-00-0001-28.png
14,311,0,1444926821234,1444926821697,914,397,0,0,0,5,1,4,51,0001-00-0003-36.png,0004-00-0003-68.png
14,312,1,1444926822835,1444926823341,876,493,0,0,0,4,2,2,42,0005-00-0009-32.png,0002-00-0001-27.png
14,313,0,1444926824386,1444926824877,376,436,0,0,0,3,4,1,34,0003-00-0004-14.png,0005-00-0009-07.png
14,314,1,1444926828052,1444926828507,917,417,0,0,0,1,2,1,12,0004-00-0002-93.png,0002-00-0001-87.png
14,315,1,1444926829503,1444926830020,925,411,0,0,0,5,1,4,51,0001-00-0008-33.png,0004-00-0002-47.png
14,316,1,1444926831014,1444926831656,325,437,0,0,0,2,4,2,24,0002-00-0004-97.png,0005-00-0004-17.png
14,317,1,1444926832743,1444926833245,871,506,0,0,0,3,2,1,32,0003-00-0003-89.png,0002-00-0009-62.png
14,318,1,1444926836084,1444926836523,924,405,0,0,0,1,4,3,14,0004-00-0002-96.png,0005-00-0006-75.png
14,319,0,1444926837441,1444926837910,331,421,0,0,0,1,5,4,15,0004-00-0002-67.png,0001-00-0005-68.png
14,320,1,1444926838976,1444926839455,871,471,0,0,0,3,4,1,34,0003-00-0004-48.png,0005-00-0005-38.png
14,321,1,1444926842320,1444926842750,350,398,0,0,0,2,4,2,24,0002-00-0005-55.png,0005-00-0003-39.png
14,322,1,1444926843901,1444926844354,875,476,0,0,0,2,3,1,23,0002-00-0000-19.png,0003-00-0003-54.png
14,323,1,1444926845356,1444926845856,311,414,0,0,0,2,1,1,21,0002-00-0004-69.png,0004-00-0003-16.png
14,324,1,1444926848853,1444926848901,519,462,0,0,0,3,1,2,31,0003-00-0003-53.png,0004-00-0002-19.png
14,325,1,1444926849938,1444926850434,926,398,0,0,0,5,1,4,51,0001-00-0004-18.png,0004-00-0004-16.png
14,326,1,1444926851688,1444926852154,924,403,0,0,0,3,2,1,32,0003-00-0000-41.png,0002-00-0009-78.png
14,327,1,1444926853189,1444926853715,347,413,0,0,0,1,2,1,12,0004-00-0001-67.png,0002-00-0005-93.png
14,328,1,1444926854819,1444926855278,351,415,0,0,0,1,2,1,12,0004-00-0001-46.png,0002-00-0008-09.png
14,329,0,1444926856618,1444926857113,926,409,0,0,0,4,5,1,45,0005-00-0004-36.png,0001-00-0005-00.png
14,330,1,1444926858268,1444926858750,924,387,0,0,0,1,4,3,14,0004-00-0007-33.png,0005-00-0006-50.png
14,331,1,1444926859948,1444926860461,317,419,0,0,0,4,2,2,42,0005-00-0007-09.png,0002-00-0002-47.png
14,332,1,1444926861589,1444926862031,888,501,0,0,0,2,3,1,23,0002-00-0003-11.png,0003-00-0002-07.png
14,333,1,1444926863265,1444926863720,311,420,0,0,0,4,1,3,41,0005-00-0002-28.png,0004-00-0003-05.png
14,334,0,1444926864868,1444926865360,897,506,0,0,0,4,3,1,43,0005-00-0000-38.png,0003-00-0000-87.png
14,335,1,1444926866547,1444926866993,440,436,0,0,0,3,1,2,31,0003-00-0004-10.png,0004-00-0000-64.png
14,336,1,1444926868127,1444926868571,342,409,0,0,0,1,5,4,15,0004-00-0008-28.png,0001-00-0004-01.png
14,337,1,1444926869728,1444926870201,418,442,0,0,0,2,5,3,25,0002-00-0008-21.png,0001-00-0008-41.png
14,338,1,1444926871378,1444926871842,921,419,0,0,0,1,5,4,15,0004-00-0008-44.png,0001-00-0000-10.png
14,339,0,1444926872888,1444926873361,393,546,0,0,0,5,3,2,53,0001-00-0007-15.png,0003-00-0001-90.png
14,340,1,1444926874519,1444926875008,922,430,0,0,0,5,4,1,54,0001-00-0000-30.png,0005-00-0004-11.png
14,341,1,1444926876229,1444926876695,350,423,0,0,0,4,2,2,42,0005-00-0004-93.png,0002-00-0005-28.png
14,342,1,1444926877800,1444926878341,886,398,0,0,0,5,4,1,54,0001-00-0001-06.png,0005-00-0004-15.png
14,343,1,1444926879359,1444926879911,401,541,0,0,0,5,1,4,51,0001-00-0001-37.png,0004-00-0007-58.png
14,344,1,1444926880961,1444926881452,897,406,0,0,0,2,5,3,25,0002-00-0006-74.png,0001-00-0004-55.png
14,345,1,1444926882600,1444926883124,325,449,0,0,0,5,4,1,54,0001-00-0005-68.png,0005-00-0003-66.png
14,346,0,1444926884308,1444926884775,304,422,0,0,0,3,2,1,32,0003-00-0001-50.png,0002-00-0003-09.png
14,347,1,1444926885822,1444926886290,921,446,0,0,0,1,5,4,15,0004-00-0007-19.png,0001-00-0000-01.png
14,348,1,1444926889499,1444926890083,901,424,0,0,0,4,5,1,45,0005-00-0004-12.png,0001-00-0000-19.png
14,349,1,1444926891109,1444926891594,905,418,0,0,0,4,2,2,42,0005-00-0000-20.png,0002-00-0008-80.png
14,350,1,1444926892629,1444926893113,905,427,0,0,0,2,1,1,21,0002-00-0005-09.png,0004-00-0000-60.png
14,351,0,1444926894121,1444926894595,395,416,0,0,0,1,5,4,15,0004-00-0000-27.png,0001-00-0005-54.png
14,352,1,1444926895611,1444926896085,336,458,0,0,0,1,5,4,15,0004-00-0008-33.png,0001-00-0002-58.png
14,353,1,1444926897261,1444926897747,913,398,0,0,0,4,2,2,42,0005-00-0004-95.png,0002-00-0004-29.png
14,354,0,1444926898863,1444926899346,912,424,0,0,0,4,5,1,45,0005-00-0007-36.png,0001-00-0008-31.png
14,355,1,1444926900880,1444926901319,925,463,0,0,0,4,5,1,45,0005-00-0003-34.png,0001-00-0008-13.png
14,356,0,1444926902529,1444926902968,293,462,0,0,0,4,3,1,43,0005-00-0004-11.png,0003-00-0000-76.png
14,357,0,1444926904120,1444926904547,357,547,0,0,0,1,5,4,15,0004-00-0008-89.png,0001-00-0006-54.png
14,358,0,1444926905702,1444926906293,879,454,0,0,0,2,1,1,21,0002-00-0008-14.png,0004-00-0001-23.png
14,359,0,1444926907252,1444926907775,368,471,0,0,0,5,3,2,53,0001-00-0002-57.png,0003-00-0008-15.png
14,360,1,1444926908874,1444926909444,400,437,0,0,0,4,2,2,42,0005-00-0006-70.png,0002-00-0003-75.png
14,361,1,1444926910392,1444926910891,384,445,0,0,0,5,2,3,52,0001-00-0003-27.png,0002-00-0007-12.png
14,362,0,1444926912019,1444926912499,901,435,0,0,0,2,5,3,25,0002-00-0006-27.png,0001-00-0001-77.png
14,363,1,1444926913521,1444926914030,925,436,0,0,0,1,2,1,12,0004-00-0007-97.png,0002-00-0007-49.png
14,364,1,1444926915082,1444926915503,376,423,0,0,0,1,3,2,13,0004-00-0004-62.png,0003-00-0008-84.png
14,365,1,1444926916524,1444926917066,401,432,0,0,0,4,2,2,42,0005-00-0005-10.png,0002-00-0003-88.png
14,366,1,1444926918144,1444926918628,357,400,0,0,0,2,1,1,21,0002-00-0003-58.png,0004-00-0004-90.png
14,367,1,1444926919604,1444926920118,927,424,0,0,0,5,1,4,51,0001-00-0007-26.png,0004-00-0006-93.png
14,368,0,1444926921155,1444926921681,902,434,0,0,0,1,5,4,15,0004-00-0007-14.png,0001-00-0008-98.png
14,369,0,1444926922763,1444926923275,875,410,0,0,0,2,5,3,25,0002-00-0005-79.png,0001-00-0007-05.png
14,370,1,1444926927886,1444926928338,926,476,0,0,0,2,4,2,24,0002-00-0003-87.png,0005-00-0006-12.png
14,371,1,1444926929284,1444926929763,877,495,0,0,0,2,1,1,21,0002-00-0005-58.png,0004-00-0000-86.png
14,372,1,1444926932741,1444926933208,316,454,0,0,0,3,2,1,32,0003-00-0001-45.png,0002-00-0005-64.png
14,373,1,1444926934146,1444926934648,887,481,0,0,0,2,5,3,25,0002-00-0003-53.png,0001-00-0002-70.png
14,374,0,1444926935716,1444926936324,875,475,0,0,0,5,2,3,52,0001-00-0003-45.png,0002-00-0005-75.png
14,375,1,1444926937442,1444926937909,939,398,0,0,0,5,1,4,51,0001-00-0002-33.png,0004-00-0005-41.png
14,376,1,1444926938936,1444926939438,334,432,0,0,0,4,5,1,45,0005-00-0008-14.png,0001-00-0007-32.png
14,377,1,1444926940467,1444926940942,335,436,0,0,0,1,3,2,13,0004-00-0000-12.png,0003-00-0009-98.png
14,378,1,1444926942099,1444926942550,299,436,0,0,0,1,5,4,15,0004-00-0001-23.png,0001-00-0006-77.png
14,379,0,1444926943630,1444926944066,363,424,0,0,0,4,5,1,45,0005-00-0007-83.png,0001-00-0007-39.png
14,380,1,1444926945200,1444926945665,916,429,0,0,0,4,2,2,42,0005-00-0000-85.png,0002-00-0005-73.png
14,381,1,1444926948580,1444926949033,356,409,0,0,0,4,3,1,43,0005-00-0006-68.png,0003-00-0003-44.png
14,382,1,1444926951978,1444926952434,905,454,0,0,0,3,2,1,32,0003-00-0008-40.png,0002-00-0000-01.png
14,383,0,1444926953418,1444926953872,927,423,0,0,0,4,3,1,43,0005-00-0006-63.png,0003-00-0003-73.png
14,384,1,1444926955000,1444926955439,926,423,0,0,0,4,1,3,41,0005-00-0002-59.png,0004-00-0007-11.png
14,385,1,1444926956650,1444926957602,941,423,0,0,0,2,4,2,24,0002-00-0001-44.png,0005-00-0009-27.png
14,386,0,1444926958757,1444926959186,339,428,0,0,0,3,4,1,34,0003-00-0001-16.png,0005-00-0009-47.png
14,387,1,1444926962291,1444926962761,358,419,0,0,0,4,5,1,45,0005-00-0005-09.png,0001-00-0005-82.png
14,388,0,1444926963694,1444926964193,901,410,0,0,0,1,5,4,15,0004-00-0007-85.png,0001-00-0008-72.png
14,389,0,1444926965126,1444926966063,323,398,0,0,0,3,1,2,31,0003-00-0000-51.png,0004-00-0008-96.png
14,390,0,1444926967194,1444926968112,900,384,0,0,0,2,4,2,24,0002-00-0000-18.png,0005-00-0002-32.png
14,391,1,1444926971055,1444926971562,911,415,0,0,0,2,3,1,23,0002-00-0009-27.png,0003-00-0001-46.png
14,392,1,1444926974569,1444926975061,887,450,0,0,0,1,2,1,12,0004-00-0004-12.png,0002-00-0008-46.png
14,393,1,1444926976104,1444926976555,350,506,0,0,0,1,2,1,12,0004-00-0006-23.png,0002-00-0006-25.png
14,394,1,1444926977560,1444926978083,376,439,0,0,0,5,3,2,53,0001-00-0000-02.png,0003-00-0002-17.png
14,395,1,1444926979271,1444926979778,908,410,0,0,0,4,2,2,42,0005-00-0005-88.png,0002-00-0004-07.png
14,396,1,1444926980969,1444926981456,350,384,0,0,0,1,5,4,15,0004-00-0003-56.png,0001-00-0003-40.png
14,397,1,1444926984377,1444926984878,289,431,0,0,0,2,4,2,24,0002-00-0002-36.png,0005-00-0002-37.png
14,398,1,1444926986347,1444926986817,915,438,0,0,0,4,3,1,43,0005-00-0009-67.png,0003-00-0002-35.png
14,399,1,1444926987977,1444926988473,920,441,0,0,0,1,3,2,13,0004-00-0007-01.png,0003-00-0003-33.png
14,400,0,1444926991423,1444926991904,860,508,0,0,0,2,1,1,21,0002-00-0001-01.png,0004-00-0008-50.png
14,401,1,1444926992866,1444926993322,325,402,0,0,0,2,1,1,21,0002-00-0003-31.png,0004-00-0008-26.png
14,402,0,1444926994358,1444926994860,397,416,0,0,0,4,5,1,45,0005-00-0000-60.png,0001-00-0003-55.png
14,403,0,1444926997712,1444926998197,862,475,0,0,0,1,2,1,12,0004-00-0000-63.png,0002-00-0000-06.png
14,404,1,1444926999138,1444926999632,877,493,0,0,0,5,4,1,54,0001-00-0009-70.png,0005-00-0002-17.png
14,405,1,1444927002576,1444927002604,482,402,0,0,0,2,3,1,23,0002-00-0008-21.png,0003-00-0008-04.png
14,406,0,1444927005604,1444927006061,314,398,0,0,0,1,2,1,12,0004-00-0008-28.png,0002-00-0003-26.png
14,407,1,1444927007097,1444927007568,927,397,0,0,0,5,2,3,52,0001-00-0002-33.png,0002-00-0005-95.png
14,408,0,1444927009078,1444927009499,338,436,0,0,0,3,5,2,35,0003-00-0009-66.png,0001-00-0007-75.png
14,409,1,1444927010627,1444927011045,299,436,0,0,0,3,4,1,34,0003-00-0006-94.png,0005-00-0007-12.png
14,410,1,1444927012197,1444927012601,334,437,0,0,0,4,1,3,41,0005-00-0007-11.png,0004-00-0007-11.png
14,411,1,1444927013718,1444927014709,903,390,0,0,0,5,2,3,52,0001-00-0007-98.png,0002-00-0002-51.png
14,412,1,1444927015792,1444927016226,905,402,0,0,0,3,2,1,32,0003-00-0008-67.png,0002-00-0004-02.png
14,413,1,1444927017313,1444927017809,346,453,0,0,0,1,3,2,13,0004-00-0004-27.png,0003-00-0003-63.png
14,414,1,1444927018977,1444927019495,941,413,0,0,0,4,1,3,41,0005-00-0005-23.png,0004-00-0008-62.png
14,415,0,1444927020577,1444927021095,325,450,0,0,0,3,4,1,34,0003-00-0003-85.png,0005-00-0005-47.png
14,416,0,1444927022514,1444927022983,919,442,0,0,0,1,2,1,12,0004-00-0003-79.png,0002-00-0007-53.png
14,417,1,1444927024219,1444927024682,906,427,0,0,0,4,2,2,42,0005-00-0002-18.png,0002-00-0007-70.png
14,418,1,1444927025804,1444927026756,349,387,0,0,0,1,4,3,14,0004-00-0006-02.png,0005-00-0004-81.png
14,419,0,1444927028042,1444927028513,922,420,0,0,0,4,3,1,43,0005-00-0006-68.png,0003-00-0008-44.png
14,420,1,1444927029632,1444927030101,275,443,0,0,0,1,5,4,15,0004-00-0008-43.png,0001-00-0005-74.png
14,421,0,1444927031172,1444927031697,902,416,0,0,0,2,5,3,25,0002-00-0006-40.png,0001-00-0003-75.png
14,422,0,1444927032782,1444927033179,350,398,0,0,0,4,3,1,43,0005-00-0006-52.png,0003-00-0002-27.png
14,423,1,1444927034312,1444927034795,913,437,0,0,0,2,4,2,24,0002-00-0001-25.png,0005-00-0009-89.png
14,424,1,1444927035854,1444927036326,299,423,0,0,0,5,2,3,52,0001-00-0005-67.png,0002-00-0009-11.png
14,425,1,1444927037411,1444927037906,899,516,0,0,0,1,4,3,14,0004-00-0009-55.png,0005-00-0005-13.png
14,426,1,1444927039152,1444927039584,366,536,0,0,0,1,4,3,14,0004-00-0000-99.png,0005-00-0007-34.png
14,427,0,1444927040845,1444927041264,351,457,0,0,0,4,1,3,41,0005-00-0007-19.png,0004-00-0009-97.png
14,428,1,1444927044297,1444927044718,893,426,0,0,0,3,2,1,32,0003-00-0001-72.png,0002-00-0003-61.png
14,429,1,1444927047616,1444927047636,487,444,0,0,0,2,5,3,25,0002-00-0006-49.png,0001-00-0006-31.png
14,430,1,1444927051008,1444927051444,882,484,0,0,0,2,3,1,23,0002-00-0005-07.png,0003-00-0005-38.png
14,431,0,1444927054474,1444927054993,877,520,0,0,0,4,5,1,45,0005-00-0008-54.png,0001-00-0007-07.png
14,432,1,1444927055970,1444927056592,326,352,0,0,0,3,1,2,31,0003-00-0005-43.png,0004-00-0001-74.png
14,433,1,1444927057639,1444927058058,401,449,0,0,0,3,4,1,34,0003-00-0004-79.png,0005-00-0009-91.png
14,434,1,1444927059061,1444927059550,895,419,0,0,0,1,4,3,14,0004-00-0009-44.png,0005-00-0007-35.png
14,435,0,1444927060560,1444927061041,901,411,0,0,0,1,4,3,14,0004-00-0002-35.png,0005-00-0009-96.png
14,436,1,1444927062291,1444927062824,912,411,0,0,0,4,2,2,42,0005-00-0008-57.png,0002-00-0005-28.png
14,437,1,1444927063884,1444927064344,376,410,0,0,0,2,1,1,21,0002-00-0002-63.png,0004-00-0000-37.png
14,438,1,1444927065481,1444927065940,883,500,0,0,0,5,2,3,52,0001-00-0003-88.png,0002-00-0006-27.png
14,439,1,1444927067072,1444927067569,876,519,0,0,0,1,4,3,14,0004-00-0004-14.png,0005-00-0000-75.png
14,440,1,1444927070859,1444927071389,350,384,0,0,0,5,3,2,53,0001-00-0009-68.png,0003-00-0000-63.png
14,441,1,1444927072369,1444927072962,363,371,0,0,0,3,1,2,31,0003-00-0001-28.png,0004-00-0004-28.png
14,442,1,1444927076333,1444927076708,895,498,0,0,0,5,2,3,52,0001-00-0006-79.png,0002-00-0006-42.png
14,443,0,1444927077783,1444927078276,869,513,0,0,0,3,5,2,35,0003-00-0001-68.png,0001-00-0004-09.png
14,444,1,1444927079338,1444927079805,905,427,0,0,0,1,2,1,12,0004-00-0006-56.png,0002-00-0000-85.png
14,445,0,1444927080868,1444927081338,343,468,0,0,0,3,5,2,35,0003-00-0003-33.png,0001-00-0004-98.png
14,446,1,1444927082368,1444927082827,328,444,0,0,0,1,4,3,14,0004-00-0007-99.png,0005-00-0004-44.png
14,447,1,1444927083919,1444927084359,337,430,0,0,0,2,4,2,24,0002-00-0007-65.png,0005-00-0008-03.png
14,448,1,1444927085519,1444927085923,362,445,0,0,0,4,2,2,42,0005-00-0007-93.png,0002-00-0005-34.png
14,449,1,1444927087130,1444927087626,887,424,0,0,0,4,3,1,43,0005-00-0009-74.png,0003-00-0008-47.png
14,450,1,1444927088845,1444927089312,365,422,0,0,0,4,3,1,43,0005-00-0001-73.png,0003-00-0007-17.png
14,451,1,1444927090529,1444927090982,380,537,0,0,0,4,3,1,43,0005-00-0007-44.png,0003-00-0003-50.png
14,452,0,1444927092041,1444927092566,925,411,0,0,0,5,4,1,54,0001-00-0004-32.png,0005-00-0005-20.png
14,453,1,1444927093661,1444927094152,363,465,0,0,0,5,3,2,53,0001-00-0000-64.png,0003-00-0006-58.png
14,454,1,1444927095192,1444927095715,349,451,0,0,0,4,1,3,41,0005-00-0008-04.png,0004-00-0000-27.png
14,455,1,1444927096853,1444927097344,894,403,0,0,0,2,3,1,23,0002-00-0006-70.png,0003-00-0009-38.png
14,456,1,1444927098382,1444927098916,886,424,0,0,0,4,1,3,41,0005-00-0000-87.png,0004-00-0001-29.png
14,457,0,1444927100646,1444927101085,872,534,0,0,0,1,5,4,15,0004-00-0003-54.png,0001-00-0003-16.png
14,458,0,1444927102165,1444927103128,905,433,0,0,0,3,4,1,34,0003-00-0009-15.png,0005-00-0007-88.png
14,459,0,1444927106442,1444927106903,350,384,0,0,0,5,3,2,53,0001-00-0001-42.png,0003-00-0004-09.png
14,460,1,1444927107884,1444927108357,875,508,0,0,0,2,5,3,25,0002-00-0000-42.png,0001-00-0001-19.png
14,461,1,1444927109594,1444927110021,350,449,0,0,0,1,4,3,14,0004-00-0009-65.png,0005-00-0009-31.png
14,462,1,1444927111152,1444927111618,924,420,0,0,0,4,1,3,41,0005-00-0005-02.png,0004-00-0009-33.png
14,463,0,1444927112754,1444927113225,868,484,0,0,0,5,1,4,51,0001-00-0003-43.png,0004-00-0001-93.png
14,464,1,1444927114364,1444927114843,325,454,0,0,0,5,3,2,53,0001-00-0008-55.png,0003-00-0005-28.png
14,465,1,1444927115925,1444927116390,903,390,0,0,0,2,5,3,25,0002-00-0008-26.png,0001-00-0004-35.png
14,466,1,1444927117545,1444927118505,928,414,0,0,0,5,2,3,52,0001-00-0003-50.png,0002-00-0001-34.png
14,467,1,1444927119573,1444927120012,348,405,0,0,0,2,5,3,25,0002-00-0003-45.png,0001-00-0003-60.png
14,468,1,1444927121123,1444927121696,931,388,0,0,0,2,3,1,23,0002-00-0004-89.png,0003-00-0002-14.png
14,469,0,1444927122663,1444927123207,292,367,0,0,0,5,4,1,54,0001-00-0009-20.png,0005-00-0002-66.png
14,470,1,1444927124253,1444927124711,338,442,0,0,0,1,4,3,14,0004-00-0006-59.png,0005-00-0003-31.png
14,471,0,1444927125769,1444927126290,895,420,0,0,0,4,5,1,45,0005-00-0003-97.png,0001-00-0007-15.png
14,472,1,1444927127526,1444927127989,331,427,0,0,0,3,1,2,31,0003-00-0005-41.png,0004-00-0000-83.png
14,473,1,1444927129086,1444927129522,387,528,0,0,0,5,2,3,52,0001-00-0006-84.png,0002-00-0009-54.png
14,474,1,1444927130796,1444927131216,338,436,0,0,0,4,1,3,41,0005-00-0005-86.png,0004-00-0008-32.png
14,475,0,1444927132297,1444927132748,371,425,0,0,0,3,4,1,34,0003-00-0007-90.png,0005-00-0008-68.png
14,476,1,1444927135740,1444927136262,921,394,0,0,0,2,4,2,24,0002-00-0002-09.png,0005-00-0005-61.png
14,477,1,1444927137386,1444927137826,868,533,0,0,0,1,2,1,12,0004-00-0002-01.png,0002-00-0008-21.png
14,478,1,1444927138897,1444927139407,911,451,0,0,0,4,1,3,41,0005-00-0000-46.png,0004-00-0006-60.png
14,479,0,1444927150156,1444927150571,874,527,0,0,0,5,3,2,53,0001-00-0004-44.png,0003-00-0009-73.png
14,480,0,1444927151567,1444927152054,311,448,0,0,0,3,5,2,35,0003-00-0003-89.png,0001-00-0002-03.png
14,481,1,1444927153022,1444927153517,914,423,0,0,0,3,1,2,31,0003-00-0007-57.png,0004-00-0002-43.png
14,482,0,1444927154504,1444927155002,879,428,0,0,0,1,3,2,13,0004-00-0001-70.png,0003-00-0008-88.png
14,483,0,1444927155941,1444927156423,862,527,0,0,0,4,5,1,45,0005-00-0009-15.png,0001-00-0001-03.png
14,484,1,1444927159420,1444927159891,350,410,0,0,0,2,1,1,21,0002-00-0004-23.png,0004-00-0004-74.png
14,485,1,1444927163062,1444927163564,308,430,0,0,0,4,1,3,41,0005-00-0002-62.png,0004-00-0007-05.png
14,486,1,1444927164681,1444927165166,328,466,0,0,0,5,3,2,53,0001-00-0004-23.png,0003-00-0005-79.png
14,487,0,1444927166278,1444927166755,416,561,0,0,0,5,3,2,53,0001-00-0007-02.png,0003-00-0004-73.png
14,488,1,1444927167848,1444927168346,900,437,0,0,0,4,1,3,41,0005-00-0001-97.png,0004-00-0006-44.png
14,489,0,1444927169402,1444927169842,372,443,0,0,0,5,4,1,54,0001-00-0001-80.png,0005-00-0006-31.png
14,490,1,1444927171011,1444927171537,873,515,0,0,0,5,4,1,54,0001-00-0006-54.png,0005-00-0003-38.png
14,491,1,1444927172530,1444927173040,880,479,0,0,0,2,3,1,23,0002-00-0001-15.png,0003-00-0003-04.png
14,492,1,1444927175919,1444927176355,905,454,0,0,0,3,2,1,32,0003-00-0003-48.png,0002-00-0003-71.png
14,493,1,1444927177321,1444927177854,362,433,0,0,0,2,3,1,23,0002-00-0005-24.png,0003-00-0005-30.png
14,494,1,1444927178824,1444927179289,879,400,0,0,0,4,3,1,43,0005-00-0001-93.png,0003-00-0008-53.png
14,495,1,1444927180602,1444927181099,376,476,0,0,0,1,3,2,13,0004-00-0006-71.png,0003-00-0008-01.png
14,496,1,1444927182136,1444927182588,900,449,0,0,0,1,4,3,14,0004-00-0003-13.png,0005-00-0008-30.png
14,497,1,1444927183646,1444927184148,899,425,0,0,0,5,4,1,54,0001-00-0009-46.png,0005-00-0009-52.png
14,498,1,1444927185216,1444927185730,862,526,0,0,0,3,4,1,34,0003-00-0006-69.png,0005-00-0009-34.png
14,499,0,1444927186749,1444927187294,875,487,0,0,0,2,4,2,24,0002-00-0009-61.png,0005-00-0006-10.png
14,500,0,1444927198887,1444927199331,925,529,0,0,0,5,1,4,51,0001-00-0003-74.png,0004-00-0003-98.png
14,501,1,1444927200476,1444927201011,427,462,0,0,0,3,2,1,32,0003-00-0005-79.png,0002-00-0009-76.png
14,502,1,1444927203909,1444927204329,324,406,0,0,0,4,2,2,42,0005-00-0003-80.png,0002-00-0002-43.png
14,503,1,1444927205250,1444927205791,376,436,0,0,0,3,4,1,34,0003-00-0006-27.png,0005-00-0001-99.png
14,504,0,1444927206731,1444927207183,312,420,0,0,0,2,1,1,21,0002-00-0003-51.png,0004-00-0002-10.png
14,505,1,1444927208233,1444927208856,427,371,0,0,0,2,3,1,23,0002-00-0001-64.png,0003-00-0003-63.png
14,506,1,1444927211970,1444927212436,901,435,0,0,0,4,3,1,43,0005-00-0007-92.png,0003-00-0006-01.png
14,507,1,1444927213391,1444927213874,332,455,0,0,0,2,5,3,25,0002-00-0008-04.png,0001-00-0003-34.png
14,508,0,1444927214892,1444927215391,872,506,0,0,0,1,4,3,14,0004-00-0004-75.png,0005-00-0004-61.png
14,509,1,1444927216422,1444927216943,901,450,0,0,0,5,1,4,51,0001-00-0003-50.png,0004-00-0001-79.png
14,510,1,1444927218154,1444927218600,900,423,0,0,0,2,4,2,24,0002-00-0004-82.png,0005-00-0001-66.png
14,511,1,1444927221998,1444927222412,350,384,0,0,0,2,4,2,24,0002-00-0009-71.png,0005-00-0005-45.png
14,512,1,1444927223390,1444927223839,388,512,0,0,0,3,5,2,35,0003-00-0007-95.png,0001-00-0001-06.png
14,513,0,1444927224801,1444927225322,901,436,0,0,0,5,4,1,54,0001-00-0003-34.png,0005-00-0008-70.png
14,514,1,1444927228441,1444927228927,872,453,0,0,0,1,4,3,14,0004-00-0008-14.png,0005-00-0007-25.png
14,515,1,1444927230051,1444927230535,900,412,0,0,0,5,3,2,53,0001-00-0007-53.png,0003-00-0004-03.png
14,516,1,1444927233974,1444927234382,261,423,0,0,0,2,4,2,24,0002-00-0000-19.png,0005-00-0001-79.png
14,517,1,1444927235535,1444927236005,875,488,0,0,0,5,2,3,52,0001-00-0002-09.png,0002-00-0009-86.png
14,518,1,1444927237085,1444927237630,323,443,0,0,0,1,3,2,13,0004-00-0009-22.png,0003-00-0001-79.png
14,519,0,1444927238666,1444927239164,872,431,0,0,0,3,4,1,34,0003-00-0009-13.png,0005-00-0005-55.png
14,520,1,1444927240233,1444927240676,895,420,0,0,0,1,4,3,14,0004-00-0008-47.png,0005-00-0002-55.png
14,521,0,1444927241737,1444927242136,386,444,0,0,0,2,1,1,21,0002-00-0003-13.png,0004-00-0005-34.png
14,522,0,1444927243278,1444927243779,870,516,0,0,0,2,1,1,21,0002-00-0008-61.png,0004-00-0004-65.png
14,523,1,1444927244880,1444927245405,374,437,0,0,0,3,1,2,31,0003-00-0005-49.png,0004-00-0008-25.png
14,524,0,1444927246448,1444927246939,896,446,0,0,0,3,5,2,35,0003-00-0001-16.png,0001-00-0009-75.png
14,525,0,1444927250881,1444927251330,376,422,0,0,0,3,4,1,34,0003-00-0001-74.png,0005-00-0007-33.png
14,526,0,1444927254381,1444927254844,887,424,0,0,0,2,3,1,23,0002-00-0000-96.png,0003-00-0004-06.png
14,527,1,1444927255799,1444927256261,899,516,0,0,0,4,2,2,42,0005-00-0004-60.png,0002-00-0006-72.png
14,528,1,1444927259178,1444927259186,506,413,0,0,0,3,2,1,32,0003-00-0007-63.png,0002-00-0005-19.png
14,529,0,1444927262080,1444927262100,516,422,0,0,0,4,5,1,45,0005-00-0002-00.png,0001-00-0009-79.png
14,530,1,1444927266441,1444927266892,896,465,0,0,0,2,3,1,23,0002-00-0009-21.png,0003-00-0004-68.png
14,531,1,1444927267836,1444927268312,320,427,0,0,0,2,4,2,24,0002-00-0002-82.png,0005-00-0008-12.png
14,532,1,1444927269437,1444927269861,341,454,0,0,0,3,1,2,31,0003-00-0007-41.png,0004-00-0001-78.png
14,533,1,1444927270908,1444927271865,897,444,0,0,0,4,1,3,41,0005-00-0004-81.png,0004-00-0004-45.png
14,534,0,1444927272964,1444927273422,376,514,0,0,0,1,4,3,14,0004-00-0003-70.png,0005-00-0005-35.png
14,535,0,1444927274626,1444927275085,899,423,0,0,0,1,4,3,14,0004-00-0001-66.png,0005-00-0003-70.png
14,536,0,1444927276096,1444927276536,427,462,0,0,0,5,3,2,53,0001-00-0000-81.png,0003-00-0006-15.png
14,537,0,1444927277732,1444927278213,897,430,0,0,0,5,4,1,54,0001-00-0001-34.png,0005-00-0009-71.png
14,538,1,1444927281533,1444927281967,925,437,0,0,0,2,1,1,21,0002-00-0005-10.png,0004-00-0004-53.png
14,539,1,1444927282924,1444927283420,960,416,0,0,0,3,1,2,31,0003-00-0002-65.png,0004-00-0005-88.png
14,540,1,1444927284457,1444927284936,913,424,0,0,0,1,3,2,13,0004-00-0002-75.png,0003-00-0007-57.png
14,541,0,1444927286276,1444927286717,341,418,0,0,0,5,2,3,52,0001-00-0009-93.png,0002-00-0009-74.png
14,542,1,1444927287896,1444927288870,922,445,0,0,0,5,2,3,52,0001-00-0009-27.png,0002-00-0004-94.png
14,543,0,1444927290048,1444927290504,376,421,0,0,0,3,5,2,35,0003-00-0006-43.png,0001-00-0004-75.png
14,544,1,1444927291676,1444927292103,340,443,0,0,0,5,1,4,51,0001-00-0008-23.png,0004-00-0004-21.png
14,545,1,1444927293302,1444927294294,941,425,0,0,0,2,5,3,25,0002-00-0003-40.png,0001-00-0001-53.png
14,546,1,1444927295368,1444927295843,880,427,0,0,0,2,3,1,23,0002-00-0004-12.png,0003-00-0002-55.png
14,547,1,1444927296969,1444927297455,897,433,0,0,0,2,3,1,23,0002-00-0004-36.png,0003-00-0005-98.png
14,548,1,1444927298605,1444927299114,877,410,0,0,0,1,5,4,15,0004-00-0009-20.png,0001-00-0002-55.png
14,549,0,1444927302077,1444927302562,905,427,0,0,0,3,5,2,35,0003-00-0000-93.png,0001-00-0005-12.png
14,550,1,1444927303538,1444927304019,344,453,0,0,0,3,1,2,31,0003-00-0007-83.png,0004-00-0007-30.png
14,551,1,1444927305533,1444927305966,325,424,0,0,0,5,2,3,52,0001-00-0003-47.png,0002-00-0004-10.png
14,552,1,1444927307195,1444927307675,307,445,0,0,0,2,1,1,21,0002-00-0001-83.png,0004-00-0002-32.png
14,553,0,1444927308753,1444927309237,318,462,0,0,0,5,3,2,53,0001-00-0006-27.png,0003-00-0008-39.png
14,554,1,1444927310881,1444927311335,914,423,0,0,0,3,2,1,32,0003-00-0004-16.png,0002-00-0009-10.png
14,555,1,1444927312786,1444927313263,872,508,0,0,0,2,5,3,25,0002-00-0004-66.png,0001-00-0002-58.png
14,556,1,1444927314430,1444927314996,391,422,0,0,0,4,3,1,43,0005-00-0000-94.png,0003-00-0003-89.png
14,557,1,1444927316099,1444927316567,897,430,0,0,0,5,2,3,52,0001-00-0001-10.png,0002-00-0003-23.png
14,558,0,1444927317670,1444927318181,897,429,0,0,0,3,5,2,35,0003-00-0008-15.png,0001-00-0008-85.png
14,559,0,1444927319422,1444927319921,888,437,0,0,0,5,3,2,53,0001-00-0008-59.png,0003-00-0006-89.png
14,560,0,1444927323104,1444927323534,328,426,0,0,0,1,3,2,13,0004-00-0006-48.png,0003-00-0001-52.png
14,561,1,1444927324598,1444927325023,407,546,0,0,0,2,4,2,24,0002-00-0000-71.png,0005-00-0006-82.png
14,562,1,1444927326121,1444927326564,900,423,0,0,0,4,2,2,42,0005-00-0003-15.png,0002-00-0004-64.png
14,563,0,1444927327717,1444927328196,878,443,0,0,0,5,1,4,51,0001-00-0009-52.png,0004-00-0002-19.png
14,564,1,1444927329223,1444927329665,873,517,0,0,0,5,2,3,52,0001-00-0009-13.png,0002-00-0005-02.png
14,565,1,1444927330800,1444927331805,925,360,0,0,0,5,1,4,51,0001-00-0008-60.png,0004-00-0006-85.png
14,566,1,1444927332917,1444927333321,407,435,0,0,0,3,4,1,34,0003-00-0000-42.png,0005-00-0001-84.png
14,567,0,1444927334618,1444927335069,371,539,0,0,0,1,2,1,12,0004-00-0007-42.png,0002-00-0003-59.png
14,568,1,1444927336187,1444927336664,310,436,0,0,0,1,5,4,15,0004-00-0009-24.png,0001-00-0003-02.png
14,569,1,1444927337699,1444927338227,876,435,0,0,0,1,3,2,13,0004-00-0000-90.png,0003-00-0004-16.png
14,570,1,1444927341654,1444927342071,901,424,0,0,0,5,1,4,51,0001-00-0000-34.png,0004-00-0007-01.png
14,571,1,1444927346774,1444927347223,315,411,0,0,0,1,4,3,14,0004-00-0008-72.png,0005-00-0006-48.png
14,572,1,1444927348483,1444927348986,909,413,0,0,0,4,5,1,45,0005-00-0004-20.png,0001-00-0008-36.png
14,573,1,1444927349995,1444927350482,868,482,0,0,0,3,2,1,32,0003-00-0003-42.png,0002-00-0000-35.png
14,574,1,1444927351524,1444927352050,340,427,0,0,0,3,4,1,34,0003-00-0000-97.png,0005-00-0001-74.png
14,575,1,1444927353053,1444927353554,929,413,0,0,0,4,2,2,42,0005-00-0001-27.png,0002-00-0007-14.png
14,576,1,1444927354784,1444927355277,876,436,0,0,0,3,2,1,32,0003-00-0002-41.png,0002-00-0007-92.png
14,577,0,1444927356395,1444927356890,896,419,0,0,0,5,4,1,54,0001-00-0006-84.png,0005-00-0002-16.png
14,578,1,1444927360023,1444927360476,314,425,0,0,0,3,5,2,35,0003-00-0006-85.png,0001-00-0001-37.png
14,579,1,1444927361981,1444927362462,401,453,0,0,0,1,4,3,14,0004-00-0002-14.png,0005-00-0001-87.png
14,580,1,1444927363469,1444927363980,870,394,0,0,0,3,1,2,31,0003-00-0002-74.png,0004-00-0008-38.png
14,581,1,1444927364999,1444927365482,869,525,0,0,0,2,5,3,25,0002-00-0004-51.png,0001-00-0000-01.png
14,582,0,1444927366533,1444927367029,880,523,0,0,0,2,5,3,25,0002-00-0008-77.png,0001-00-0008-62.png
14,583,1,1444927368213,1444927368701,899,517,0,0,0,2,1,1,21,0002-00-0005-34.png,0004-00-0004-54.png
14,584,1,1444927369774,1444927370239,363,530,0,0,0,2,4,2,24,0002-00-0004-33.png,0005-00-0005-38.png
14,585,1,1444927371271,1444927371818,343,473,0,0,0,1,3,2,13,0004-00-0005-75.png,0003-00-0006-83.png
14,586,1,1444927374934,1444927375422,888,449,0,0,0,5,2,3,52,0001-00-0003-36.png,0002-00-0003-75.png
14,587,1,1444927376411,1444927376895,376,424,0,0,0,3,2,1,32,0003-00-0006-26.png,0002-00-0009-56.png
14,588,1,1444927378002,1444927378577,910,466,0,0,0,4,2,2,42,0005-00-0001-15.png,0002-00-0006-57.png
14,589,0,1444927381621,1444927382068,876,440,0,0,0,1,2,1,12,0004-00-0003-33.png,0002-00-0002-08.png
14,590,1,1444927385085,1444927385527,323,421,0,0,0,1,5,4,15,0004-00-0000-83.png,0001-00-0001-94.png
14,591,0,1444927388607,1444927389039,875,527,0,0,0,5,1,4,51,0001-00-0003-48.png,0004-00-0004-69.png
14,592,1,1444927392539,1444927392949,903,389,0,0,0,3,2,1,32,0003-00-0002-02.png,0002-00-0009-13.png
14,593,1,1444927394029,1444927394562,871,497,0,0,0,3,1,2,31,0003-00-0001-99.png,0004-00-0000-04.png
14,594,0,1444927404562,1444927404930,376,410,0,0,0,2,1,1,21,0002-00-0000-14.png,0004-00-0000-20.png
14,595,1,1444927406228,1444927406812,941,512,0,0,0,1,5,4,15,0004-00-0004-57.png,0001-00-0000-03.png
14,596,1,1444927407897,1444927408392,912,424,0,0,0,3,2,1,32,0003-00-0001-06.png,0002-00-0009-48.png
14,597,1,1444927409387,1444927409954,888,416,0,0,0,4,3,1,43,0005-00-0001-54.png,0003-00-0000-80.png
14,598,1,1444927412809,1444927413255,901,514,0,0,0,2,5,3,25,0002-00-0006-86.png,0001-00-0001-38.png
14,599,1,1444927414246,1444927414729,321,420,0,0,0,2,4,2,24,0002-00-0005-80.png,0005-00-0007-79.png
14,600,1,1444927415697,1444927416175,899,423,0,0,0,2,1,1,21,0002-00-0008-85.png,0004-00-0008-70.png
14,601,1,1444927417129,1444927417659,904,415,0,0,0,4,1,3,41,0005-00-0002-45.png,0004-00-0003-32.png
14,602,0,1444927420647,1444927421085,928,414,0,0,0,5,4,1,54,0001-00-0004-77.png,0005-00-0004-48.png
14,603,0,1444927422026,1444927422518,927,409,0,0,0,2,5,3,25,0002-00-0000-60.png,0001-00-0006-35.png
14,604,1,1444927423538,1444927424031,888,449,0,0,0,1,3,2,13,0004-00-0005-27.png,0003-00-0007-62.png
14,605,1,1444927427086,1444927427521,923,419,0,0,0,2,4,2,24,0002-00-0005-83.png,0005-00-0007-49.png
14,606,0,1444927431458,1444927431962,325,426,0,0,0,4,1,3,41,0005-00-0002-28.png,0004-00-0008-47.png
14,607,0,1444927436578,1444927436988,335,439,0,0,0,4,5,1,45,0005-00-0007-16.png,0001-00-0002-25.png
14,608,0,1444927438014,1444927438534,899,488,0,0,0,4,5,1,45,0005-00-0005-48.png,0001-00-0006-14.png
14,609,1,1444927439479,1444927439973,901,423,0,0,0,2,1,1,21,0002-00-0002-73.png,0004-00-0005-63.png
14,610,0,1444927443601,1444927444031,914,449,0,0,0,4,3,1,43,0005-00-0002-34.png,0003-00-0007-82.png
14,611,1,1444927445013,1444927445437,354,434,0,0,0,2,4,2,24,0002-00-0004-98.png,0005-00-0005-50.png
14,612,1,1444927446395,1444927446890,889,480,0,0,0,2,1,1,21,0002-00-0001-65.png,0004-00-0009-94.png
14,613,1,1444927448222,1444927448680,889,449,0,0,0,5,1,4,51,0001-00-0003-56.png,0004-00-0007-45.png
14,614,1,1444927451652,1444927452125,305,402,0,0,0,1,2,1,12,0004-00-0001-11.png,0002-00-0000-13.png
14,615,0,1444927453100,1444927453552,365,495,0,0,0,4,3,1,43,0005-00-0003-64.png,0003-00-0003-53.png
14,616,1,1444927456631,1444927457076,873,536,0,0,0,1,3,2,13,0004-00-0000-24.png,0003-00-0005-90.png
14,617,1,1444927458092,1444927458535,877,495,0,0,0,2,4,2,24,0002-00-0009-96.png,0005-00-0006-02.png
14,618,0,1444927459713,1444927460146,315,443,0,0,0,5,3,2,53,0001-00-0004-20.png,0003-00-0003-66.png
14,619,1,1444927461194,1444927461633,877,521,0,0,0,1,3,2,13,0004-00-0009-83.png,0003-00-0009-13.png
14,620,0,1444927462755,1444927463246,378,474,0,0,0,5,3,2,53,0001-00-0003-98.png,0003-00-0001-44.png
14,621,0,1444927464225,1444927464699,376,462,0,0,0,4,5,1,45,0005-00-0007-89.png,0001-00-0005-44.png
14,622,0,1444927466055,1444927466496,384,455,0,0,0,5,3,2,53,0001-00-0000-97.png,0003-00-0001-12.png
14,623,1,1444927467597,1444927468099,890,451,0,0,0,3,4,1,34,0003-00-0008-32.png,0005-00-0002-37.png
14,624,0,1444927469106,1444927469612,888,449,0,0,0,2,3,1,23,0002-00-0004-24.png,0003-00-0003-29.png
14,625,1,1444927470587,1444927471021,368,454,0,0,0,2,1,1,21,0002-00-0007-11.png,0004-00-0008-87.png
14,626,1,1444927472069,1444927472989,339,394,0,0,0,2,1,1,21,0002-00-0001-48.png,0004-00-0002-10.png
14,627,1,1444927474166,1444927474600,339,470,0,0,0,1,5,4,15,0004-00-0009-72.png,0001-00-0004-73.png
14,628,0,1444927475677,1444927476201,872,510,0,0,0,5,4,1,54,0001-00-0003-78.png,0005-00-0007-47.png
14,629,1,1444927477158,1444927477649,350,501,0,0,0,1,3,2,13,0004-00-0003-69.png,0003-00-0007-43.png
14,630,1,1444927481671,1444927482118,929,443,0,0,0,4,2,2,42,0005-00-0006-77.png,0002-00-0000-58.png
14,631,0,1444927483152,1444927483616,926,449,0,0,0,2,1,1,21,0002-00-0004-99.png,0004-00-0009-25.png
14,632,1,1444927485109,1444927485600,347,454,0,0,0,3,1,2,31,0003-00-0004-61.png,0004-00-0002-69.png
14,633,0,1444927486828,1444927487262,427,436,0,0,0,2,1,1,21,0002-00-0006-77.png,0004-00-0002-70.png
14,634,0,1444927495852,1444927496280,362,463,0,0,0,1,4,3,14,0004-00-0009-09.png,0005-00-0005-18.png
14,635,1,1444927497346,1444927497843,857,423,0,0,0,4,3,1,43,0005-00-0004-68.png,0003-00-0007-32.png
14,636,1,1444927498816,1444927499288,320,473,0,0,0,2,4,2,24,0002-00-0005-11.png,0005-00-0008-20.png
14,637,1,1444927500340,1444927500960,427,384,0,0,0,4,2,2,42,0005-00-0005-25.png,0002-00-0000-76.png
14,638,1,1444927501984,1444927502402,353,445,0,0,0,5,2,3,52,0001-00-0002-29.png,0002-00-0005-05.png
14,639,1,1444927503370,1444927503851,902,410,0,0,0,3,5,2,35,0003-00-0006-26.png,0001-00-0008-61.png
14,640,1,1444927504929,1444927505377,899,438,0,0,0,1,5,4,15,0004-00-0007-53.png,0001-00-0000-45.png
14,641,1,1444927506339,1444927506810,401,436,0,0,0,5,3,2,53,0001-00-0000-29.png,0003-00-0005-30.png
14,642,1,1444927507799,1444927508241,388,436,0,0,0,4,2,2,42,0005-00-0001-48.png,0002-00-0002-00.png
14,643,1,1444927509278,1444927509749,307,445,0,0,0,4,1,3,41,0005-00-0000-78.png,0004-00-0008-15.png
14,644,1,1444927510913,1444927511439,889,448,0,0,0,5,1,4,51,0001-00-0000-58.png,0004-00-0004-55.png
14,645,1,1444927512523,1444927513005,338,467,0,0,0,1,2,1,12,0004-00-0003-71.png,0002-00-0003-21.png
14,646,1,1444927513953,1444927514916,905,428,0,0,0,1,5,4,15,0004-00-0009-91.png,0001-00-0008-95.png
14,647,0,1444927516089,1444927516615,889,475,0,0,0,3,5,2,35,0003-00-0008-47.png,0001-00-0001-51.png
14,648,0,1444927517638,1444927518165,880,453,0,0,0,1,4,3,14,0004-00-0006-05.png,0005-00-0002-64.png
14,649,1,1444927519167,1444927519694,899,449,0,0,0,5,2,3,52,0001-00-0001-79.png,0002-00-0007-92.png
14,650,0,1444927520742,1444927521207,319,447,0,0,0,5,4,1,54,0001-00-0007-23.png,0005-00-0001-93.png
14,651,1,1444927522201,1444927522716,880,472,0,0,0,2,3,1,23,0002-00-0001-06.png,0003-00-0003-52.png
14,652,1,1444927523911,1444927524503,878,472,0,0,0,2,4,2,24,0002-00-0000-55.png,0005-00-0003-28.png
14,653,1,1444927527609,1444927528061,314,418,0,0,0,3,2,1,32,0003-00-0007-22.png,0002-00-0001-52.png
14,654,1,1444927529007,1444927529474,313,450,0,0,0,5,3,2,53,0001-00-0001-81.png,0003-00-0009-61.png
14,655,1,1444927532481,1444927532932,902,466,0,0,0,5,2,3,52,0001-00-0005-49.png,0002-00-0001-01.png
14,656,1,1444927533897,1444927534344,393,480,0,0,0,3,1,2,31,0003-00-0006-10.png,0004-00-0009-01.png
14,657,1,1444927535330,1444927535804,925,413,0,0,0,4,2,2,42,0005-00-0002-09.png,0002-00-0004-91.png
14,658,0,1444927536911,1444927537424,901,450,0,0,0,5,1,4,51,0001-00-0005-65.png,0004-00-0000-64.png
14,659,1,1444927538393,1444927538831,376,410,0,0,0,2,5,3,25,0002-00-0000-23.png,0001-00-0006-72.png
14,660,1,1444927540311,1444927540755,307,445,0,0,0,2,5,3,25,0002-00-0003-63.png,0001-00-0000-71.png
14,661,1,1444927541812,1444927542356,901,547,0,0,0,5,2,3,52,0001-00-0007-04.png,0002-00-0006-47.png
14,662,1,1444927543490,1444927543976,900,430,0,0,0,5,2,3,52,0001-00-0003-09.png,0002-00-0001-53.png
14,663,1,1444927545063,1444927546006,355,409,0,0,0,3,1,2,31,0003-00-0008-13.png,0004-00-0005-86.png
14,664,1,1444927547269,1444927547713,376,423,0,0,0,4,1,3,41,0005-00-0000-68.png,0004-00-0009-77.png
14,665,1,1444927548779,1444927549256,862,527,0,0,0,2,5,3,25,0002-00-0006-95.png,0001-00-0002-83.png
14,666,0,1444927550494,1444927550972,861,507,0,0,0,3,2,1,32,0003-00-0000-27.png,0002-00-0000-87.png
14,667,1,1444927553760,1444927554175,339,416,0,0,0,2,3,1,23,0002-00-0002-90.png,0003-00-0004-34.png
14,668,1,1444927555252,1444927555742,902,410,0,0,0,1,4,3,14,0004-00-0004-37.png,0005-00-0003-48.png
14,669,1,1444927556881,1444927557294,299,450,0,0,0,1,3,2,13,0004-00-0009-55.png,0003-00-0005-85.png
14,670,0,1444927558342,1444927558888,879,448,0,0,0,5,3,2,53,0001-00-0001-19.png,0003-00-0000-51.png
14,671,1,1444927561918,1444927562337,362,408,0,0,0,4,2,2,42,0005-00-0009-63.png,0002-00-0005-96.png
14,672,1,1444927563511,1444927564033,891,466,0,0,0,2,5,3,25,0002-00-0009-45.png,0001-00-0009-47.png
14,673,1,1444927565101,1444927565646,876,466,0,0,0,5,3,2,53,0001-00-0009-16.png,0003-00-0007-14.png
14,674,1,1444927566670,1444927567135,901,450,0,0,0,4,1,3,41,0005-00-0003-82.png,0004-00-0008-80.png
14,675,1,1444927568300,1444927568716,376,420,0,0,0,2,1,1,21,0002-00-0008-05.png,0004-00-0005-14.png
14,676,1,1444927569861,1444927570391,332,465,0,0,0,2,5,3,25,0002-00-0006-39.png,0001-00-0008-69.png
14,677,1,1444927573847,1444927574255,905,428,0,0,0,4,5,1,45,0005-00-0009-90.png,0001-00-0006-93.png
14,678,1,1444927575236,1444927575841,364,436,0,0,0,4,1,3,41,0005-00-0006-19.png,0004-00-0003-41.png
14,679,1,1444927576969,1444927577458,319,462,0,0,0,2,4,2,24,0002-00-0004-48.png,0005-00-0003-48.png
14,680,1,1444927578585,1444927579032,325,462,0,0,0,3,1,2,31,0003-00-0003-79.png,0004-00-0008-49.png
14,681,1,1444927580100,1444927580581,350,462,0,0,0,5,3,2,53,0001-00-0007-42.png,0003-00-0007-98.png
14,682,0,1444927581689,1444927582163,915,458,0,0,0,1,5,4,15,0004-00-0003-98.png,0001-00-0003-29.png
14,683,1,1444927583170,1444927583586,376,449,0,0,0,4,2,2,42,0005-00-0003-12.png,0002-00-0004-19.png
14,684,1,1444927584642,1444927585101,877,528,0,0,0,4,1,3,41,0005-00-0003-42.png,0004-00-0006-26.png
14,685,1,1444927586201,1444927586685,902,443,0,0,0,2,5,3,25,0002-00-0007-07.png,0001-00-0002-54.png
14,686,1,1444927587822,1444927588338,899,439,0,0,0,3,1,2,31,0003-00-0008-20.png,0004-00-0000-36.png
14,687,1,1444927589483,1444927589875,376,450,0,0,0,4,1,3,41,0005-00-0001-26.png,0004-00-0002-91.png
14,688,0,1444927590913,1444927591435,340,460,0,0,0,2,3,1,23,0002-00-0007-11.png,0003-00-0006-32.png
14,689,1,1444927592494,1444927593454,899,437,0,0,0,4,2,2,42,0005-00-0008-59.png,0002-00-0005-65.png
14,690,0,1444927596874,1444927597308,875,450,0,0,0,1,2,1,12,0004-00-0006-27.png,0002-00-0005-73.png
14,691,1,1444927598289,1444927598741,306,429,0,0,0,1,4,3,14,0004-00-0009-56.png,0005-00-0004-24.png
14,692,0,1444927599808,1444927600787,917,395,0,0,0,1,2,1,12,0004-00-0002-70.png,0002-00-0004-44.png
14,693,0,1444927601917,1444927602432,874,456,0,0,0,3,5,2,35,0003-00-0000-50.png,0001-00-0004-19.png
14,694,1,1444927603406,1444927603873,401,410,0,0,0,1,4,3,14,0004-00-0009-04.png,0005-00-0002-81.png
14,695,1,1444927606776,1444927607226,382,377,0,0,0,4,3,1,43,0005-00-0009-08.png,0003-00-0004-46.png
14,696,0,1444927608197,1444927608659,350,449,0,0,0,3,5,2,35,0003-00-0008-84.png,0001-00-0002-83.png
14,697,1,1444927609710,1444927610204,318,469,0,0,0,4,2,2,42,0005-00-0005-23.png,0002-00-0007-65.png
14,698,0,1444927611260,1444927611730,900,463,0,0,0,4,5,1,45,0005-00-0002-19.png,0001-00-0003-86.png
14,699,0,1444927612768,1444927613258,888,423,0,0,0,3,4,1,34,0003-00-0000-29.png,0005-00-0000-81.png
14,700,0,1444927614400,1444927614875,898,431,0,0,0,2,5,3,25,0002-00-0002-23.png,0001-00-0008-69.png
14,701,1,1444927615960,1444927616502,318,436,0,0,0,4,2,2,42,0005-00-0009-60.png,0002-00-0000-61.png
14,702,1,1444927617551,1444927618014,899,429,0,0,0,1,3,2,13,0004-00-0009-89.png,0003-00-0000-08.png
14,703,0,1444927619212,1444927619635,432,439,0,0,0,3,5,2,35,0003-00-0001-19.png,0001-00-0001-37.png
14,704,0,1444927620732,1444927621212,325,422,0,0,0,5,3,2,53,0001-00-0000-94.png,0003-00-0006-96.png
14,705,1,1444927622294,1444927622778,325,448,0,0,0,2,3,1,23,0002-00-0001-34.png,0003-00-0003-02.png
14,706,1,1444927623785,1444927624338,875,462,0,0,0,2,1,1,21,0002-00-0008-48.png,0004-00-0008-02.png
14,707,0,1444927625562,1444927626139,350,437,0,0,0,5,4,1,54,0001-00-0004-40.png,0005-00-0009-68.png
14,708,1,1444927629069,1444927629161,507,514,0,0,0,5,4,1,54,0001-00-0009-23.png,0005-00-0004-00.png
14,709,1,1444927630480,1444927630904,336,476,0,0,0,1,4,3,14,0004-00-0001-62.png,0005-00-0000-79.png
14,710,0,1444927632014,1444927632984,919,455,0,0,0,4,3,1,43,0005-00-0007-41.png,0003-00-0006-39.png
14,711,1,1444927634110,1444927634793,875,513,0,0,0,1,5,4,15,0004-00-0001-14.png,0001-00-0007-94.png
14,712,1,1444927635989,1444927636436,339,450,0,0,0,5,1,4,51,0001-00-0003-40.png,0004-00-0008-10.png
14,713,0,1444927637519,1444927638081,331,488,0,0,0,3,5,2,35,0003-00-0005-07.png,0001-00-0008-48.png
14,714,0,1444927639179,1444927639661,336,474,0,0,0,5,1,4,51,0001-00-0002-40.png,0004-00-0001-05.png
14,715,0,1444927641002,1444927641481,900,449,0,0,0,2,1,1,21,0002-00-0001-34.png,0004-00-0009-97.png
14,716,1,1444927642517,1444927643003,912,424,0,0,0,3,2,1,32,0003-00-0006-29.png,0002-00-0001-57.png
14,717,0,1444927644279,1444927644750,325,449,0,0,0,5,1,4,51,0001-00-0009-99.png,0004-00-0006-61.png
14,718,0,1444927648291,1444927648739,900,449,0,0,0,2,5,3,25,0002-00-0000-00.png,0001-00-0004-24.png
14,719,0,1444927649725,1444927650336,324,450,0,0,0,3,5,2,35,0003-00-0007-23.png,0001-00-0008-14.png
14,720,1,1444927651350,1444927651778,289,430,0,0,0,2,1,1,21,0002-00-0002-94.png,0004-00-0007-67.png
14,721,1,1444927652846,1444927653351,873,509,0,0,0,3,1,2,31,0003-00-0004-29.png,0004-00-0005-55.png
14,722,0,1444927656730,1444927657166,876,398,0,0,0,2,4,2,24,0002-00-0007-55.png,0005-00-0008-32.png
14,723,1,1444927660257,1444927660721,336,423,0,0,0,2,5,3,25,0002-00-0001-05.png,0001-00-0002-15.png
14,724,1,1444927661731,1444927662181,897,432,0,0,0,3,4,1,34,0003-00-0003-64.png,0005-00-0000-49.png
14,725,1,1444927663219,1444927663682,925,371,0,0,0,3,1,2,31,0003-00-0007-81.png,0004-00-0009-17.png
14,726,1,1444927664653,1444927665115,921,420,0,0,0,1,2,1,12,0004-00-0009-48.png,0002-00-0005-11.png
14,727,0,1444927666323,1444927666767,331,463,0,0,0,5,2,3,52,0001-00-0008-45.png,0002-00-0005-69.png
14,728,1,1444927669663,1444927669708,491,429,0,0,0,2,5,3,25,0002-00-0006-74.png,0001-00-0000-72.png
14,729,1,1444927670744,1444927671292,912,397,0,0,0,3,4,1,34,0003-00-0006-52.png,0005-00-0003-60.png
14,730,0,1444927672226,1444927672665,408,446,0,0,0,5,4,1,54,0001-00-0004-55.png,0005-00-0007-48.png
14,731,1,1444927673769,1444927674233,299,461,0,0,0,2,1,1,21,0002-00-0004-89.png,0004-00-0003-21.png
14,732,1,1444927675304,1444927675808,912,424,0,0,0,5,4,1,54,0001-00-0007-15.png,0005-00-0001-90.png
14,733,1,1444927676977,1444927678063,876,365,0,0,0,4,5,1,45,0005-00-0000-06.png,0001-00-0005-64.png
14,734,1,1444927679075,1444927679552,335,398,0,0,0,3,5,2,35,0003-00-0003-60.png,0001-00-0001-07.png
14,735,1,1444927680613,1444927681070,363,423,0,0,0,4,1,3,41,0005-00-0002-84.png,0004-00-0001-22.png
14,736,1,1444927682294,1444927682743,893,413,0,0,0,5,3,2,53,0001-00-0005-19.png,0003-00-0001-34.png
14,737,1,1444927683826,1444927684389,872,431,0,0,0,2,4,2,24,0002-00-0003-11.png,0005-00-0001-23.png
14,738,0,1444927685374,1444927685841,427,436,0,0,0,1,2,1,12,0004-00-0000-20.png,0002-00-0003-72.png
14,739,0,1444927686912,1444927687440,899,421,0,0,0,1,4,3,14,0004-00-0005-09.png,0005-00-0001-04.png
14,740,1,1444927688475,1444927688921,360,462,0,0,0,1,5,4,15,0004-00-0003-34.png,0001-00-0004-46.png
14,741,1,1444927689964,1444927690393,376,436,0,0,0,4,2,2,42,0005-00-0007-89.png,0002-00-0001-90.png
14,742,1,1444927691457,1444927691987,891,453,0,0,0,2,4,2,24,0002-00-0008-33.png,0005-00-0007-04.png
14,743,1,1444927693059,1444927694002,927,460,0,0,0,4,5,1,45,0005-00-0002-74.png,0001-00-0004-78.png
14,744,1,1444927695351,1444927695817,321,456,0,0,0,2,3,1,23,0002-00-0002-46.png,0003-00-0008-30.png
14,745,0,1444927696944,1444927697448,414,436,0,0,0,2,3,1,23,0002-00-0009-05.png,0003-00-0005-25.png
14,746,1,1444927698592,1444927699032,328,469,0,0,0,4,2,2,42,0005-00-0008-02.png,0002-00-0008-75.png
14,747,1,1444927700205,1444927700697,892,460,0,0,0,3,1,2,31,0003-00-0002-01.png,0004-00-0002-49.png
14,748,1,1444927701746,1444927702234,879,428,0,0,0,2,4,2,24,0002-00-0008-22.png,0005-00-0002-37.png
14,749,0,1444927703274,1444927703761,875,528,0,0,0,1,5,4,15,0004-00-0005-80.png,0001-00-0000-33.png
14,750,0,1444927704804,1444927705288,359,424,0,0,0,3,4,1,34,0003-00-0003-76.png,0005-00-0000-54.png
14,751,1,1444927706324,1444927706797,896,446,0,0,0,1,4,3,14,0004-00-0009-82.png,0005-00-0006-57.png
14,752,1,1444927709660,1444927710112,353,429,0,0,0,2,4,2,24,0002-00-0009-92.png,0005-00-0007-13.png
14,753,1,1444927713003,1444927713480,362,478,0,0,0,4,5,1,45,0005-00-0009-46.png,0001-00-0008-10.png
14,754,1,1444927716421,1444927716884,921,394,0,0,0,5,2,3,52,0001-00-0009-26.png,0002-00-0005-08.png
14,755,0,1444927717924,1444927718392,920,424,0,0,0,2,1,1,21,0002-00-0009-90.png,0004-00-0006-86.png
14,756,1,1444927719383,1444927719850,320,450,0,0,0,2,3,1,23,0002-00-0002-43.png,0003-00-0001-79.png
14,757,1,1444927720817,1444927721329,897,393,0,0,0,4,2,2,42,0005-00-0008-62.png,0002-00-0001-40.png
14,758,1,1444927724173,1444927724526,376,358,0,0,0,1,3,2,13,0004-00-0001-86.png,0003-00-0002-77.png
14,759,1,1444927725467,1444927725936,901,409,0,0,0,3,2,1,32,0003-00-0005-22.png,0002-00-0009-51.png
14,760,1,1444927726959,1444927727561,324,405,0,0,0,5,1,4,51,0001-00-0008-02.png,0004-00-0006-32.png
14,761,0,1444927728609,1444927729083,357,468,0,0,0,3,5,2,35,0003-00-0003-11.png,0001-00-0009-00.png
14,762,1,1444927730120,1444927730583,874,528,0,0,0,1,5,4,15,0004-00-0009-90.png,0001-00-0003-27.png
14,763,1,1444927732344,1444927732790,311,450,0,0,0,2,5,3,25,0002-00-0000-19.png,0001-00-0004-87.png
14,764,1,1444927733848,1444927734354,909,426,0,0,0,1,4,3,14,0004-00-0007-96.png,0005-00-0003-20.png
14,765,1,1444927735408,1444927735895,911,459,0,0,0,1,2,1,12,0004-00-0006-50.png,0002-00-0007-57.png
14,766,1,1444927736908,1444927737322,339,445,0,0,0,2,4,2,24,0002-00-0000-44.png,0005-00-0003-49.png
14,767,1,1444927740219,1444927740705,886,512,0,0,0,5,1,4,51,0001-00-0007-44.png,0004-00-0004-33.png
14,768,1,1444927743955,1444927744397,293,437,0,0,0,4,1,3,41,0005-00-0005-94.png,0004-00-0000-04.png
14,769,1,1444927745357,1444927745882,863,475,0,0,0,2,5,3,25,0002-00-0001-38.png,0001-00-0006-32.png
14,770,1,1444927746844,1444927747320,904,417,0,0,0,5,4,1,54,0001-00-0003-59.png,0005-00-0007-66.png
14,771,0,1444927748308,1444927748843,360,422,0,0,0,4,2,2,42,0005-00-0000-33.png,0002-00-0000-07.png
14,772,0,1444927749919,1444927750402,898,406,0,0,0,1,5,4,15,0004-00-0001-83.png,0001-00-0000-96.png
14,773,0,1444927751411,1444927751926,877,441,0,0,0,3,5,2,35,0003-00-0004-20.png,0001-00-0007-45.png
14,774,1,1444927754787,1444927754819,478,419,0,0,0,2,1,1,21,0002-00-0006-50.png,0004-00-0006-99.png
14,775,1,1444927756076,1444927756519,317,456,0,0,0,1,5,4,15,0004-00-0001-82.png,0001-00-0005-87.png
14,776,0,1444927757502,1444927757972,913,410,0,0,0,1,2,1,12,0004-00-0008-43.png,0002-00-0001-62.png
14,777,1,1444927758959,1444927759438,915,399,0,0,0,5,4,1,54,0001-00-0008-44.png,0005-00-0000-48.png
14,778,1,1444927760461,1444927760886,325,462,0,0,0,3,4,1,34,0003-00-0007-30.png,0005-00-0000-77.png
14,779,1,1444927761966,1444927762437,893,403,0,0,0,3,4,1,34,0003-00-0002-09.png,0005-00-0009-47.png
14,780,1,1444927763575,1444927764062,899,438,0,0,0,2,4,2,24,0002-00-0000-31.png,0005-00-0004-39.png
14,781,0,1444927765047,1444927765551,376,410,0,0,0,3,4,1,34,0003-00-0005-78.png,0005-00-0008-96.png
14,782,0,1444927766597,1444927767148,891,418,0,0,0,2,5,3,25,0002-00-0001-61.png,0001-00-0000-14.png
14,783,1,1444927770561,1444927771010,900,443,0,0,0,3,1,2,31,0003-00-0005-13.png,0004-00-0004-65.png
14,784,1,1444927773956,1444927774008,440,462,0,0,0,2,1,1,21,0002-00-0006-49.png,0004-00-0007-17.png
14,785,1,1444927777301,1444927777674,927,409,0,0,0,2,4,2,24,0002-00-0004-00.png,0005-00-0009-49.png
14,786,0,1444927778830,1444927779297,286,449,0,0,0,4,3,1,43,0005-00-0008-55.png,0003-00-0003-53.png
14,787,1,1444927780320,1444927780758,370,443,0,0,0,1,2,1,12,0004-00-0008-77.png,0002-00-0001-47.png
14,788,1,1444927781773,1444927782270,874,501,0,0,0,1,5,4,15,0004-00-0004-03.png,0001-00-0009-39.png
14,789,1,1444927783374,1444927783889,918,428,0,0,0,3,2,1,32,0003-00-0002-68.png,0002-00-0009-77.png
14,790,1,1444927787181,1444927787758,296,397,0,0,0,2,4,2,24,0002-00-0005-31.png,0005-00-0009-55.png
14,791,1,1444927791064,1444927791996,929,420,0,0,0,5,2,3,52,0001-00-0006-02.png,0002-00-0000-64.png
14,792,1,1444927793114,1444927793567,292,453,0,0,0,5,3,2,53,0001-00-0006-11.png,0003-00-0002-87.png
14,793,1,1444927794554,1444927795051,305,469,0,0,0,3,1,2,31,0003-00-0005-28.png,0004-00-0005-13.png
14,794,1,1444927796026,1444927796517,913,424,0,0,0,4,1,3,41,0005-00-0002-63.png,0004-00-0002-35.png
14,795,1,1444927797568,1444927798035,376,410,0,0,0,5,1,4,51,0001-00-0006-47.png,0004-00-0001-88.png
14,796,0,1444927799107,1444927799953,331,420,0,0,0,1,4,3,14,0004-00-0003-89.png,0005-00-0005-01.png
14,797,1,1444927802878,1444927802890,453,462,0,0,0,1,5,4,15,0004-00-0005-45.png,0001-00-0004-27.png
14,798,1,1444927806071,1444927806507,340,423,0,0,0,2,3,1,23,0002-00-0007-54.png,0003-00-0001-76.png
14,799,1,1444927807475,1444927807954,896,420,0,0,0,4,5,1,45,0005-00-0001-42.png,0001-00-0000-91.png
14,800,0,1444927808906,1444927809357,267,435,0,0,0,4,3,1,43,0005-00-0006-62.png,0003-00-0004-03.png
14,801,0,1444927810531,1444927811017,870,497,0,0,0,4,5,1,45,0005-00-0009-63.png,0001-00-0004-12.png
14,802,1,1444927812237,1444927813145,871,393,0,0,0,3,1,2,31,0003-00-0009-82.png,0004-00-0009-76.png
14,803,0,1444927814243,1444927814730,899,439,0,0,0,2,1,1,21,0002-00-0007-24.png,0004-00-0007-92.png
14,804,1,1444927815734,1444927816240,378,442,0,0,0,4,2,2,42,0005-00-0009-34.png,0002-00-0009-53.png
14,805,1,1444927819969,1444927820554,387,507,0,0,0,5,4,1,54,0001-00-0006-00.png,0005-00-0000-61.png
14,806,0,1444927821508,1444927822018,876,451,0,0,0,5,2,3,52,0001-00-0009-17.png,0002-00-0006-89.png
14,807,1,1444927825115,1444927825155,504,517,0,0,0,1,5,4,15,0004-00-0004-06.png,0001-00-0007-46.png
14,808,0,1444927826141,1444927826585,331,453,0,0,0,5,3,2,53,0001-00-0003-25.png,0003-00-0001-06.png
14,809,1,1444927827563,1444927828108,881,434,0,0,0,4,1,3,41,0005-00-0003-40.png,0004-00-0006-48.png
14,810,1,1444927829144,1444927830156,922,375,0,0,0,1,3,2,13,0004-00-0005-36.png,0003-00-0001-58.png
14,811,0,1444927831231,1444927831714,349,455,0,0,0,5,1,4,51,0001-00-0001-60.png,0004-00-0003-16.png
14,812,1,1444927832761,1444927833207,898,429,0,0,0,2,3,1,23,0002-00-0009-68.png,0003-00-0005-15.png
14,813,0,1444927834303,1444927834773,924,412,0,0,0,1,5,4,15,0004-00-0001-16.png,0001-00-0005-60.png
14,814,1,1444927835843,1444927836264,315,456,0,0,0,1,4,3,14,0004-00-0000-80.png,0005-00-0009-55.png
14,815,1,1444927837230,1444927837738,908,421,0,0,0,2,3,1,23,0002-00-0009-75.png,0003-00-0002-01.png
14,816,1,1444927840806,1444927841214,329,544,0,0,0,5,2,3,52,0001-00-0004-08.png,0002-00-0006-64.png
14,817,1,1444927842100,1444927842614,922,419,0,0,0,4,3,1,43,0005-00-0006-07.png,0003-00-0004-80.png
14,818,1,1444927843603,1444927844177,408,428,0,0,0,1,3,2,13,0004-00-0001-05.png,0003-00-0007-57.png
14,819,0,1444927845235,1444927845730,330,437,0,0,0,4,1,3,41,0005-00-0006-23.png,0004-00-0004-43.png
14,820,0,1444927846765,1444927847228,910,431,0,0,0,3,4,1,34,0003-00-0008-18.png,0005-00-0005-69.png
14,821,1,1444927848246,1444927848733,913,423,0,0,0,5,1,4,51,0001-00-0002-55.png,0004-00-0008-83.png
14,822,1,1444927849849,1444927850259,376,410,0,0,0,5,2,3,52,0001-00-0002-96.png,0002-00-0009-05.png
14,823,1,1444927851267,1444927851713,401,449,0,0,0,1,4,3,14,0004-00-0007-77.png,0005-00-0006-61.png
14,824,1,1444927852770,1444927853245,889,423,0,0,0,1,3,2,13,0004-00-0003-71.png,0003-00-0008-52.png
14,825,1,1444927854489,1444927855034,363,476,0,0,0,4,1,3,41,0005-00-0006-05.png,0004-00-0005-80.png
14,826,1,1444927856028,1444927856518,897,406,0,0,0,4,1,3,41,0005-00-0005-06.png,0004-00-0007-52.png
14,827,1,1444927860673,1444927861116,877,442,0,0,0,3,2,1,32,0003-00-0003-72.png,0002-00-0009-69.png
14,828,0,1444927869887,1444927870392,930,401,0,0,0,4,5,1,45,0005-00-0005-75.png,0001-00-0001-26.png
14,829,1,1444927871389,1444927871876,880,523,0,0,0,1,3,2,13,0004-00-0001-54.png,0003-00-0008-03.png
14,830,1,1444927872826,1444927873404,899,437,0,0,0,5,3,2,53,0001-00-0004-94.png,0003-00-0004-92.png
14,831,0,1444927874359,1444927875264,877,413,0,0,0,5,3,2,53,0001-00-0001-93.png,0003-00-0000-42.png
14,832,1,1444927878633,1444927879123,907,422,0,0,0,4,5,1,45,0005-00-0006-18.png,0001-00-0005-26.png
14,833,1,1444927880015,1444927880470,930,402,0,0,0,3,2,1,32,0003-00-0003-49.png,0002-00-0005-29.png
14,834,1,1444927881452,1444927881955,350,454,0,0,0,1,4,3,14,0004-00-0004-28.png,0005-00-0007-66.png
14,835,1,1444927882886,1444927883372,870,420,0,0,0,2,4,2,24,0002-00-0001-69.png,0005-00-0002-40.png
14,836,1,1444927884538,1444927885005,900,450,0,0,0,2,4,2,24,0002-00-0007-54.png,0005-00-0009-20.png
14,837,0,1444927885937,1444927886434,385,528,0,0,0,3,5,2,35,0003-00-0004-63.png,0001-00-0004-82.png
14,838,0,1444927887450,1444927887937,358,427,0,0,0,3,4,1,34,0003-00-0008-04.png,0005-00-0001-74.png
14,839,1,1444927888939,1444927889390,317,427,0,0,0,1,2,1,12,0004-00-0003-98.png,0002-00-0001-26.png
14,840,0,1444927892584,1444927893073,350,427,0,0,0,2,5,3,25,0002-00-0007-49.png,0001-00-0000-42.png
14,841,1,1444927893999,1444927894452,288,448,0,0,0,1,2,1,12,0004-00-0004-92.png,0002-00-0001-74.png
14,842,1,1444927895678,1444927896094,319,452,0,0,0,1,2,1,12,0004-00-0009-42.png,0002-00-0008-35.png
14,843,1,1444927897088,1444927897598,904,417,0,0,0,1,5,4,15,0004-00-0003-36.png,0001-00-0009-36.png
14,844,0,1444927898558,1444927899098,376,436,0,0,0,3,5,2,35,0003-00-0003-58.png,0001-00-0006-33.png
14,845,1,1444927902474,1444927902941,343,448,0,0,0,4,3,1,43,0005-00-0001-21.png,0003-00-0009-36.png
14,846,0,1444927903876,1444927904340,376,410,0,0,0,3,4,1,34,0003-00-0004-03.png,0005-00-0006-38.png
14,847,1,1444927905337,1444927905854,901,418,0,0,0,1,2,1,12,0004-00-0003-72.png,0002-00-0008-44.png
14,848,1,1444927906848,1444927907336,879,431,0,0,0,3,1,2,31,0003-00-0000-99.png,0004-00-0005-50.png
14,849,1,1444927908304,1444927908824,343,438,0,0,0,3,2,1,32,0003-00-0009-91.png,0002-00-0000-55.png
14,850,1,1444927909859,1444927910262,299,436,0,0,0,4,2,2,42,0005-00-0002-78.png,0002-00-0009-97.png
14,851,1,1444927911528,1444927911966,389,437,0,0,0,5,2,3,52,0001-00-0004-88.png,0002-00-0001-45.png
14,852,1,1444927913081,1444927913552,899,412,0,0,0,4,3,1,43,0005-00-0003-42.png,0003-00-0001-22.png
14,853,1,1444927914577,1444927915053,895,446,0,0,0,4,2,2,42,0005-00-0007-65.png,0002-00-0002-83.png
14,854,0,1444927916089,1444927916632,401,474,0,0,0,2,4,2,24,0002-00-0006-31.png,0005-00-0008-00.png
14,855,0,1444927917641,1444927918302,880,443,0,0,0,5,1,4,51,0001-00-0000-15.png,0004-00-0001-35.png
14,856,1,1444927919321,1444927919868,876,435,0,0,0,2,3,1,23,0002-00-0009-48.png,0003-00-0000-20.png
14,857,1,1444927920881,1444927921408,896,419,0,0,0,4,3,1,43,0005-00-0001-52.png,0003-00-0001-19.png
14,858,1,1444927922521,1444927923065,885,472,0,0,0,2,3,1,23,0002-00-0007-01.png,0003-00-0000-76.png
14,859,1,1444927924189,1444927925229,865,494,0,0,0,4,3,1,43,0005-00-0008-39.png,0003-00-0003-22.png
14,860,1,1444927928623,1444927929078,372,417,0,0,0,4,1,3,41,0005-00-0004-57.png,0004-00-0006-64.png
14,861,1,1444927930004,1444927930446,433,437,0,0,0,4,2,2,42,0005-00-0004-79.png,0002-00-0000-19.png
14,862,1,1444927931551,1444927932069,902,435,0,0,0,1,2,1,12,0004-00-0009-16.png,0002-00-0000-27.png
14,863,1,1444927933135,1444927933164,504,462,0,0,0,3,2,1,32,0003-00-0004-13.png,0002-00-0007-20.png
14,864,0,1444927934518,1444927935464,885,424,0,0,0,1,4,3,14,0004-00-0008-39.png,0005-00-0009-48.png
14,865,1,1444927936485,1444927937432,875,371,0,0,0,4,3,1,43,0005-00-0006-77.png,0003-00-0002-82.png
14,866,0,1444927938622,1444927939109,901,423,0,0,0,5,4,1,54,0001-00-0002-47.png,0005-00-0007-88.png
14,867,0,1444927940278,1444927941157,386,405,0,0,0,4,5,1,45,0005-00-0001-27.png,0001-00-0005-78.png
14,868,0,1444927942233,1444927942693,376,435,0,0,0,4,3,1,43,0005-00-0006-33.png,0003-00-0004-98.png
14,869,1,1444927943699,1444927944258,876,408,0,0,0,3,1,2,31,0003-00-0003-07.png,0004-00-0005-75.png
14,870,1,1444927945298,1444927946230,897,410,0,0,0,5,1,4,51,0001-00-0000-53.png,0004-00-0003-03.png
14,871,1,1444927949581,1444927950050,875,462,0,0,0,5,3,2,53,0001-00-0002-21.png,0003-00-0003-04.png
14,872,0,1444927951035,1444927951470,888,410,0,0,0,2,3,1,23,0002-00-0008-10.png,0003-00-0004-91.png
14,873,1,1444927954412,1444927954784,361,394,0,0,0,5,1,4,51,0001-00-0000-84.png,0004-00-0009-37.png
14,874,0,1444927955736,1444927956271,903,443,0,0,0,1,5,4,15,0004-00-0008-74.png,0001-00-0004-49.png
14,875,1,1444927957277,1444927957759,870,471,0,0,0,5,1,4,51,0001-00-0009-03.png,0004-00-0000-61.png
14,876,0,1444927960616,1444927960640,494,445,0,0,0,4,5,1,45,0005-00-0005-31.png,0001-00-0002-63.png
14,877,0,1444927963482,1444927963735,516,475,0,0,0,4,1,3,41,0005-00-0002-90.png,0004-00-0001-70.png
14,878,1,1444927966598,1444927966666,507,452,0,0,0,1,4,3,14,0004-00-0009-72.png,0005-00-0002-76.png
14,879,1,1444927969917,1444927970380,390,384,0,0,0,1,5,4,15,0004-00-0006-17.png,0001-00-0000-95.png
14,880,1,1444927971411,1444927971873,312,462,0,0,0,5,1,4,51,0001-00-0006-09.png,0004-00-0005-63.png
14,881,1,1444927973122,1444927973509,351,457,0,0,0,3,1,2,31,0003-00-0008-87.png,0004-00-0008-37.png
14,882,1,1444927976548,1444927976973,870,498,0,0,0,2,5,3,25,0002-00-0008-26.png,0001-00-0008-44.png
14,883,1,1444927979805,1444927980057,504,462,0,0,0,3,5,2,35,0003-00-0000-03.png,0001-00-0007-21.png
14,884,0,1444927981151,1444927981602,325,464,0,0,0,5,4,1,54,0001-00-0008-33.png,0005-00-0006-23.png
14,885,1,1444927982711,1444927983159,299,450,0,0,0,5,1,4,51,0001-00-0001-74.png,0004-00-0008-42.png
14,886,0,1444927984242,1444927984757,898,429,0,0,0,5,3,2,53,0001-00-0002-03.png,0003-00-0006-90.png
14,887,1,1444927985912,1444927986406,900,437,0,0,0,3,4,1,34,0003-00-0005-95.png,0005-00-0008-97.png
14,888,1,1444927987420,1444927987886,922,432,0,0,0,3,1,2,31,0003-00-0001-89.png,0004-00-0000-88.png
14,889,1,1444927989121,1444927989594,878,441,0,0,0,3,5,2,35,0003-00-0006-53.png,0001-00-0008-04.png
14,890,1,1444927992596,1444927993057,299,476,0,0,0,1,3,2,13,0004-00-0000-62.png,0003-00-0001-69.png
14,891,0,1444927994039,1444927994518,869,533,0,0,0,3,5,2,35,0003-00-0008-79.png,0001-00-0007-30.png
14,892,1,1444927995573,1444927996005,351,464,0,0,0,5,2,3,52,0001-00-0008-56.png,0002-00-0008-86.png
14,893,1,1444927997069,1444927997552,880,453,0,0,0,2,4,2,24,0002-00-0000-59.png,0005-00-0007-22.png
14,894,1,1444928000532,1444928000568,522,469,0,0,0,3,4,1,34,0003-00-0009-12.png,0005-00-0005-07.png
14,895,1,1444928003533,1444928003895,316,389,0,0,0,1,3,2,13,0004-00-0006-65.png,0003-00-0001-15.png
14,896,0,1444928007148,1444928007591,311,423,0,0,0,5,4,1,54,0001-00-0006-25.png,0005-00-0001-76.png
14,897,1,1444928010627,1444928011075,909,463,0,0,0,2,1,1,21,0002-00-0005-85.png,0004-00-0005-78.png
14,898,0,1444928012041,1444928012536,921,403,0,0,0,3,4,1,34,0003-00-0002-57.png,0005-00-0008-96.png
14,899,1,1444928013512,1444928013987,320,458,0,0,0,3,1,2,31,0003-00-0009-76.png,0004-00-0002-37.png
14,900,1,1444928015061,1444928015562,906,423,0,0,0,3,4,1,34,0003-00-0008-65.png,0005-00-0006-30.png
14,901,0,1444928016573,1444928017077,912,429,0,0,0,3,5,2,35,0003-00-0004-91.png,0001-00-0000-62.png
14,902,0,1444928018183,1444928018604,401,436,0,0,0,1,3,2,13,0004-00-0000-61.png,0003-00-0009-84.png
14,903,1,1444928019625,1444928020193,916,400,0,0,0,1,2,1,12,0004-00-0004-37.png,0002-00-0009-77.png
14,904,0,1444928023063,1444928023091,496,470,0,0,0,3,5,2,35,0003-00-0000-80.png,0001-00-0007-26.png
14,905,1,1444928024108,1444928024531,315,441,0,0,0,1,3,2,13,0004-00-0003-85.png,0003-00-0000-49.png
14,906,0,1444928025597,1444928026103,350,397,0,0,0,3,1,2,31,0003-00-0005-03.png,0004-00-0004-24.png
14,907,1,1444928027068,1444928027582,892,436,0,0,0,4,3,1,43,0005-00-0006-67.png,0003-00-0006-60.png
14,908,1,1444928030477,1444928030899,857,514,0,0,0,4,1,3,41,0005-00-0001-54.png,0004-00-0006-11.png
14,909,1,1444928031837,1444928032292,903,442,0,0,0,3,2,1,32,0003-00-0006-11.png,0002-00-0002-57.png
14,910,1,1444928033257,1444928033729,907,415,0,0,0,5,2,3,52,0001-00-0002-51.png,0002-00-0006-67.png
14,911,1,1444928034881,1444928035356,913,410,0,0,0,3,2,1,32,0003-00-0001-23.png,0002-00-0008-19.png
14,912,1,1444928036441,1444928037339,369,433,0,0,0,3,2,1,32,0003-00-0000-03.png,0002-00-0003-47.png
14,913,1,1444928038361,1444928038817,315,431,0,0,0,2,3,1,23,0002-00-0006-80.png,0003-00-0006-07.png
14,914,1,1444928039851,1444928040306,875,424,0,0,0,1,5,4,15,0004-00-0006-69.png,0001-00-0005-59.png
14,915,0,1444928041308,1444928041853,350,397,0,0,0,4,5,1,45,0005-00-0001-80.png,0001-00-0006-61.png
14,916,1,1444928042940,1444928043369,381,436,0,0,0,1,5,4,15,0004-00-0000-38.png,0001-00-0004-18.png
14,917,1,1444928044409,1444928044923,871,457,0,0,0,3,2,1,32,0003-00-0004-30.png,0002-00-0002-42.png
14,918,1,1444928047899,1444928047919,458,435,0,0,0,4,1,3,41,0005-00-0001-86.png,0004-00-0003-94.png
14,919,1,1444928050918,1444928051351,871,504,0,0,0,3,2,1,32,0003-00-0004-73.png,0002-00-0001-41.png
14,920,1,1444928052301,1444928052760,899,508,0,0,0,1,4,3,14,0004-00-0006-70.png,0005-00-0002-16.png
14,921,1,1444928053783,1444928054277,393,438,0,0,0,2,5,3,25,0002-00-0004-67.png,0001-00-0009-57.png
14,922,1,1444928055214,1444928055791,242,522,0,0,0,3,5,2,35,0003-00-0008-93.png,0001-00-0003-95.png
14,923,1,1444928058649,1444928059085,325,397,0,0,0,1,3,2,13,0004-00-0008-97.png,0003-00-0002-42.png
14,924,0,1444928060043,1444928060532,900,423,0,0,0,3,5,2,35,0003-00-0001-17.png,0001-00-0009-80.png
14,925,1,1444928061573,1444928062030,371,557,0,0,0,4,5,1,45,0005-00-0007-07.png,0001-00-0006-63.png
14,926,1,1444928062947,1444928063794,343,409,0,0,0,4,5,1,45,0005-00-0006-20.png,0001-00-0008-48.png
14,927,1,1444928066802,1444928067237,952,423,0,0,0,5,2,3,52,0001-00-0001-06.png,0002-00-0009-77.png
14,928,1,1444928068224,1444928068790,338,501,0,0,0,5,4,1,54,0001-00-0007-34.png,0005-00-0001-37.png
14,929,1,1444928069705,1444928070194,885,443,0,0,0,3,2,1,32,0003-00-0008-85.png,0002-00-0000-07.png
14,930,0,1444928071155,1444928071678,862,450,0,0,0,3,4,1,34,0003-00-0008-37.png,0005-00-0004-11.png
14,931,1,1444928075100,1444928075584,902,494,0,0,0,2,3,1,23,0002-00-0009-26.png,0003-00-0001-12.png
14,932,1,1444928076532,1444928077078,389,555,0,0,0,5,2,3,52,0001-00-0006-13.png,0002-00-0001-15.png
14,933,0,1444928077951,1444928078469,327,470,0,0,0,1,3,2,13,0004-00-0008-16.png,0003-00-0007-78.png
14,934,1,1444928079444,1444928079955,905,404,0,0,0,2,1,1,21,0002-00-0009-87.png,0004-00-0007-36.png
14,935,1,1444928081341,1444928081800,901,409,0,0,0,2,3,1,23,0002-00-0000-03.png,0003-00-0000-03.png
14,936,0,1444928082780,1444928083279,899,433,0,0,0,3,4,1,34,0003-00-0001-72.png,0005-00-0000-26.png
14,937,0,1444928086568,1444928086969,388,403,0,0,0,1,2,1,12,0004-00-0001-47.png,0002-00-0000-72.png
14,938,1,1444928090034,1444928090462,932,422,0,0,0,3,1,2,31,0003-00-0003-47.png,0004-00-0005-26.png
14,939,1,1444928091380,1444928091807,350,422,0,0,0,1,2,1,12,0004-00-0004-58.png,0002-00-0009-78.png
14,940,1,1444928092771,1444928093642,453,410,0,0,0,3,2,1,32,0003-00-0001-31.png,0002-00-0004-18.png
14,941,0,1444928096905,1444928097324,949,410,0,0,0,1,2,1,12,0004-00-0003-19.png,0002-00-0009-54.png
14,942,1,1444928100193,1444928100806,930,444,0,0,0,4,2,2,42,0005-00-0000-73.png,0002-00-0000-09.png
14,943,1,1444928101822,1444928102276,318,462,0,0,0,3,4,1,34,0003-00-0005-84.png,0005-00-0005-16.png
14,944,0,1444928103313,1444928103760,911,398,0,0,0,2,1,1,21,0002-00-0009-35.png,0004-00-0009-77.png
14,945,1,1444928106804,1444928107449,944,403,0,0,0,3,1,2,31,0003-00-0004-19.png,0004-00-0006-09.png
14,946,1,1444928108496,1444928108955,362,451,0,0,0,1,4,3,14,0004-00-0005-49.png,0005-00-0008-81.png
14,947,1,1444928112391,1444928112861,899,453,0,0,0,5,1,4,51,0001-00-0002-99.png,0004-00-0006-75.png
14,948,0,1444928115897,1444928116389,318,485,0,0,0,2,5,3,25,0002-00-0007-50.png,0001-00-0008-10.png
14,949,0,1444928117311,1444928117783,391,542,0,0,0,4,3,1,43,0005-00-0003-65.png,0003-00-0007-29.png
14,950,1,1444928118850,1444928119721,923,406,0,0,0,4,1,3,41,0005-00-0002-18.png,0004-00-0004-18.png
14,951,1,1444928120810,1444928121193,387,428,0,0,0,5,4,1,54,0001-00-0009-77.png,0005-00-0001-90.png
14,952,1,1444928122170,1444928122655,927,409,0,0,0,1,5,4,15,0004-00-0005-35.png,0001-00-0003-64.png
14,953,1,1444928123659,1444928124153,904,402,0,0,0,3,4,1,34,0003-00-0004-93.png,0005-00-0002-11.png
14,954,0,1444928125142,1444928125555,368,427,0,0,0,3,4,1,34,0003-00-0001-13.png,0005-00-0003-70.png
14,955,1,1444928126531,1444928127049,898,433,0,0,0,5,4,1,54,0001-00-0009-20.png,0005-00-0007-93.png
14,956,1,1444928129960,1444928130579,952,413,0,0,0,5,3,2,53,0001-00-0000-86.png,0003-00-0004-09.png
14,957,0,1444928131553,1444928132038,887,423,0,0,0,1,4,3,14,0004-00-0008-86.png,0005-00-0007-53.png
14,958,0,1444928135131,1444928135616,919,460,0,0,0,4,3,1,43,0005-00-0008-29.png,0003-00-0006-90.png
14,959,1,1444928136619,1444928137095,888,423,0,0,0,3,5,2,35,0003-00-0007-66.png,0001-00-0007-19.png
14,960,1,1444928138111,1444928138636,899,438,0,0,0,4,5,1,45,0005-00-0000-22.png,0001-00-0002-75.png
14,961,1,1444928141757,1444928142139,896,419,0,0,0,2,1,1,21,0002-00-0008-35.png,0004-00-0000-19.png
14,962,1,1444928143029,1444928143529,925,410,0,0,0,5,2,3,52,0001-00-0009-93.png,0002-00-0001-11.png
14,963,0,1444928144640,1444928145099,394,445,0,0,0,4,5,1,45,0005-00-0001-09.png,0001-00-0001-79.png
14,964,1,1444928146039,1444928147041,875,411,0,0,0,3,2,1,32,0003-00-0001-54.png,0002-00-0009-43.png
14,965,0,1444928149915,1444928149919,370,404,0,0,0,5,4,1,54,0001-00-0006-83.png,0005-00-0003-01.png
14,966,0,1444928151021,1444928151499,876,435,0,0,0,2,5,3,25,0002-00-0000-14.png,0001-00-0007-05.png
14,967,0,1444928152550,1444928153003,888,423,0,0,0,5,2,3,52,0001-00-0004-40.png,0002-00-0003-74.png
14,968,1,1444928156036,1444928156476,898,432,0,0,0,1,3,2,13,0004-00-0004-48.png,0003-00-0002-68.png
14,969,1,1444928157491,1444928158451,915,432,0,0,0,3,2,1,32,0003-00-0001-86.png,0002-00-0008-06.png
14,970,1,1444928159445,1444928159888,872,510,0,0,0,1,3,2,13,0004-00-0004-38.png,0003-00-0007-03.png
14,971,0,1444928163184,1444928163609,350,410,0,0,0,5,2,3,52,0001-00-0008-57.png,0002-00-0003-73.png
14,972,1,1444928164535,1444928165065,389,550,0,0,0,3,2,1,32,0003-00-0003-53.png,0002-00-0001-84.png
14,973,1,1444928167904,1444928168312,313,367,0,0,0,2,3,1,23,0002-00-0008-85.png,0003-00-0003-19.png
14,974,1,1444928169236,1444928169711,311,475,0,0,0,1,4,3,14,0004-00-0000-10.png,0005-00-0008-54.png
14,975,1,1444928172555,1444928172980,333,393,0,0,0,5,1,4,51,0001-00-0003-20.png,0004-00-0004-52.png
14,976,1,1444928173875,1444928174359,925,413,0,0,0,1,4,3,14,0004-00-0004-25.png,0005-00-0008-60.png
14,977,0,1444928175288,1444928175756,293,452,0,0,0,1,2,1,12,0004-00-0006-21.png,0002-00-0000-18.png
14,978,1,1444928176749,1444928177272,890,466,0,0,0,2,3,1,23,0002-00-0000-50.png,0003-00-0005-86.png
14,979,0,1444928180317,1444928180738,901,410,0,0,0,5,3,2,53,0001-00-0003-10.png,0003-00-0001-62.png
14,980,1,1444928181718,1444928182142,350,410,0,0,0,3,2,1,32,0003-00-0002-30.png,0002-00-0006-25.png
14,981,0,1444928183099,1444928183642,898,406,0,0,0,4,5,1,45,0005-00-0003-71.png,0001-00-0006-48.png
14,982,1,1444928184591,1444928185145,906,388,0,0,0,2,4,2,24,0002-00-0004-11.png,0005-00-0007-34.png
14,983,1,1444928186098,1444928186533,331,437,0,0,0,2,1,1,21,0002-00-0009-43.png,0004-00-0001-27.png
14,984,1,1444928187531,1444928187986,900,429,0,0,0,5,4,1,54,0001-00-0008-58.png,0005-00-0008-18.png
14,985,1,1444928189073,1444928189529,896,419,0,0,0,1,3,2,13,0004-00-0009-35.png,0003-00-0006-55.png
14,986,1,1444928190832,1444928191288,887,450,0,0,0,5,2,3,52,0001-00-0002-87.png,0002-00-0005-07.png
14,987,1,1444928192482,1444928193399,928,442,0,0,0,5,4,1,54,0001-00-0009-65.png,0005-00-0005-74.png
14,988,1,1444928194450,1444928194944,338,462,0,0,0,4,3,1,43,0005-00-0000-87.png,0003-00-0008-86.png
14,989,1,1444928195961,1444928196421,899,423,0,0,0,5,1,4,51,0001-00-0000-45.png,0004-00-0003-40.png
