subject_id,trial,correct_response,stim_time,response_time,x_coord,y_coord,trial_timeout,timeout_time,interTrial_timeout,left_rank,right_rank,distance,joint_rank,left_image,right_image
00000009,1,1,1445627611360,1445627612170,959,467,0,0,0,4,2,2,42,0005-00-0003-88.png,0002-00-0004-23.png
00000009,2,0,1445627613652,1445627613740,985,513,0,0,0,1,4,3,14,0004-00-0001-29.png,0005-00-0005-16.png
00000009,3,0,1445627616931,1445627616971,878,255,0,0,0,1,3,2,13,0004-00-0009-65.png,0003-00-0004-38.png
00000009,4,1,1445627620161,1445627620245,888,237,0,0,0,5,3,2,53,0001-00-0008-68.png,0003-00-0007-83.png
00000009,5,1,1445627621373,1445627622174,990,422,0,0,0,3,2,1,32,0003-00-0008-99.png,0002-00-0007-33.png
00000009,6,0,1445627623134,1445627623224,939,398,0,0,0,4,5,1,45,0005-00-0000-32.png,0001-00-0001-68.png
00000009,7,1,1445627626103,1445627626696,367,405,0,0,0,1,2,1,12,0004-00-0000-59.png,0002-00-0008-45.png
00000009,8,0,1445627627713,1445627628351,503,300,0,0,0,2,1,1,21,0002-00-0009-30.png,0004-00-0005-98.png
00000009,9,1,1445627631220,1445627631802,1140,318,0,0,0,4,3,1,43,0005-00-0001-41.png,0003-00-0003-38.png
00000009,10,1,1445627632773,1445627632973,1014,359,0,0,0,3,1,2,31,0003-00-0005-98.png,0004-00-0004-60.png
00000009,11,1,1445627634145,1445627634229,923,409,0,0,0,5,1,4,51,0001-00-0000-45.png,0004-00-0009-56.png
00000009,12,1,1445627635308,1445627636176,1046,271,0,0,0,5,4,1,54,0001-00-0008-52.png,0005-00-0007-03.png
00000009,13,0,1445627637144,1445627637204,900,410,0,0,0,2,3,1,23,0002-00-0007-78.png,0003-00-0001-45.png
00000009,14,1,1445627640315,1445627640899,997,306,0,0,0,4,1,3,41,0005-00-0009-95.png,0004-00-0007-01.png
00000009,15,0,1445627641797,1445627641821,867,434,0,0,0,3,4,1,34,0003-00-0004-97.png,0005-00-0003-61.png
00000009,16,1,1445627644967,1445627645542,363,375,0,0,0,2,5,3,25,0002-00-0001-18.png,0001-00-0000-50.png
00000009,17,0,1445627646468,1445627647209,942,321,0,0,0,1,5,4,15,0004-00-0001-92.png,0001-00-0002-11.png
00000009,18,1,1445627650114,1445627650170,915,251,0,0,0,5,2,3,52,0001-00-0006-37.png,0002-00-0004-65.png
00000009,19,1,1445627651227,1445627652116,395,264,0,0,0,2,4,2,24,0002-00-0000-72.png,0005-00-0007-01.png
00000009,20,0,1445627653108,1445627653955,966,340,0,0,0,3,5,2,35,0003-00-0007-23.png,0001-00-0008-55.png
00000009,21,1,1445627658539,1445627659135,354,384,0,0,0,2,3,1,23,0002-00-0000-19.png,0003-00-0003-82.png
00000009,22,1,1445627660073,1445627660684,948,410,0,0,0,5,3,2,53,0001-00-0001-15.png,0003-00-0005-90.png
00000009,23,0,1445627661559,1445627661663,1003,410,0,0,0,4,5,1,45,0005-00-0004-64.png,0001-00-0004-37.png
00000009,24,1,1445627664850,1445627665305,968,328,0,0,0,5,2,3,52,0001-00-0007-16.png,0002-00-0008-83.png
00000009,25,1,1445627666139,1445627666778,958,391,0,0,0,3,2,1,32,0003-00-0000-37.png,0002-00-0002-88.png
00000009,26,1,1445627667732,1445627667788,969,413,0,0,0,5,1,4,51,0001-00-0000-31.png,0004-00-0002-64.png
00000009,27,0,1445627668835,1445627668903,914,401,0,0,0,1,5,4,15,0004-00-0002-15.png,0001-00-0000-20.png
00000009,28,1,1445627672920,1445627673481,446,286,0,0,0,1,4,3,14,0004-00-0006-01.png,0005-00-0009-25.png
00000009,29,0,1445627674827,1445627675325,1094,253,0,0,0,3,4,1,34,0003-00-0001-60.png,0005-00-0003-67.png
00000009,30,1,1445627678317,1445627678852,968,306,0,0,0,4,3,1,43,0005-00-0002-97.png,0003-00-0002-82.png
00000009,31,1,1445627679836,1445627680431,466,246,0,0,0,1,2,1,12,0004-00-0000-95.png,0002-00-0008-61.png
00000009,32,0,1445627681287,1445627681335,887,386,0,0,0,2,4,2,24,0002-00-0008-88.png,0005-00-0008-12.png
00000009,33,1,1445627684319,1445627684885,481,250,0,0,0,2,5,3,25,0002-00-0007-35.png,0001-00-0005-50.png
00000009,34,1,1445627686097,1445627686612,1060,265,0,0,0,5,4,1,54,0001-00-0007-70.png,0005-00-0006-56.png
00000009,35,0,1445627687520,1445627687556,901,432,0,0,0,1,3,2,13,0004-00-0003-28.png,0003-00-0008-11.png
00000009,36,1,1445627690668,1445627690700,915,260,0,0,0,4,1,3,41,0005-00-0003-61.png,0004-00-0009-22.png
00000009,37,1,1445627691655,1445627692240,964,306,0,0,0,3,1,2,31,0003-00-0005-84.png,0004-00-0005-99.png
00000009,38,1,1445627693599,1445627694275,482,261,0,0,0,3,5,2,35,0003-00-0001-98.png,0001-00-0004-03.png
00000009,39,1,1445627695161,1445627695197,867,398,0,0,0,2,1,1,21,0002-00-0009-97.png,0004-00-0003-70.png
00000009,40,1,1445627696344,1445627696380,862,371,0,0,0,4,2,2,42,0005-00-0007-85.png,0002-00-0008-59.png
00000009,41,1,1445627697566,1445627697590,860,408,0,0,0,3,2,1,32,0003-00-0007-58.png,0002-00-0000-71.png
00000009,42,1,1445627698817,1445627698853,888,410,0,0,0,4,3,1,43,0005-00-0006-90.png,0003-00-0005-18.png
00000009,43,0,1445627700069,1445627700149,879,440,0,0,0,1,3,2,13,0004-00-0003-34.png,0003-00-0009-28.png
00000009,44,1,1445627703976,1445627704403,953,339,0,0,0,5,2,3,52,0001-00-0004-33.png,0002-00-0001-55.png
00000009,45,1,1445627705284,1445627705927,462,358,0,0,0,1,5,4,15,0004-00-0000-42.png,0001-00-0001-96.png
00000009,46,1,1445627706867,1445627706903,858,374,0,0,0,3,1,2,31,0003-00-0007-18.png,0004-00-0009-55.png
00000009,47,1,1445627707978,1445627708762,396,403,0,0,0,4,5,1,45,0005-00-0006-23.png,0001-00-0001-14.png
00000009,48,1,1445627709816,1445627709836,877,338,0,0,0,2,1,1,21,0002-00-0008-20.png,0004-00-0002-42.png
00000009,49,1,1445627710920,1445627710980,879,410,0,0,0,5,3,2,53,0001-00-0000-06.png,0003-00-0009-63.png
00000009,50,1,1445627712114,1445627712874,1041,292,0,0,0,4,2,2,42,0005-00-0001-20.png,0002-00-0001-29.png
00000009,51,1,1445627713791,1445627713811,926,391,0,0,0,4,1,3,41,0005-00-0002-22.png,0004-00-0005-57.png
00000009,52,0,1445627714825,1445627714873,888,384,0,0,0,2,4,2,24,0002-00-0005-62.png,0005-00-0005-40.png
00000009,53,1,1445627718005,1445627718561,461,256,0,0,0,1,4,3,14,0004-00-0000-24.png,0005-00-0007-58.png
00000009,54,0,1445627719764,1445627720290,1063,262,0,0,0,1,2,1,12,0004-00-0007-07.png,0002-00-0009-06.png
00000009,55,0,1445627723391,1445627723447,876,265,0,0,0,3,4,1,34,0003-00-0000-59.png,0005-00-0003-56.png
00000009,56,0,1445627726353,1445627726808,377,389,0,0,0,5,4,1,54,0001-00-0002-94.png,0005-00-0005-66.png
00000009,57,1,1445627729932,1445627730373,1079,270,0,0,0,5,1,4,51,0001-00-0007-26.png,0004-00-0005-38.png
00000009,58,1,1445627731660,1445627732352,465,251,0,0,0,2,3,1,23,0002-00-0000-62.png,0003-00-0000-92.png
00000009,59,0,1445627733258,1445627733286,888,410,0,0,0,2,5,3,25,0002-00-0000-93.png,0001-00-0001-41.png
00000009,60,0,1445627736521,1445627736557,889,325,0,0,0,3,5,2,35,0003-00-0005-05.png,0001-00-0006-61.png
00000009,61,1,1445627739649,1445627740332,475,248,0,0,0,3,5,2,35,0003-00-0008-83.png,0001-00-0003-26.png
00000009,62,1,1445627741657,1445627742179,1070,277,0,0,0,3,1,2,31,0003-00-0005-97.png,0004-00-0007-66.png
00000009,63,1,1445627743036,1445627743133,939,422,0,0,0,4,3,1,43,0005-00-0007-98.png,0003-00-0006-99.png
00000009,64,1,1445627744300,1445627744348,913,347,0,0,0,5,1,4,51,0001-00-0009-35.png,0004-00-0001-91.png
00000009,65,0,1445627745463,1445627745519,900,410,0,0,0,1,2,1,12,0004-00-0009-48.png,0002-00-0000-41.png
00000009,66,0,1445627748394,1445627748410,862,324,0,0,0,3,4,1,34,0003-00-0006-64.png,0005-00-0006-41.png
00000009,67,1,1445627751562,1445627751602,943,329,0,0,0,4,1,3,41,0005-00-0004-04.png,0004-00-0008-55.png
00000009,68,1,1445627752615,1445627753256,1041,269,0,0,0,5,2,3,52,0001-00-0002-28.png,0002-00-0008-93.png
00000009,69,1,1445627754128,1445627754188,939,395,0,0,0,3,2,1,32,0003-00-0007-63.png,0002-00-0001-70.png
00000009,70,0,1445627755142,1445627755202,890,392,0,0,0,2,3,1,23,0002-00-0000-79.png,0003-00-0003-09.png
00000009,71,0,1445627758259,1445627758740,452,264,0,0,0,2,1,1,21,0002-00-0001-04.png,0004-00-0003-78.png
00000009,72,0,1445627761864,1445627761973,906,275,0,0,0,1,3,2,13,0004-00-0007-23.png,0003-00-0007-95.png
00000009,73,0,1445627765040,1445627765566,1092,306,0,0,0,4,5,1,45,0005-00-0005-88.png,0001-00-0008-38.png
00000009,74,1,1445627768437,1445627768553,899,274,0,0,0,4,2,2,42,0005-00-0004-25.png,0002-00-0001-82.png
00000009,75,0,1445627769533,1445627769577,863,437,0,0,0,1,4,3,14,0004-00-0005-78.png,0005-00-0002-07.png
00000009,76,1,1445627772673,1445627773207,1084,278,0,0,0,5,3,2,53,0001-00-0009-80.png,0003-00-0006-89.png
00000009,77,0,1445627774074,1445627774134,914,390,0,0,0,1,5,4,15,0004-00-0002-36.png,0001-00-0003-92.png
00000009,78,0,1445627777302,1445627778257,365,376,0,0,0,5,4,1,54,0001-00-0003-75.png,0005-00-0002-14.png
00000009,79,1,1445627783110,1445627783744,368,388,0,0,0,2,4,2,24,0002-00-0005-09.png,0005-00-0001-73.png
00000009,80,0,1445627784588,1445627784656,863,445,0,0,0,2,5,3,25,0002-00-0001-91.png,0001-00-0002-63.png
00000009,81,1,1445627787984,1445627788718,364,382,0,0,0,4,5,1,45,0005-00-0006-44.png,0001-00-0002-87.png
00000009,82,0,1445627789600,1445627789712,957,472,0,0,0,2,5,3,25,0002-00-0003-00.png,0001-00-0006-69.png
00000009,83,1,1445627792767,1445627792823,886,281,0,0,0,5,3,2,53,0001-00-0001-21.png,0003-00-0009-03.png
00000009,84,0,1445627793790,1445627793850,933,456,0,0,0,1,2,1,12,0004-00-0007-22.png,0002-00-0003-85.png
00000009,85,0,1445627796980,1445627797514,400,346,0,0,0,4,3,1,43,0005-00-0005-18.png,0003-00-0000-15.png
00000009,86,1,1445627800630,1445627801077,1092,243,0,0,0,3,1,2,31,0003-00-0004-79.png,0004-00-0008-52.png
00000009,87,1,1445627802387,1445627803564,453,267,0,0,0,3,5,2,35,0003-00-0003-50.png,0001-00-0003-03.png
00000009,88,1,1445627804427,1445627804757,965,471,0,0,0,5,4,1,54,0001-00-0006-00.png,0005-00-0003-72.png
00000009,89,0,1445627805845,1445627805873,916,393,0,0,0,2,3,1,23,0002-00-0006-36.png,0003-00-0001-97.png
00000009,90,0,1445627809224,1445627809724,964,368,0,0,0,3,4,1,34,0003-00-0000-42.png,0005-00-0006-04.png
00000009,91,1,1445627812802,1445627813423,939,384,0,0,0,5,1,4,51,0001-00-0004-25.png,0004-00-0008-38.png
00000009,92,1,1445627814619,1445627815353,1061,297,0,0,0,4,2,2,42,0005-00-0004-07.png,0002-00-0005-00.png
00000009,93,0,1445627816241,1445627816309,946,402,0,0,0,1,5,4,15,0004-00-0000-55.png,0001-00-0005-15.png
00000009,94,1,1445627819440,1445627819468,881,309,0,0,0,3,2,1,32,0003-00-0004-16.png,0002-00-0002-08.png
00000009,95,0,1445627820372,1445627820533,909,436,0,0,0,2,4,2,24,0002-00-0003-70.png,0005-00-0005-47.png
00000009,96,1,1445627823653,1445627824253,964,423,0,0,0,4,1,3,41,0005-00-0003-77.png,0004-00-0002-82.png
00000009,97,1,1445627825468,1445627826053,1088,287,0,0,0,5,2,3,52,0001-00-0007-28.png,0002-00-0008-25.png
00000009,98,1,1445627826909,1445627827614,442,266,0,0,0,1,4,3,14,0004-00-0001-51.png,0005-00-0004-78.png
00000009,99,1,1445627830868,1445627831114,923,354,0,0,0,2,1,1,21,0002-00-0006-47.png,0004-00-0002-33.png
00000009,100,0,1445627832030,1445627832042,862,458,0,0,0,1,3,2,13,0004-00-0005-58.png,0003-00-0003-84.png
00000009,101,1,1445627835111,1445627835546,942,331,0,0,0,5,3,2,53,0001-00-0006-89.png,0003-00-0004-79.png
00000009,102,1,1445627836408,1445627837252,949,332,0,0,0,5,4,1,54,0001-00-0007-81.png,0005-00-0007-86.png
00000009,103,0,1445627838161,1445627838241,913,410,0,0,0,2,4,2,24,0002-00-0001-09.png,0005-00-0007-15.png
00000009,104,1,1445627841452,1445627841940,1067,279,0,0,0,3,1,2,31,0003-00-0002-67.png,0004-00-0005-32.png
00000009,105,0,1445627842791,1445627843654,966,337,0,0,0,4,5,1,45,0005-00-0004-70.png,0001-00-0009-37.png
00000009,106,0,1445627846730,1445627846834,994,272,0,0,0,2,3,1,23,0002-00-0009-02.png,0003-00-0002-76.png
00000009,107,0,1445627849954,1445627851135,394,404,0,0,0,4,3,1,43,0005-00-0001-87.png,0003-00-0000-81.png
00000009,108,1,1445627854173,1445627854357,921,322,0,0,0,5,2,3,52,0001-00-0005-02.png,0002-00-0004-88.png
00000009,109,1,1445627855291,1445627856277,964,371,0,0,0,3,2,1,32,0003-00-0007-01.png,0002-00-0001-92.png
00000009,110,1,1445627857113,1445627857181,904,410,0,0,0,5,1,4,51,0001-00-0002-59.png,0004-00-0003-84.png
00000009,111,1,1445627858308,1445627858336,894,398,0,0,0,4,1,3,41,0005-00-0004-69.png,0004-00-0009-14.png
00000009,112,0,1445627859441,1445627859517,862,424,0,0,0,2,5,3,25,0002-00-0002-49.png,0001-00-0009-77.png
00000009,113,1,1445627862572,1445627863172,405,374,0,0,0,1,3,2,13,0004-00-0007-03.png,0003-00-0000-70.png
00000009,114,0,1445627864510,1445627864696,881,383,0,0,0,1,2,1,12,0004-00-0009-44.png,0002-00-0002-28.png
00000009,115,1,1445627867874,1445627868370,362,421,0,0,0,1,4,3,14,0004-00-0001-92.png,0005-00-0000-19.png
00000009,116,0,1445627869627,1445627870241,437,384,0,0,0,2,1,1,21,0002-00-0003-52.png,0004-00-0006-43.png
00000009,117,1,1445627873233,1445627873696,974,388,0,0,0,4,2,2,42,0005-00-0004-04.png,0002-00-0005-17.png
00000009,118,1,1445627874557,1445627875195,364,368,0,0,0,1,5,4,15,0004-00-0004-36.png,0001-00-0003-56.png
00000009,119,0,1445627876245,1445627876342,859,439,0,0,0,3,4,1,34,0003-00-0003-45.png,0005-00-0008-63.png
00000009,120,0,1445627879274,1445627879298,861,334,0,0,0,3,5,2,35,0003-00-0009-80.png,0001-00-0003-47.png
00000009,121,1,1445627882594,1445627882810,913,306,0,0,0,5,1,4,51,0001-00-0003-23.png,0004-00-0005-31.png
00000009,122,1,1445627883714,1445627884467,464,271,0,0,0,1,2,1,12,0004-00-0007-73.png,0002-00-0008-04.png
00000009,123,0,1445627885304,1445627885328,885,398,0,0,0,1,5,4,15,0004-00-0002-48.png,0001-00-0007-02.png
00000009,124,0,1445627888359,1445627888455,920,294,0,0,0,1,4,3,14,0004-00-0007-12.png,0005-00-0000-27.png
00000009,125,0,1445627891587,1445627892063,955,358,0,0,0,2,5,3,25,0002-00-0002-64.png,0001-00-0007-96.png
00000009,126,1,1445627895217,1445627895680,1070,281,0,0,0,5,2,3,52,0001-00-0009-64.png,0002-00-0007-02.png
00000009,127,0,1445627896986,1445627897836,489,232,0,0,0,4,3,1,43,0005-00-0004-25.png,0003-00-0005-31.png
00000009,128,1,1445627900930,1445627901437,395,384,0,0,0,2,4,2,24,0002-00-0004-37.png,0005-00-0003-28.png
00000009,129,1,1445627902272,1445627903316,448,243,0,0,0,1,3,2,13,0004-00-0006-21.png,0003-00-0000-38.png
00000009,130,1,1445627904227,1445627904289,888,441,0,0,0,3,1,2,31,0003-00-0002-58.png,0004-00-0003-14.png
00000009,131,1,1445627905401,1445627905498,896,424,0,0,0,2,1,1,21,0002-00-0000-38.png,0004-00-0005-52.png
00000009,132,1,1445627906625,1445627906693,862,424,0,0,0,3,2,1,32,0003-00-0005-31.png,0002-00-0001-30.png
00000009,133,0,1445627907906,1445627907994,862,447,0,0,0,4,5,1,45,0005-00-0009-99.png,0001-00-0009-86.png
00000009,134,0,1445627910828,1445627911324,957,331,0,0,0,3,5,2,35,0003-00-0005-91.png,0001-00-0008-11.png
00000009,135,0,1445627914492,1445627915467,367,376,0,0,0,5,4,1,54,0001-00-0006-43.png,0005-00-0003-50.png
00000009,136,1,1445627918612,1445627918744,913,397,0,0,0,4,2,2,42,0005-00-0008-11.png,0002-00-0009-11.png
00000009,137,1,1445627919685,1445627920783,360,363,0,0,0,3,4,1,34,0003-00-0000-02.png,0005-00-0009-91.png
00000009,138,1,1445627921679,1445627921727,862,451,0,0,0,5,3,2,53,0001-00-0001-85.png,0003-00-0000-95.png
00000009,139,1,1445627922792,1445627923424,951,306,0,0,0,4,1,3,41,0005-00-0005-80.png,0004-00-0007-38.png
00000009,140,0,1445627924381,1445627924389,876,441,0,0,0,2,3,1,23,0002-00-0008-86.png,0003-00-0008-23.png
00000009,141,1,1445627927535,1445627928360,939,401,0,0,0,3,2,1,32,0003-00-0000-41.png,0002-00-0008-78.png
00000009,142,0,1445627929269,1445627929301,871,435,0,0,0,2,4,2,24,0002-00-0009-60.png,0005-00-0007-99.png
00000009,143,1,1445627932138,1445627932677,401,347,0,0,0,1,3,2,13,0004-00-0000-70.png,0003-00-0003-04.png
00000009,144,1,1445627933983,1445627934611,491,235,0,0,0,4,5,1,45,0005-00-0007-96.png,0001-00-0008-98.png
00000009,145,1,1445627935526,1445627935628,888,475,0,0,0,4,3,1,43,0005-00-0004-02.png,0003-00-0004-39.png
00000009,146,1,1445627936564,1445627936612,858,410,0,0,0,5,4,1,54,0001-00-0008-76.png,0005-00-0006-22.png
00000009,147,0,1445627937800,1445627937864,895,456,0,0,0,1,4,3,14,0004-00-0003-39.png,0005-00-0001-19.png
00000009,148,1,1445627940789,1445627941678,943,307,0,0,0,5,3,2,53,0001-00-0005-28.png,0003-00-0007-61.png
00000009,149,1,1445627942544,1445627942664,916,468,0,0,0,5,2,3,52,0001-00-0002-60.png,0002-00-0008-39.png
00000009,150,0,1445627943706,1445627943736,863,412,0,0,0,2,5,3,25,0002-00-0009-63.png,0001-00-0009-77.png
00000009,151,1,1445627946728,1445627946748,863,350,0,0,0,5,1,4,51,0001-00-0005-81.png,0004-00-0004-72.png
00000009,152,0,1445627947674,1445627947714,862,462,0,0,0,1,2,1,12,0004-00-0000-59.png,0002-00-0001-06.png
00000009,153,1,1445627950815,1445627951018,980,384,0,0,0,2,1,1,21,0002-00-0004-24.png,0004-00-0000-45.png
00000009,154,1,1445627951968,1445627952056,914,483,0,0,0,3,1,2,31,0003-00-0003-87.png,0004-00-0000-69.png
00000009,155,0,1445627953040,1445627953148,901,436,0,0,0,2,3,1,23,0002-00-0005-91.png,0003-00-0002-94.png
00000009,156,1,1445627956278,1445627956840,481,274,0,0,0,1,5,4,15,0004-00-0001-95.png,0001-00-0004-29.png
00000009,157,0,1445627957691,1445627958931,1076,296,0,0,0,3,5,2,35,0003-00-0007-01.png,0001-00-0001-42.png
00000009,158,0,1445627962123,1445627962640,960,314,0,0,0,3,4,1,34,0003-00-0007-29.png,0005-00-0007-58.png
00000009,159,1,1445627965771,1445627966290,964,392,0,0,0,4,2,2,42,0005-00-0005-21.png,0002-00-0000-91.png
00000009,160,1,1445627967140,1445627967774,950,395,0,0,0,4,1,3,41,0005-00-0004-85.png,0004-00-0006-25.png
00000009,161,1,1445627968644,1445627968708,928,439,0,0,0,5,4,1,54,0001-00-0004-40.png,0005-00-0003-46.png
00000009,162,0,1445627969627,1445627969655,866,413,0,0,0,2,3,1,23,0002-00-0001-79.png,0003-00-0007-56.png
00000009,163,1,1445627972678,1445627972846,961,307,0,0,0,3,2,1,32,0003-00-0006-91.png,0002-00-0005-89.png
00000009,164,1,1445627973714,1445627973751,862,488,0,0,0,4,3,1,43,0005-00-0003-30.png,0003-00-0000-81.png
00000009,165,1,1445627974834,1445627974902,888,436,0,0,0,4,1,3,41,0005-00-0008-88.png,0004-00-0009-21.png
00000009,166,1,1445627975967,1445627976045,862,436,0,0,0,2,1,1,21,0002-00-0008-82.png,0004-00-0000-63.png
00000009,167,0,1445627977447,1445627977535,888,451,0,0,0,4,5,1,45,0005-00-0002-68.png,0001-00-0007-71.png
00000009,168,0,1445627980666,1445627981239,1068,287,0,0,0,2,5,3,25,0002-00-0008-47.png,0001-00-0001-17.png
00000009,169,1,1445627984358,1445627985307,339,424,0,0,0,2,4,2,24,0002-00-0008-10.png,0005-00-0009-45.png
00000009,170,0,1445627986669,1445627987312,1099,273,0,0,0,3,5,2,35,0003-00-0009-44.png,0001-00-0000-95.png
00000009,171,0,1445627990406,1445627991104,967,304,0,0,0,3,4,1,34,0003-00-0002-17.png,0005-00-0003-44.png
00000009,172,1,1445627994071,1445627994576,352,389,0,0,0,1,3,2,13,0004-00-0005-54.png,0003-00-0008-03.png
00000009,173,1,1445627995412,1445627996113,959,340,0,0,0,5,2,3,52,0001-00-0009-38.png,0002-00-0001-62.png
00000009,174,1,1445627997093,1445627997133,913,436,0,0,0,5,3,2,53,0001-00-0000-26.png,0003-00-0006-26.png
00000009,175,0,1445627998247,1445627998287,893,416,0,0,0,1,5,4,15,0004-00-0005-25.png,0001-00-0004-42.png
00000009,176,1,1445628001394,1445628001845,389,359,0,0,0,1,4,3,14,0004-00-0009-76.png,0005-00-0001-72.png
00000009,177,1,1445628003175,1445628003837,458,228,0,0,0,1,2,1,12,0004-00-0008-70.png,0002-00-0001-90.png
00000009,178,1,1445628004671,1445628004723,871,423,0,0,0,4,2,2,42,0005-00-0008-89.png,0002-00-0000-13.png
00000009,179,1,1445628005728,1445628006928,1067,267,0,0,0,5,1,4,51,0001-00-0006-40.png,0004-00-0007-67.png
00000009,180,1,1445628007856,1445628007872,896,429,0,0,0,3,1,2,31,0003-00-0005-13.png,0004-00-0007-66.png
00000009,181,0,1445628009008,1445628009056,893,437,0,0,0,3,4,1,34,0003-00-0005-67.png,0005-00-0000-48.png
00000009,182,0,1445628011950,1445628012504,487,298,0,0,0,5,2,3,52,0001-00-0009-35.png,0002-00-0005-01.png
00000009,183,1,1445628015428,1445628016443,931,313,0,0,0,4,3,1,43,0005-00-0005-86.png,0003-00-0004-40.png
00000009,184,0,1445628017367,1445628017492,939,462,0,0,0,1,2,1,12,0004-00-0008-38.png,0002-00-0001-37.png
00000009,185,1,1445628020489,1445628021021,429,371,0,0,0,2,4,2,24,0002-00-0003-21.png,0005-00-0007-19.png
00000009,186,1,1445628022376,1445628022967,453,257,0,0,0,1,3,2,13,0004-00-0001-34.png,0003-00-0002-78.png
00000009,187,1,1445628023953,1445628024760,473,239,0,0,0,1,4,3,14,0004-00-0006-48.png,0005-00-0009-84.png
00000009,188,1,1445628025734,1445628026597,944,279,0,0,0,3,2,1,32,0003-00-0002-00.png,0002-00-0001-52.png
00000009,189,1,1445628027510,1445628027534,905,437,0,0,0,2,1,1,21,0002-00-0004-51.png,0004-00-0001-51.png
00000009,190,1,1445628028776,1445628028840,901,452,0,0,0,4,1,3,41,0005-00-0005-54.png,0004-00-0008-21.png
00000009,191,1,1445628029887,1445628029947,885,450,0,0,0,5,1,4,51,0001-00-0006-74.png,0004-00-0005-13.png
00000009,192,1,1445628031168,1445628031188,888,469,0,0,0,5,4,1,54,0001-00-0003-27.png,0005-00-0004-93.png
00000009,193,0,1445628032575,1445628032637,888,478,0,0,0,4,5,1,45,0005-00-0004-16.png,0001-00-0009-13.png
00000009,194,0,1445628035661,1445628035855,934,347,0,0,0,1,5,4,15,0004-00-0006-07.png,0001-00-0006-48.png
00000009,195,0,1445628038700,1445628039263,1069,300,0,0,0,3,5,2,35,0003-00-0002-59.png,0001-00-0009-05.png
00000009,196,1,1445628042180,1445628042228,892,382,0,0,0,4,2,2,42,0005-00-0006-00.png,0002-00-0003-87.png
00000009,197,1,1445628043175,1445628043203,888,436,0,0,0,5,3,2,53,0001-00-0009-84.png,0003-00-0007-54.png
00000009,198,1,1445628044163,1445628044857,393,364,0,0,0,2,3,1,23,0002-00-0006-89.png,0003-00-0002-20.png
00000009,199,1,1445628045726,1445628046647,486,244,0,0,0,2,5,3,25,0002-00-0006-02.png,0001-00-0004-39.png
00000009,200,1,1445628047566,1445628047574,857,438,0,0,0,3,1,2,31,0003-00-0000-60.png,0004-00-0001-58.png
00000009,201,1,1445628048490,1445628049421,1075,337,0,0,0,5,1,4,51,0001-00-0001-52.png,0004-00-0009-95.png
00000009,202,1,1445628050295,1445628050358,886,424,0,0,0,2,1,1,21,0002-00-0003-56.png,0004-00-0005-14.png
00000009,203,1,1445628051392,1445628052148,353,375,0,0,0,1,2,1,12,0004-00-0003-63.png,0002-00-0007-17.png
00000009,204,1,1445628053085,1445628053874,881,372,0,0,0,5,2,3,52,0001-00-0009-71.png,0002-00-0003-06.png
00000009,205,0,1445628054789,1445628054813,892,421,0,0,0,2,4,2,24,0002-00-0001-43.png,0005-00-0004-60.png
00000009,206,1,1445628057749,1445628058653,375,374,0,0,0,2,5,3,25,0002-00-0003-76.png,0001-00-0002-92.png
00000009,207,0,1445628059597,1445628059621,862,462,0,0,0,3,5,2,35,0003-00-0006-30.png,0001-00-0006-64.png
00000009,208,1,1445628062501,1445628063213,396,359,0,0,0,1,3,2,13,0004-00-0005-23.png,0003-00-0006-99.png
00000009,209,1,1445628064539,1445628065127,964,320,0,0,0,4,1,3,41,0005-00-0004-83.png,0004-00-0007-50.png
00000009,210,1,1445628066496,1445628067370,1059,299,0,0,0,4,3,1,43,0005-00-0002-43.png,0003-00-0002-09.png
00000009,211,0,1445628068711,1445628069561,946,338,0,0,0,3,4,1,34,0003-00-0002-67.png,0005-00-0003-41.png
00000009,212,1,1445628072697,1445628073144,489,281,0,0,0,1,5,4,15,0004-00-0001-34.png,0001-00-0003-95.png
00000009,213,1,1445628074527,1445628075130,917,345,0,0,0,5,4,1,54,0001-00-0003-73.png,0005-00-0009-72.png
00000009,214,0,1445628076016,1445628076044,913,462,0,0,0,2,3,1,23,0002-00-0009-47.png,0003-00-0008-19.png
00000009,215,1,1445628078904,1445628078941,936,352,0,0,0,4,2,2,42,0005-00-0005-42.png,0002-00-0001-36.png
00000009,216,1,1445628079962,1445628079998,873,462,0,0,0,3,2,1,32,0003-00-0009-47.png,0002-00-0003-91.png
00000009,217,1,1445628080974,1445628081871,968,330,0,0,0,3,1,2,31,0003-00-0007-60.png,0004-00-0004-05.png
00000009,218,1,1445628082813,1445628082890,926,436,0,0,0,5,3,2,53,0001-00-0009-44.png,0003-00-0001-23.png
00000009,219,0,1445628084025,1445628084109,888,462,0,0,0,1,4,3,14,0004-00-0000-20.png,0005-00-0003-72.png
00000009,220,0,1445628087075,1445628087597,930,328,0,0,0,4,5,1,45,0005-00-0003-18.png,0001-00-0002-45.png
00000009,221,1,1445628090633,1445628091173,442,436,0,0,0,2,4,2,24,0002-00-0008-16.png,0005-00-0004-09.png
00000009,222,0,1445628092403,1445628092430,865,384,0,0,0,3,5,2,35,0003-00-0008-02.png,0001-00-0007-62.png
00000009,223,0,1445628095566,1445628096076,948,338,0,0,0,2,5,3,25,0002-00-0000-99.png,0001-00-0008-15.png
00000009,224,1,1445628099220,1445628100015,918,331,0,0,0,4,2,2,42,0005-00-0009-99.png,0002-00-0009-66.png
00000009,225,1,1445628100909,1445628100929,876,450,0,0,0,4,3,1,43,0005-00-0001-65.png,0003-00-0000-50.png
00000009,226,1,1445628101853,1445628102813,504,239,0,0,0,2,3,1,23,0002-00-0002-32.png,0003-00-0006-63.png
00000009,227,1,1445628103691,1445628103723,891,445,0,0,0,3,1,2,31,0003-00-0004-06.png,0004-00-0002-89.png
00000009,228,1,1445628104883,1445628105663,913,358,0,0,0,5,2,3,52,0001-00-0003-83.png,0002-00-0004-48.png
00000009,229,1,1445628106571,1445628106631,911,465,0,0,0,5,3,2,53,0001-00-0003-57.png,0003-00-0000-32.png
00000009,230,1,1445628107707,1445628107755,879,436,0,0,0,5,4,1,54,0001-00-0009-80.png,0005-00-0000-25.png
00000009,231,0,1445628108860,1445628108880,868,422,0,0,0,1,5,4,15,0004-00-0006-16.png,0001-00-0005-60.png
00000009,232,1,1445628111727,1445628112191,964,319,0,0,0,4,1,3,41,0005-00-0004-92.png,0004-00-0000-57.png
00000009,233,0,1445628113467,1445628113491,862,384,0,0,0,4,5,1,45,0005-00-0000-15.png,0001-00-0000-77.png
00000009,234,0,1445628116598,1445628116731,910,368,0,0,0,1,3,2,13,0004-00-0001-93.png,0003-00-0002-50.png
00000009,235,1,1445628119880,1445628120097,952,341,0,0,0,5,1,4,51,0001-00-0004-65.png,0004-00-0003-95.png
00000009,236,1,1445628121022,1445628121062,890,458,0,0,0,2,1,1,21,0002-00-0005-76.png,0004-00-0007-51.png
00000009,237,1,1445628122086,1445628122998,489,255,0,0,0,1,4,3,14,0004-00-0004-17.png,0005-00-0005-04.png
00000009,238,1,1445628123920,1445628123963,887,407,0,0,0,3,2,1,32,0003-00-0006-04.png,0002-00-0008-69.png
00000009,239,0,1445628125027,1445628125107,879,444,0,0,0,3,4,1,34,0003-00-0001-71.png,0005-00-0007-30.png
00000009,240,0,1445628128245,1445628128740,964,398,0,0,0,1,2,1,12,0004-00-0009-59.png,0002-00-0003-09.png
00000009,241,1,1445628131634,1445628132380,370,381,0,0,0,1,4,3,14,0004-00-0002-09.png,0005-00-0008-63.png
00000009,242,0,1445628133709,1445628134103,1040,490,0,0,0,1,3,2,13,0004-00-0004-18.png,0003-00-0006-29.png
00000009,243,1,1445628137270,1445628137787,502,256,0,0,0,2,4,2,24,0002-00-0006-25.png,0005-00-0000-24.png
00000009,244,1,1445628139047,1445628139741,496,294,0,0,0,2,5,3,25,0002-00-0007-62.png,0001-00-0006-66.png
00000009,245,1,1445628140629,1445628141741,1073,288,0,0,0,4,3,1,43,0005-00-0006-16.png,0003-00-0004-25.png
00000009,246,1,1445628142677,1445628142729,924,436,0,0,0,5,1,4,51,0001-00-0000-02.png,0004-00-0004-24.png
00000009,247,1,1445628143830,1445628143850,886,414,0,0,0,3,2,1,32,0003-00-0001-93.png,0002-00-0001-77.png
00000009,248,0,1445628144942,1445628144982,881,410,0,0,0,3,5,2,35,0003-00-0007-47.png,0001-00-0003-29.png
00000009,249,1,1445628148101,1445628148129,968,309,0,0,0,4,2,2,42,0005-00-0006-42.png,0002-00-0008-81.png
00000009,250,1,1445628149025,1445628149615,995,399,0,0,0,4,1,3,41,0005-00-0007-25.png,0004-00-0006-23.png
00000009,251,0,1445628150442,1445628150494,944,439,0,0,0,1,2,1,12,0004-00-0006-74.png,0002-00-0006-94.png
00000009,252,0,1445628153646,1445628154162,418,345,0,0,0,5,4,1,54,0001-00-0000-17.png,0005-00-0008-66.png
00000009,253,1,1445628157114,1445628157162,876,417,0,0,0,5,3,2,53,0001-00-0000-54.png,0003-00-0001-35.png
00000009,254,0,1445628158066,1445628158382,964,500,0,0,0,1,5,4,15,0004-00-0002-19.png,0001-00-0007-04.png
00000009,255,1,1445628161258,1445628161758,1078,330,0,0,0,5,2,3,52,0001-00-0000-53.png,0002-00-0009-99.png
00000009,256,1,1445628163168,1445628163708,1079,293,0,0,0,3,1,2,31,0003-00-0002-91.png,0004-00-0003-05.png
00000009,257,1,1445628167102,1445628167625,1077,253,0,0,0,2,1,1,21,0002-00-0007-58.png,0004-00-0008-90.png
00000009,258,0,1445628168491,1445628168582,927,410,0,0,0,2,3,1,23,0002-00-0004-96.png,0003-00-0005-11.png
00000009,259,0,1445628171524,1445628171560,907,325,0,0,0,3,4,1,34,0003-00-0003-37.png,0005-00-0009-89.png
00000009,260,0,1445628174643,1445628175111,1099,277,0,0,0,4,5,1,45,0005-00-0001-73.png,0001-00-0004-34.png
00000009,261,0,1445628178035,1445628178070,907,355,0,0,0,3,4,1,34,0003-00-0009-30.png,0005-00-0005-10.png
00000009,262,1,1445628181192,1445628182275,448,270,0,0,0,2,5,3,25,0002-00-0008-60.png,0001-00-0004-75.png
00000009,263,0,1445628183121,1445628184327,1072,306,0,0,0,2,3,1,23,0002-00-0008-39.png,0003-00-0002-11.png
00000009,264,1,1445628187383,1445628187931,404,345,0,0,0,1,5,4,15,0004-00-0008-83.png,0001-00-0006-39.png
00000009,265,0,1445628189224,1445628189975,1052,253,0,0,0,3,5,2,35,0003-00-0003-43.png,0001-00-0003-78.png
00000009,266,1,1445628193078,1445628193695,987,347,0,0,0,3,2,1,32,0003-00-0002-15.png,0002-00-0003-96.png
00000009,267,1,1445628194561,1445628194605,913,462,0,0,0,5,1,4,51,0001-00-0006-29.png,0004-00-0009-92.png
00000009,268,1,1445628195645,1445628195693,866,400,0,0,0,5,4,1,54,0001-00-0003-82.png,0005-00-0003-67.png
00000009,269,1,1445628196827,1445628196875,875,446,0,0,0,4,2,2,42,0005-00-0000-42.png,0002-00-0009-66.png
00000009,270,0,1445628198057,1445628198105,881,443,0,0,0,1,2,1,12,0004-00-0001-32.png,0002-00-0005-88.png
00000009,271,1,1445628201268,1445628201740,437,277,0,0,0,1,4,3,14,0004-00-0002-05.png,0005-00-0001-01.png
00000009,272,1,1445628203012,1445628203073,884,398,0,0,0,3,1,2,31,0003-00-0007-35.png,0004-00-0006-94.png
00000009,273,1,1445628204067,1445628204100,868,388,0,0,0,4,3,1,43,0005-00-0005-12.png,0003-00-0003-97.png
00000009,274,1,1445628205211,1445628205277,862,420,0,0,0,5,3,2,53,0001-00-0009-35.png,0003-00-0002-31.png
00000009,275,0,1445628206574,1445628207467,915,356,0,0,0,1,3,2,13,0004-00-0003-92.png,0003-00-0007-83.png
00000009,276,1,1445628210478,1445628210974,445,402,0,0,0,2,4,2,24,0002-00-0004-49.png,0005-00-0007-02.png
00000009,277,1,1445628212337,1445628213155,475,261,0,0,0,4,5,1,45,0005-00-0004-46.png,0001-00-0002-38.png
00000009,278,1,1445628214544,1445628214600,870,427,0,0,0,4,1,3,41,0005-00-0008-58.png,0004-00-0007-56.png
00000009,279,1,1445628215628,1445628215648,868,400,0,0,0,5,2,3,52,0001-00-0001-24.png,0002-00-0003-70.png
00000009,280,1,1445628216860,1445628216888,908,422,0,0,0,2,1,1,21,0002-00-0008-53.png,0004-00-0002-41.png
00000009,281,0,1445628217962,1445628217983,886,415,0,0,0,4,5,1,45,0005-00-0007-86.png,0001-00-0004-13.png
00000009,282,1,1445628220814,1445628221328,964,322,0,0,0,4,3,1,43,0005-00-0000-14.png,0003-00-0005-11.png
00000009,283,0,1445628222724,1445628222728,889,383,0,0,0,1,2,1,12,0004-00-0009-93.png,0002-00-0004-25.png
00000009,284,0,1445628230390,1445628230884,957,355,0,0,0,3,4,1,34,0003-00-0008-47.png,0005-00-0004-81.png
00000009,285,1,1445628233750,1445628234256,968,311,0,0,0,4,1,3,41,0005-00-0009-28.png,0004-00-0004-02.png
00000009,286,0,1445628235389,1445628235465,990,436,0,0,0,1,4,3,14,0004-00-0000-80.png,0005-00-0002-28.png
00000009,287,1,1445628238300,1445628238841,394,386,0,0,0,2,3,1,23,0002-00-0004-25.png,0003-00-0002-47.png
00000009,288,1,1445628239742,1445628239818,898,455,0,0,0,5,4,1,54,0001-00-0001-88.png,0005-00-0003-43.png
00000009,289,1,1445628240790,1445628240845,890,428,0,0,0,5,1,4,51,0001-00-0006-86.png,0004-00-0001-17.png
00000009,290,0,1445628241937,1445628241981,874,443,0,0,0,2,4,2,24,0002-00-0005-19.png,0005-00-0003-20.png
00000009,291,1,1445628245107,1445628245273,898,410,0,0,0,3,1,2,31,0003-00-0009-72.png,0004-00-0001-97.png
00000009,292,1,1445628246162,1445628246190,894,480,0,0,0,2,1,1,21,0002-00-0007-82.png,0004-00-0003-93.png
00000009,293,1,1445628247475,1445628248428,1041,322,0,0,0,5,3,2,53,0001-00-0004-78.png,0003-00-0002-99.png
00000009,294,1,1445628249311,1445628249383,913,440,0,0,0,5,2,3,52,0001-00-0005-35.png,0002-00-0000-00.png
00000009,295,0,1445628250384,1445628250485,879,439,0,0,0,1,3,2,13,0004-00-0004-54.png,0003-00-0001-41.png
00000009,296,1,1445628253646,1445628254129,963,338,0,0,0,4,2,2,42,0005-00-0005-03.png,0002-00-0000-07.png
00000009,297,0,1445628254984,1445628255004,918,414,0,0,0,1,5,4,15,0004-00-0004-53.png,0001-00-0005-20.png
00000009,298,1,1445628258146,1445628258689,415,354,0,0,0,2,5,3,25,0002-00-0008-24.png,0001-00-0003-20.png
00000009,299,0,1445628259665,1445628259685,879,438,0,0,0,3,5,2,35,0003-00-0009-10.png,0001-00-0005-29.png
00000009,300,1,1445628262667,1445628263161,976,306,0,0,0,3,2,1,32,0003-00-0001-41.png,0002-00-0003-50.png
00000009,301,0,1445628264049,1445628264081,903,462,0,0,0,1,2,1,12,0004-00-0002-27.png,0002-00-0008-78.png
00000009,302,1,1445628266898,1445628267745,1058,316,0,0,0,4,3,1,43,0005-00-0000-18.png,0003-00-0005-52.png
00000009,303,1,1445628268701,1445628268778,913,462,0,0,0,5,1,4,51,0001-00-0004-93.png,0004-00-0005-51.png
00000009,304,1,1445628269744,1445628269772,888,384,0,0,0,5,2,3,52,0001-00-0009-56.png,0002-00-0008-15.png
00000009,305,0,1445628270944,1445628271016,888,424,0,0,0,2,3,1,23,0002-00-0003-72.png,0003-00-0005-24.png
00000009,306,1,1445628273998,1445628274543,484,289,0,0,0,1,5,4,15,0004-00-0001-33.png,0001-00-0009-22.png
00000009,307,0,1445628275417,1445628275465,862,478,0,0,0,2,4,2,24,0002-00-0005-32.png,0005-00-0008-61.png
00000009,308,1,1445628278466,1445628279251,362,319,0,0,0,3,4,1,34,0003-00-0008-34.png,0005-00-0008-91.png
00000009,309,0,1445628280274,1445628280302,888,437,0,0,0,3,5,2,35,0003-00-0007-17.png,0001-00-0002-11.png
00000009,310,0,1445628283436,1445628284057,507,266,0,0,0,2,1,1,21,0002-00-0001-20.png,0004-00-0005-96.png
00000009,311,1,1445628287449,1445628287981,967,334,0,0,0,3,2,1,32,0003-00-0003-91.png,0002-00-0007-40.png
00000009,312,1,1445628288807,1445628288847,899,438,0,0,0,4,2,2,42,0005-00-0005-97.png,0002-00-0003-13.png
00000009,313,1,1445628289785,1445628290534,479,245,0,0,0,1,4,3,14,0004-00-0005-92.png,0005-00-0008-95.png
00000009,314,1,1445628291383,1445628292160,474,306,0,0,0,1,3,2,13,0004-00-0008-36.png,0003-00-0002-19.png
00000009,315,1,1445628293083,1445628294434,459,257,0,0,0,4,5,1,45,0005-00-0009-51.png,0001-00-0005-99.png
00000009,316,1,1445628295408,1445628295448,869,429,0,0,0,4,1,3,41,0005-00-0004-50.png,0004-00-0004-02.png
00000009,317,1,1445628296452,1445628297272,922,328,0,0,0,5,4,1,54,0001-00-0009-84.png,0005-00-0003-90.png
00000009,318,1,1445628298150,1445628298172,898,386,0,0,0,5,3,2,53,0001-00-0001-30.png,0003-00-0005-22.png
00000009,319,1,1445628299193,1445628299217,867,412,0,0,0,3,1,2,31,0003-00-0004-53.png,0004-00-0001-91.png
00000009,320,0,1445628300368,1445628300407,903,459,0,0,0,2,5,3,25,0002-00-0002-84.png,0001-00-0008-31.png
00000009,321,1,1445628303338,1445628303915,391,366,0,0,0,4,5,1,45,0005-00-0002-32.png,0001-00-0008-41.png
00000009,322,1,1445628305256,1445628306200,1055,291,0,0,0,4,3,1,43,0005-00-0006-17.png,0003-00-0007-51.png
00000009,323,1,1445628307073,1445628307114,903,444,0,0,0,3,1,2,31,0003-00-0005-72.png,0004-00-0000-54.png
00000009,324,1,1445628308246,1445628308282,888,437,0,0,0,2,1,1,21,0002-00-0009-69.png,0004-00-0006-93.png
00000009,325,1,1445628309440,1445628309468,865,443,0,0,0,3,2,1,32,0003-00-0002-52.png,0002-00-0008-35.png
00000009,326,0,1445628310584,1445628310620,893,420,0,0,0,3,4,1,34,0003-00-0007-10.png,0005-00-0000-94.png
00000009,327,1,1445628313694,1445628313738,933,332,0,0,0,4,2,2,42,0005-00-0004-80.png,0002-00-0008-17.png
00000009,328,1,1445628314764,1445628314804,888,471,0,0,0,5,3,2,53,0001-00-0000-97.png,0003-00-0003-53.png
00000009,329,1,1445628315749,1445628316643,477,237,0,0,0,1,2,1,12,0004-00-0008-38.png,0002-00-0005-70.png
00000009,330,1,1445628317568,1445628317604,866,408,0,0,0,5,2,3,52,0001-00-0004-42.png,0002-00-0005-40.png
00000009,331,1,1445628318591,1445628319350,485,310,0,0,0,2,3,1,23,0002-00-0006-36.png,0003-00-0005-43.png
00000009,332,1,1445628320261,1445628320969,471,217,0,0,0,2,5,3,25,0002-00-0004-93.png,0001-00-0004-42.png
00000009,333,1,1445628321861,1445628321885,859,405,0,0,0,4,1,3,41,0005-00-0005-25.png,0004-00-0007-55.png
00000009,334,0,1445628323054,1445628323082,891,439,0,0,0,1,4,3,14,0004-00-0002-28.png,0005-00-0000-33.png
00000009,335,0,1445628326234,1445628326242,918,320,0,0,0,3,5,2,35,0003-00-0004-45.png,0001-00-0009-79.png
00000009,336,1,1445628329124,1445628329136,880,382,0,0,0,5,1,4,51,0001-00-0004-78.png,0004-00-0004-67.png
00000009,337,1,1445628330118,1445628330150,883,414,0,0,0,5,4,1,54,0001-00-0002-08.png,0005-00-0006-52.png
00000009,338,1,1445628331203,1445628331920,353,373,0,0,0,1,3,2,13,0004-00-0000-60.png,0003-00-0008-09.png
00000009,339,0,1445628332823,1445628332831,877,394,0,0,0,2,4,2,24,0002-00-0007-45.png,0005-00-0003-17.png
00000009,340,1,1445628335714,1445628336209,415,352,0,0,0,1,5,4,15,0004-00-0007-57.png,0001-00-0001-31.png
00000009,341,0,1445628337532,1445628337926,1044,518,0,0,0,3,5,2,35,0003-00-0004-09.png,0001-00-0009-88.png
00000009,342,1,1445628340922,1445628341467,505,265,0,0,0,2,4,2,24,0002-00-0002-57.png,0005-00-0003-87.png
00000009,343,1,1445628342289,1445628342997,945,372,0,0,0,5,2,3,52,0001-00-0007-38.png,0002-00-0008-82.png
00000009,344,1,1445628344391,1445628344752,943,527,0,0,0,5,4,1,54,0001-00-0008-41.png,0005-00-0004-77.png
00000009,345,1,1445628345741,1445628345801,888,423,0,0,0,5,1,4,51,0001-00-0006-71.png,0004-00-0007-54.png
00000009,346,1,1445628346874,1445628346910,888,436,0,0,0,2,1,1,21,0002-00-0004-11.png,0004-00-0008-67.png
00000009,347,0,1445628348057,1445628348093,882,447,0,0,0,1,3,2,13,0004-00-0007-66.png,0003-00-0002-31.png
00000009,348,1,1445628350940,1445628351473,936,371,0,0,0,3,2,1,32,0003-00-0007-95.png,0002-00-0002-16.png
00000009,349,1,1445628352419,1445628352479,939,410,0,0,0,3,1,2,31,0003-00-0002-74.png,0004-00-0009-03.png
00000009,350,0,1445628353432,1445628353448,865,438,0,0,0,1,4,3,14,0004-00-0001-18.png,0005-00-0006-08.png
00000009,351,0,1445628356601,1445628356649,938,333,0,0,0,2,5,3,25,0002-00-0006-68.png,0001-00-0005-53.png
00000009,352,0,1445628359823,1445628360306,412,342,0,0,0,4,2,2,42,0005-00-0005-97.png,0002-00-0008-79.png
00000009,353,0,1445628363429,1445628363469,952,355,0,0,0,4,5,1,45,0005-00-0005-01.png,0001-00-0002-58.png
00000009,354,0,1445628366411,1445628366933,437,366,0,0,0,5,3,2,53,0001-00-0004-48.png,0003-00-0008-46.png
00000009,355,0,1445628370076,1445628370096,894,319,0,0,0,3,4,1,34,0003-00-0002-98.png,0005-00-0004-92.png
00000009,356,1,1445628372969,1445628373009,932,381,0,0,0,4,1,3,41,0005-00-0008-66.png,0004-00-0000-13.png
00000009,357,0,1445628373965,1445628373985,913,410,0,0,0,1,5,4,15,0004-00-0004-97.png,0001-00-0001-10.png
00000009,358,1,1445628377244,1445628378016,431,408,0,0,0,2,3,1,23,0002-00-0001-06.png,0003-00-0001-08.png
00000009,359,0,1445628379579,1445628380078,1041,267,0,0,0,1,2,1,12,0004-00-0005-61.png,0002-00-0000-21.png
00000009,360,0,1445628382925,1445628384446,427,279,0,0,0,4,3,1,43,0005-00-0005-40.png,0003-00-0002-32.png
00000009,361,1,1445628387558,1445628388031,1110,276,0,0,0,3,1,2,31,0003-00-0006-26.png,0004-00-0001-27.png
00000009,362,0,1445628389446,1445628389861,997,500,0,0,0,2,4,2,24,0002-00-0009-30.png,0005-00-0009-39.png
00000009,363,1,1445628392704,1445628393236,1067,279,0,0,0,4,2,2,42,0005-00-0006-82.png,0002-00-0004-47.png
00000009,364,1,1445628394103,1445628394115,913,446,0,0,0,5,1,4,51,0001-00-0009-44.png,0004-00-0006-51.png
00000009,365,0,1445628395121,1445628395157,863,386,0,0,0,3,4,1,34,0003-00-0004-69.png,0005-00-0001-08.png
00000009,366,1,1445628398311,1445628398772,1092,264,0,0,0,3,2,1,32,0003-00-0002-80.png,0002-00-0000-18.png
00000009,367,1,1445628400140,1445628400814,492,287,0,0,0,1,2,1,12,0004-00-0006-40.png,0002-00-0000-40.png
00000009,368,1,1445628402224,1445628402244,874,376,0,0,0,5,2,3,52,0001-00-0008-17.png,0002-00-0002-64.png
00000009,369,0,1445628403299,1445628403335,890,419,0,0,0,2,3,1,23,0002-00-0008-95.png,0003-00-0003-55.png
00000009,370,1,1445628406567,1445628406820,1004,356,0,0,0,2,1,1,21,0002-00-0001-41.png,0004-00-0006-18.png
00000009,371,0,1445628407749,1445628407810,915,437,0,0,0,3,5,2,35,0003-00-0002-65.png,0001-00-0003-35.png
00000009,372,0,1445628410920,1445628411448,491,292,0,0,0,5,4,1,54,0001-00-0009-47.png,0005-00-0007-30.png
00000009,373,0,1445628414908,1445628415388,1092,279,0,0,0,4,5,1,45,0005-00-0005-31.png,0001-00-0008-07.png
00000009,374,1,1445628418513,1445628418997,402,374,0,0,0,2,5,3,25,0002-00-0007-60.png,0001-00-0004-31.png
00000009,375,1,1445628420342,1445628420909,477,246,0,0,0,1,4,3,14,0004-00-0007-01.png,0005-00-0009-35.png
00000009,376,1,1445628421740,1445628421780,865,389,0,0,0,5,3,2,53,0001-00-0008-94.png,0003-00-0005-92.png
00000009,377,1,1445628422925,1445628422973,873,410,0,0,0,4,3,1,43,0005-00-0000-75.png,0003-00-0003-45.png
00000009,378,0,1445628424148,1445628424192,910,435,0,0,0,1,3,2,13,0004-00-0009-45.png,0003-00-0002-89.png
00000009,379,0,1445628427345,1445628427369,926,306,0,0,0,1,5,4,15,0004-00-0001-98.png,0001-00-0003-39.png
00000009,380,1,1445628430399,1445628431051,975,410,0,0,0,4,1,3,41,0005-00-0000-42.png,0004-00-0003-59.png
00000009,381,0,1445628431885,1445628431940,924,410,0,0,0,1,4,3,14,0004-00-0002-51.png,0005-00-0006-38.png
00000009,382,0,1445628434861,1445628434885,867,409,0,0,0,1,2,1,12,0004-00-0002-53.png,0002-00-0006-50.png
00000009,383,1,1445628437723,1445628438277,377,346,0,0,0,2,5,3,25,0002-00-0007-00.png,0001-00-0007-13.png
00000009,384,1,1445628439130,1445628439162,903,436,0,0,0,4,3,1,43,0005-00-0003-44.png,0003-00-0007-61.png
00000009,385,0,1445628440494,1445628440800,949,488,0,0,0,1,3,2,13,0004-00-0003-92.png,0003-00-0007-02.png
00000009,386,1,1445628444231,1445628444742,963,305,0,0,0,4,1,3,41,0005-00-0000-57.png,0004-00-0008-34.png
00000009,387,1,1445628446159,1445628446353,990,462,0,0,0,5,4,1,54,0001-00-0009-23.png,0005-00-0005-90.png
00000009,388,1,1445628447359,1445628447379,869,415,0,0,0,5,1,4,51,0001-00-0001-62.png,0004-00-0003-78.png
00000009,389,1,1445628448403,1445628449785,504,239,0,0,0,3,4,1,34,0003-00-0000-21.png,0005-00-0009-65.png
00000009,390,1,1445628450709,1445628451477,1016,267,0,0,0,2,1,1,21,0002-00-0001-83.png,0004-00-0005-35.png
00000009,391,1,1445628452496,1445628452524,924,432,0,0,0,3,1,2,31,0003-00-0001-99.png,0004-00-0007-17.png
00000009,392,0,1445628453801,1445628453840,919,441,0,0,0,4,5,1,45,0005-00-0007-02.png,0001-00-0001-31.png
00000009,393,1,1445628456840,1445628457353,1070,274,0,0,0,4,2,2,42,0005-00-0001-06.png,0002-00-0003-39.png
00000009,394,0,1445628458650,1445628458666,869,384,0,0,0,3,5,2,35,0003-00-0005-72.png,0001-00-0003-61.png
00000009,395,1,1445628461570,1445628461606,875,374,0,0,0,5,3,2,53,0001-00-0005-97.png,0003-00-0001-26.png
00000009,396,0,1445628462543,1445628462566,863,486,0,0,0,2,3,1,23,0002-00-0008-16.png,0003-00-0007-00.png
00000009,397,1,1445628465495,1445628466061,939,384,0,0,0,3,2,1,32,0003-00-0007-33.png,0002-00-0003-16.png
00000009,398,0,1445628466895,1445628466923,908,488,0,0,0,2,4,2,24,0002-00-0007-12.png,0005-00-0005-83.png
00000009,399,1,1445628470028,1445628470535,388,373,0,0,0,1,5,4,15,0004-00-0008-71.png,0001-00-0000-01.png
00000009,400,0,1445628471900,1445628473037,377,329,0,0,0,5,2,3,52,0001-00-0006-10.png,0002-00-0009-33.png
00000009,401,0,1445628475909,1445628475961,937,371,0,0,0,1,3,2,13,0004-00-0005-67.png,0003-00-0003-24.png
00000009,402,0,1445628479109,1445628479750,479,274,0,0,0,2,1,1,21,0002-00-0009-87.png,0004-00-0008-49.png
00000009,403,0,1445628482848,1445628482986,862,410,0,0,0,1,2,1,12,0004-00-0006-34.png,0002-00-0007-19.png
00000009,404,1,1445628486038,1445628486531,397,427,0,0,0,1,5,4,15,0004-00-0004-44.png,0001-00-0004-81.png
00000009,405,0,1445628487835,1445628488560,1067,279,0,0,0,3,4,1,34,0003-00-0003-81.png,0005-00-0006-18.png
00000009,406,1,1445628491424,1445628491969,974,332,0,0,0,5,2,3,52,0001-00-0005-74.png,0002-00-0004-13.png
00000009,407,0,1445628492895,1445628492919,913,425,0,0,0,4,5,1,45,0005-00-0003-44.png,0001-00-0007-24.png
00000009,408,1,1445628496074,1445628496611,514,275,0,0,0,1,4,3,14,0004-00-0001-55.png,0005-00-0007-50.png
00000009,409,1,1445628497834,1445628498037,964,421,0,0,0,5,1,4,51,0001-00-0007-02.png,0004-00-0005-96.png
00000009,410,0,1445628499115,1445628499163,913,410,0,0,0,2,4,2,24,0002-00-0009-07.png,0005-00-0003-83.png
00000009,411,1,1445628502045,1445628502890,1067,279,0,0,0,4,3,1,43,0005-00-0001-66.png,0003-00-0004-38.png
00000009,412,0,1445628503768,1445628504402,369,365,0,0,0,5,3,2,53,0001-00-0001-02.png,0003-00-0008-65.png
00000009,413,1,1445628507245,1445628507793,405,376,0,0,0,2,5,3,25,0002-00-0002-21.png,0001-00-0003-32.png
00000009,414,1,1445628509125,1445628509397,1010,462,0,0,0,4,2,2,42,0005-00-0003-29.png,0002-00-0006-64.png
00000009,415,1,1445628510414,1445628510454,912,356,0,0,0,4,1,3,41,0005-00-0001-33.png,0004-00-0004-91.png
00000009,416,1,1445628511567,1445628511587,858,387,0,0,0,3,2,1,32,0003-00-0009-40.png,0002-00-0007-78.png
00000009,417,1,1445628512710,1445628512738,884,391,0,0,0,5,4,1,54,0001-00-0002-13.png,0005-00-0009-45.png
00000009,418,0,1445628513871,1445628513911,888,453,0,0,0,3,5,2,35,0003-00-0006-53.png,0001-00-0001-47.png
00000009,419,1,1445628516954,1445628517530,447,390,0,0,0,2,3,1,23,0002-00-0008-90.png,0003-00-0005-63.png
00000009,420,1,1445628518952,1445628519518,1061,270,0,0,0,3,1,2,31,0003-00-0000-46.png,0004-00-0005-98.png
00000009,421,1,1445628520392,1445628520412,921,407,0,0,0,3,1,2,31,0003-00-0007-93.png,0004-00-0007-33.png
00000009,422,0,1445628521397,1445628521433,883,397,0,0,0,1,5,4,15,0004-00-0002-88.png,0001-00-0001-31.png
00000009,423,1,1445628524340,1445628524891,470,248,0,0,0,1,4,3,14,0004-00-0009-31.png,0005-00-0000-28.png
00000009,424,1,1445628526216,1445628527019,505,266,0,0,0,2,4,2,24,0002-00-0007-41.png,0005-00-0009-55.png
00000009,425,0,1445628527897,1445628528868,1067,268,0,0,0,3,4,1,34,0003-00-0007-84.png,0005-00-0004-00.png
00000009,426,0,1445628531880,1445628532526,939,347,0,0,0,3,5,2,35,0003-00-0005-16.png,0001-00-0009-67.png
00000009,427,1,1445628535607,1445628536097,964,329,0,0,0,4,2,2,42,0005-00-0004-38.png,0002-00-0004-62.png
00000009,428,0,1445628536969,1445628536973,896,441,0,0,0,1,2,1,12,0004-00-0002-69.png,0002-00-0000-55.png
00000009,429,1,1445628540058,1445628540161,955,279,0,0,0,5,2,3,52,0001-00-0002-67.png,0002-00-0007-30.png
00000009,430,0,1445628541132,1445628541140,911,458,0,0,0,1,3,2,13,0004-00-0007-93.png,0003-00-0006-13.png
00000009,431,0,1445628544013,1445628544500,952,379,0,0,0,4,5,1,45,0005-00-0007-37.png,0001-00-0007-13.png
00000009,432,1,1445628547661,1445628548206,488,295,0,0,0,2,3,1,23,0002-00-0009-53.png,0003-00-0002-04.png
00000009,433,1,1445628549032,1445628549072,887,457,0,0,0,5,1,4,51,0001-00-0004-28.png,0004-00-0007-12.png
00000009,434,1,1445628550136,1445628550192,913,410,0,0,0,2,1,1,21,0002-00-0006-52.png,0004-00-0001-95.png
00000009,435,1,1445628551310,1445628551370,929,406,0,0,0,5,4,1,54,0001-00-0008-46.png,0005-00-0007-69.png
00000009,436,1,1445628552460,1445628552520,913,436,0,0,0,3,2,1,32,0003-00-0002-15.png,0002-00-0007-19.png
00000009,437,1,1445628553859,1445628553923,927,448,0,0,0,5,3,2,53,0001-00-0005-47.png,0003-00-0008-41.png
00000009,438,1,1445628555065,1445628555101,897,456,0,0,0,4,1,3,41,0005-00-0004-81.png,0004-00-0003-37.png
00000009,439,0,1445628556277,1445628556349,917,456,0,0,0,2,5,3,25,0002-00-0005-47.png,0001-00-0002-59.png
00000009,440,1,1445628559216,1445628559256,859,392,0,0,0,4,3,1,43,0005-00-0009-02.png,0003-00-0006-81.png
00000009,441,1,1445628560212,1445628560252,923,415,0,0,0,2,1,1,21,0002-00-0000-35.png,0004-00-0007-40.png
00000009,442,0,1445628561303,1445628561343,862,389,0,0,0,1,5,4,15,0004-00-0003-71.png,0001-00-0000-07.png
00000009,443,1,1445628564176,1445628564761,1092,282,0,0,0,4,2,2,42,0005-00-0000-26.png,0002-00-0000-79.png
00000009,444,0,1445628566074,1445628566474,1038,548,0,0,0,1,3,2,13,0004-00-0006-52.png,0003-00-0003-14.png
00000009,445,0,1445628569533,1445628569646,940,287,0,0,0,2,4,2,24,0002-00-0001-83.png,0005-00-0006-11.png
00000009,446,0,1445628573119,1445628573666,942,418,0,0,0,1,2,1,12,0004-00-0003-93.png,0002-00-0002-92.png
00000009,447,1,1445628576769,1445628577619,964,396,0,0,0,5,4,1,54,0001-00-0008-67.png,0005-00-0006-47.png
00000009,448,1,1445628579083,1445628579869,486,277,0,0,0,2,3,1,23,0002-00-0006-79.png,0003-00-0009-70.png
00000009,449,1,1445628580742,1445628580766,905,389,0,0,0,5,2,3,52,0001-00-0005-51.png,0002-00-0002-99.png
00000009,450,1,1445628581866,1445628581914,907,408,0,0,0,3,1,2,31,0003-00-0005-49.png,0004-00-0005-58.png
00000009,451,1,1445628582990,1445628583046,925,423,0,0,0,5,1,4,51,0001-00-0003-03.png,0004-00-0001-65.png
00000009,452,0,1445628584102,1445628584131,890,420,0,0,0,3,5,2,35,0003-00-0009-32.png,0001-00-0007-32.png
00000009,453,1,1445628587295,1445628587849,439,246,0,0,0,1,4,3,14,0004-00-0006-09.png,0005-00-0000-40.png
00000009,454,1,1445628588969,1445628589009,920,465,0,0,0,3,2,1,32,0003-00-0001-66.png,0002-00-0005-69.png
00000009,455,0,1445628590025,1445628590065,881,399,0,0,0,3,4,1,34,0003-00-0001-06.png,0005-00-0004-30.png
00000009,456,0,1445628593533,1445628594115,1064,281,0,0,0,4,5,1,45,0005-00-0009-29.png,0001-00-0001-81.png
00000009,457,1,1445628688539,1445628689156,462,292,0,0,0,2,5,3,25,0002-00-0003-81.png,0001-00-0008-15.png
00000009,458,1,1445628690131,1445628690215,954,436,0,0,0,4,1,3,41,0005-00-0001-47.png,0004-00-0008-63.png
00000009,459,1,1445628691231,1445628691275,892,400,0,0,0,5,3,2,53,0001-00-0001-40.png,0003-00-0004-76.png
00000009,460,1,1445628692398,1445628692434,893,427,0,0,0,4,3,1,43,0005-00-0001-01.png,0003-00-0000-67.png
00000009,461,0,1445628693565,1445628693605,926,394,0,0,0,2,3,1,23,0002-00-0000-29.png,0003-00-0001-56.png
00000009,462,1,1445628697074,1445628697580,986,325,0,0,0,5,1,4,51,0001-00-0005-21.png,0004-00-0002-11.png
00000009,463,1,1445628698732,1445628698760,959,410,0,0,0,3,2,1,32,0003-00-0008-52.png,0002-00-0003-45.png
00000009,464,0,1445628699785,1445628699816,879,387,0,0,0,3,5,2,35,0003-00-0004-46.png,0001-00-0007-54.png
00000009,465,1,1445628702938,1445628703612,956,335,0,0,0,4,3,1,43,0005-00-0003-60.png,0003-00-0006-04.png
00000009,466,1,1445628704577,1445628705240,947,360,0,0,0,2,1,1,21,0002-00-0004-96.png,0004-00-0003-57.png
00000009,467,0,1445628706097,1445628706137,973,389,0,0,0,2,5,3,25,0002-00-0007-32.png,0001-00-0003-68.png
00000009,468,1,1445628709268,1445628709304,894,276,0,0,0,5,3,2,53,0001-00-0006-25.png,0003-00-0005-50.png
00000009,469,1,1445628710341,1445628710399,880,417,0,0,0,3,1,2,31,0003-00-0002-71.png,0004-00-0001-86.png
00000009,470,0,1445628711524,1445628711572,889,409,0,0,0,2,4,2,24,0002-00-0001-37.png,0005-00-0004-60.png
00000009,471,1,1445628714515,1445628715029,371,393,0,0,0,1,4,3,14,0004-00-0002-47.png,0005-00-0007-57.png
00000009,472,0,1445628716333,1445628716373,902,384,0,0,0,1,3,2,13,0004-00-0009-02.png,0003-00-0008-44.png
00000009,473,0,1445628719366,1445628720086,939,322,0,0,0,1,2,1,12,0004-00-0008-27.png,0002-00-0007-25.png
00000009,474,0,1445628723001,1445628723517,989,299,0,0,0,3,4,1,34,0003-00-0007-40.png,0005-00-0008-49.png
00000009,475,0,1445628726630,1445628727142,496,296,0,0,0,4,2,2,42,0005-00-0001-12.png,0002-00-0009-64.png
00000009,476,1,1445628730208,1445628730755,1118,306,0,0,0,4,1,3,41,0005-00-0000-97.png,0004-00-0000-97.png
00000009,477,1,1445628731640,1445628731668,971,426,0,0,0,5,4,1,54,0001-00-0002-02.png,0005-00-0009-13.png
00000009,478,1,1445628732680,1445628732740,879,436,0,0,0,5,2,3,52,0001-00-0006-14.png,0002-00-0000-12.png
00000009,479,0,1445628733818,1445628733902,908,422,0,0,0,1,5,4,15,0004-00-0005-06.png,0001-00-0000-76.png
00000009,480,0,1445628736894,1445628737142,920,356,0,0,0,4,5,1,45,0005-00-0001-14.png,0001-00-0004-90.png
00000009,481,1,1445628740308,1445628740836,1090,290,0,0,0,4,1,3,41,0005-00-0005-28.png,0004-00-0000-48.png
00000009,482,0,1445628742143,1445628742774,485,288,0,0,0,3,2,1,32,0003-00-0002-46.png,0002-00-0002-79.png
00000009,483,1,1445628745617,1445628746186,391,365,0,0,0,1,2,1,12,0004-00-0007-88.png,0002-00-0008-11.png
00000009,484,0,1445628747520,1445628748152,489,281,0,0,0,5,4,1,54,0001-00-0001-98.png,0005-00-0005-70.png
00000009,485,1,1445628751323,1445628751787,1118,288,0,0,0,3,1,2,31,0003-00-0005-39.png,0004-00-0000-48.png
00000009,486,1,1445628753052,1445628753273,993,406,0,0,0,5,1,4,51,0001-00-0004-94.png,0004-00-0008-61.png
00000009,487,1,1445628754229,1445628754257,908,362,0,0,0,4,2,2,42,0005-00-0006-00.png,0002-00-0009-90.png
00000009,488,0,1445628755401,1445628755470,910,434,0,0,0,2,5,3,25,0002-00-0002-88.png,0001-00-0005-95.png
00000009,489,1,1445628758611,1445628759181,917,386,0,0,0,2,1,1,21,0002-00-0005-01.png,0004-00-0001-42.png
00000009,490,0,1445628760466,1445628760584,985,430,0,0,0,4,5,1,45,0005-00-0003-29.png,0001-00-0005-86.png
00000009,491,0,1445628763728,1445628764257,493,251,0,0,0,5,3,2,53,0001-00-0006-30.png,0003-00-0000-60.png
00000009,492,0,1445628767227,1445628767771,1016,332,0,0,0,3,5,2,35,0003-00-0003-09.png,0001-00-0001-42.png
00000009,493,1,1445628770658,1445628771176,370,379,0,0,0,2,3,1,23,0002-00-0002-00.png,0003-00-0005-88.png
00000009,494,1,1445628771998,1445628772082,957,460,0,0,0,5,2,3,52,0001-00-0003-90.png,0002-00-0003-63.png
00000009,495,0,1445628772970,1445628772998,887,385,0,0,0,1,4,3,14,0004-00-0009-63.png,0005-00-0000-37.png
00000009,496,1,1445628775863,1445628776548,1098,302,0,0,0,4,3,1,43,0005-00-0007-98.png,0003-00-0000-63.png
00000009,497,0,1445628777879,1445628778190,1000,482,0,0,0,1,3,2,13,0004-00-0008-24.png,0003-00-0005-82.png
00000009,498,1,1445628781318,1445628782218,456,260,0,0,0,2,4,2,24,0002-00-0008-16.png,0005-00-0008-52.png
00000009,499,0,1445628783127,1445628783135,866,439,0,0,0,3,4,1,34,0003-00-0004-31.png,0005-00-0009-36.png
00000009,500,1,1445628786315,1445628787099,366,377,0,0,0,1,5,4,15,0004-00-0007-04.png,0001-00-0001-18.png
00000009,501,1,1445628787954,1445628788022,914,434,0,0,0,2,1,1,21,0002-00-0004-76.png,0004-00-0009-48.png
00000009,502,0,1445628788940,1445628788972,888,349,0,0,0,3,5,2,35,0003-00-0009-61.png,0001-00-0006-91.png
00000009,503,1,1445628791973,1445628792916,1092,269,0,0,0,4,1,3,41,0005-00-0008-24.png,0004-00-0001-06.png
00000009,504,0,1445628794278,1445628794889,1080,279,0,0,0,4,5,1,45,0005-00-0001-58.png,0001-00-0004-17.png
00000009,505,0,1445628798003,1445628798130,977,275,0,0,0,1,4,3,14,0004-00-0008-84.png,0005-00-0000-66.png
00000009,506,1,1445628801313,1445628801813,1078,276,0,0,0,5,2,3,52,0001-00-0005-11.png,0002-00-0005-45.png
00000009,507,1,1445628803084,1445628803679,388,346,0,0,0,2,3,1,23,0002-00-0003-77.png,0003-00-0001-82.png
00000009,508,0,1445628805108,1445628805274,962,465,0,0,0,1,2,1,12,0004-00-0003-24.png,0002-00-0006-92.png
00000009,509,0,1445628808428,1445628809191,486,286,0,0,0,5,3,2,53,0001-00-0008-18.png,0003-00-0008-99.png
00000009,510,1,1445628812293,1445628812986,452,320,0,0,0,3,4,1,34,0003-00-0007-63.png,0005-00-0000-38.png
00000009,511,0,1445628814340,1445628814576,990,446,0,0,0,2,5,3,25,0002-00-0002-21.png,0001-00-0006-65.png
00000009,512,1,1445628817420,1445628817937,453,316,0,0,0,1,5,4,15,0004-00-0007-41.png,0001-00-0009-03.png
00000009,513,1,1445628818822,1445628818894,930,410,0,0,0,4,2,2,42,0005-00-0000-27.png,0002-00-0008-66.png
00000009,514,1,1445628819867,1445628819923,920,426,0,0,0,5,1,4,51,0001-00-0000-55.png,0004-00-0001-40.png
00000009,515,0,1445628821060,1445628821998,456,237,0,0,0,5,4,1,54,0001-00-0009-89.png,0005-00-0004-80.png
00000009,516,1,1445628825074,1445628825559,943,329,0,0,0,3,1,2,31,0003-00-0002-48.png,0004-00-0005-19.png
00000009,517,0,1445628826391,1445628826411,923,430,0,0,0,2,4,2,24,0002-00-0008-85.png,0005-00-0002-52.png
00000009,518,1,1445628829763,1445628830209,464,251,0,0,0,1,3,2,13,0004-00-0005-38.png,0003-00-0009-57.png
00000009,519,1,1445628831473,1445628831517,893,379,0,0,0,4,3,1,43,0005-00-0008-17.png,0003-00-0009-73.png
00000009,520,1,1445628832528,1445628832576,923,358,0,0,0,3,2,1,32,0003-00-0002-66.png,0002-00-0004-62.png
00000009,521,0,1445628833601,1445628833657,898,377,0,0,0,3,5,2,35,0003-00-0003-91.png,0001-00-0008-36.png
00000009,522,0,1445628836669,1445628836820,862,347,0,0,0,4,5,1,45,0005-00-0009-34.png,0001-00-0008-34.png
00000009,523,1,1445628839770,1445628840255,408,352,0,0,0,1,2,1,12,0004-00-0004-86.png,0002-00-0002-97.png
00000009,524,0,1445628841530,1445628842908,1041,271,0,0,0,2,5,3,25,0002-00-0009-66.png,0001-00-0001-43.png
00000009,525,1,1445628846092,1445628846577,487,282,0,0,0,1,4,3,14,0004-00-0005-92.png,0005-00-0001-78.png
00000009,526,0,1445628847409,1445628847473,905,436,0,0,0,1,5,4,15,0004-00-0007-62.png,0001-00-0002-77.png
00000009,527,1,1445628850426,1445628851057,941,321,0,0,0,4,3,1,43,0005-00-0003-64.png,0003-00-0005-77.png
00000009,528,1,1445628852412,1445628853062,939,335,0,0,0,5,4,1,54,0001-00-0000-38.png,0005-00-0002-51.png
00000009,529,1,1445628853996,1445628854753,1062,254,0,0,0,5,2,3,52,0001-00-0003-92.png,0002-00-0003-34.png
00000009,530,1,1445628855699,1445628855711,960,393,0,0,0,5,3,2,53,0001-00-0000-78.png,0003-00-0005-06.png
00000009,531,1,1445628856924,1445628856991,923,410,0,0,0,2,1,1,21,0002-00-0000-18.png,0004-00-0008-34.png
00000009,532,1,1445628858167,1445628858215,913,441,0,0,0,3,1,2,31,0003-00-0004-11.png,0004-00-0009-73.png
00000009,533,0,1445628859438,1445628859498,920,454,0,0,0,3,4,1,34,0003-00-0003-84.png,0005-00-0003-75.png
00000009,534,1,1445628862654,1445628863174,1067,290,0,0,0,3,2,1,32,0003-00-0007-06.png,0002-00-0008-00.png
00000009,535,1,1445628864564,1445628864608,926,410,0,0,0,5,1,4,51,0001-00-0006-67.png,0004-00-0009-42.png
00000009,536,1,1445628865659,1445628865687,865,403,0,0,0,4,1,3,41,0005-00-0003-60.png,0004-00-0009-82.png
00000009,537,0,1445628866742,1445628866762,862,415,0,0,0,1,3,2,13,0004-00-0009-38.png,0003-00-0001-31.png
00000009,538,1,1445628869932,1445628870430,1067,292,0,0,0,4,2,2,42,0005-00-0005-58.png,0002-00-0002-13.png
00000009,539,1,1445628871723,1445628872367,504,282,0,0,0,2,4,2,24,0002-00-0006-92.png,0005-00-0006-29.png
00000009,540,0,1445628873226,1445628873234,869,374,0,0,0,2,3,1,23,0002-00-0004-57.png,0003-00-0008-32.png
00000009,541,0,1445628876168,1445628876242,915,419,0,0,0,1,5,4,15,0004-00-0002-71.png,0001-00-0007-98.png
00000009,542,1,1445628879195,1445628879708,375,376,0,0,0,1,2,1,12,0004-00-0004-17.png,0002-00-0005-55.png
00000009,543,1,1445628881012,1445628881724,951,386,0,0,0,4,1,3,41,0005-00-0007-79.png,0004-00-0001-21.png
00000009,544,0,1445628882568,1445628882632,930,423,0,0,0,4,5,1,45,0005-00-0008-92.png,0001-00-0001-93.png
00000009,545,1,1445628885481,1445628885999,390,363,0,0,0,1,4,3,14,0004-00-0002-02.png,0005-00-0008-93.png
00000009,546,1,1445628886854,1445628886902,929,436,0,0,0,5,1,4,51,0001-00-0004-13.png,0004-00-0009-13.png
00000009,547,1,1445628887948,1445628887976,868,387,0,0,0,5,3,2,53,0001-00-0008-39.png,0003-00-0008-55.png
00000009,548,1,1445628889162,1445628889210,908,410,0,0,0,3,2,1,32,0003-00-0006-97.png,0002-00-0003-99.png
00000009,549,1,1445628890285,1445628890345,881,464,0,0,0,5,2,3,52,0001-00-0006-50.png,0002-00-0000-96.png
00000009,550,0,1445628891651,1445628891705,906,446,0,0,0,1,3,2,13,0004-00-0009-74.png,0003-00-0004-59.png
00000009,551,1,1445628894697,1445628895213,957,393,0,0,0,2,1,1,21,0002-00-0002-82.png,0004-00-0007-67.png
00000009,552,1,1445628896505,1445628896791,1017,537,0,0,0,3,1,2,31,0003-00-0004-30.png,0004-00-0004-53.png
00000009,553,1,1445628897798,1445628898739,1092,292,0,0,0,4,2,2,42,0005-00-0005-21.png,0002-00-0000-82.png
00000009,554,0,1445628899635,1445628899683,935,422,0,0,0,3,4,1,34,0003-00-0002-36.png,0005-00-0003-48.png
00000009,555,1,1445628902865,1445628902983,930,281,0,0,0,4,3,1,43,0005-00-0004-30.png,0003-00-0006-66.png
00000009,556,1,1445628903939,1445628904769,454,265,0,0,0,2,3,1,23,0002-00-0005-09.png,0003-00-0002-74.png
00000009,557,0,1445628905719,1445628905747,903,443,0,0,0,2,5,3,25,0002-00-0009-76.png,0001-00-0003-64.png
00000009,558,0,1445628908876,1445628909429,413,358,0,0,0,5,4,1,54,0001-00-0009-19.png,0005-00-0006-91.png
00000009,559,1,1445628912607,1445628913226,384,373,0,0,0,2,4,2,24,0002-00-0005-52.png,0005-00-0000-75.png
00000009,560,0,1445628914124,1445628915494,1018,359,0,0,0,3,5,2,35,0003-00-0005-38.png,0001-00-0002-40.png
00000009,561,1,1445628918475,1445628919051,961,290,0,0,0,4,2,2,42,0005-00-0008-73.png,0002-00-0009-01.png
00000009,562,0,1445628920375,1445628921000,1031,279,0,0,0,1,2,1,12,0004-00-0004-18.png,0002-00-0000-02.png
00000009,563,1,1445628923911,1445628924417,995,386,0,0,0,4,1,3,41,0005-00-0001-49.png,0004-00-0000-51.png
00000009,564,1,1445628925839,1445628926421,509,252,0,0,0,2,5,3,25,0002-00-0001-35.png,0001-00-0001-52.png
00000009,565,1,1445628927279,1445628927310,890,363,0,0,0,3,2,1,32,0003-00-0004-42.png,0002-00-0003-58.png
00000009,566,0,1445628928423,1445628928479,939,421,0,0,0,4,5,1,45,0005-00-0008-96.png,0001-00-0006-54.png
00000009,567,1,1445628931653,1445628932408,971,315,0,0,0,5,4,1,54,0001-00-0002-35.png,0005-00-0002-72.png
00000009,568,0,1445628933335,1445628933359,914,411,0,0,0,2,4,2,24,0002-00-0009-00.png,0005-00-0005-73.png
00000009,569,0,1445628936454,1445628936679,901,345,0,0,0,3,4,1,34,0003-00-0005-23.png,0005-00-0007-98.png
00000009,570,0,1445628939613,1445628940400,363,356,0,0,0,4,3,1,43,0005-00-0000-49.png,0003-00-0007-26.png
00000009,571,0,1445628943262,1445628944030,381,362,0,0,0,5,3,2,53,0001-00-0002-93.png,0003-00-0009-08.png
00000009,572,1,1445628947149,1445628947664,510,290,0,0,0,1,4,3,14,0004-00-0009-12.png,0005-00-0001-53.png
00000009,573,1,1445628949036,1445628949862,939,317,0,0,0,5,2,3,52,0001-00-0007-98.png,0002-00-0008-99.png
00000009,574,0,1445628950703,1445628950747,923,393,0,0,0,3,5,2,35,0003-00-0000-18.png,0001-00-0002-65.png
00000009,575,1,1445628953947,1445628954434,963,306,0,0,0,5,1,4,51,0001-00-0003-57.png,0004-00-0000-76.png
00000009,576,0,1445628955256,1445628955280,996,384,0,0,0,2,3,1,23,0002-00-0000-02.png,0003-00-0003-61.png
00000009,577,1,1445628958210,1445628958694,1080,272,0,0,0,3,1,2,31,0003-00-0001-80.png,0004-00-0005-32.png
00000009,578,1,1445628960027,1445628960047,891,339,0,0,0,2,1,1,21,0002-00-0002-80.png,0004-00-0006-14.png
00000009,579,0,1445628960969,1445628960993,885,359,0,0,0,1,5,4,15,0004-00-0007-89.png,0001-00-0006-63.png
00000009,580,1,1445628964261,1445628964775,453,279,0,0,0,1,3,2,13,0004-00-0006-38.png,0003-00-0002-28.png
00000009,581,1,1445628966118,1445628967148,1077,306,0,0,0,5,4,1,54,0001-00-0007-95.png,0005-00-0009-78.png
00000009,582,1,1445628968064,1445628968125,939,423,0,0,0,4,3,1,43,0005-00-0003-87.png,0003-00-0006-65.png
00000009,583,0,1445628969177,1445628969229,923,437,0,0,0,3,5,2,35,0003-00-0007-06.png,0001-00-0005-52.png
00000009,584,1,1445628972486,1445628972957,478,290,0,0,0,2,3,1,23,0002-00-0008-18.png,0003-00-0008-72.png
00000009,585,1,1445628974278,1445628974844,964,397,0,0,0,4,1,3,41,0005-00-0008-66.png,0004-00-0001-33.png
00000009,586,0,1445628976293,1445628976599,990,506,0,0,0,3,4,1,34,0003-00-0000-60.png,0005-00-0002-97.png
00000009,587,0,1445628979562,1445628980045,1057,279,0,0,0,1,2,1,12,0004-00-0003-49.png,0002-00-0009-53.png
00000009,588,1,1445628983334,1445628983795,386,375,0,0,0,1,3,2,13,0004-00-0003-79.png,0003-00-0007-69.png
00000009,589,1,1445628984667,1445628984711,913,436,0,0,0,5,3,2,53,0001-00-0002-97.png,0003-00-0005-01.png
00000009,590,0,1445628985722,1445628985786,913,417,0,0,0,2,4,2,24,0002-00-0006-64.png,0005-00-0004-39.png
00000009,591,1,1445628988655,1445628988703,869,351,0,0,0,3,2,1,32,0003-00-0009-18.png,0002-00-0002-54.png
00000009,592,1,1445628990178,1445628990214,888,410,0,0,0,5,2,3,52,0001-00-0000-43.png,0002-00-0009-47.png
00000009,593,0,1445628991289,1445628991329,886,437,0,0,0,2,5,3,25,0002-00-0001-69.png,0001-00-0002-79.png
00000009,594,0,1445628994406,1445628994644,948,350,0,0,0,4,5,1,45,0005-00-0003-40.png,0001-00-0007-21.png
00000009,595,1,1445628997669,1445628998222,387,388,0,0,0,1,5,4,15,0004-00-0005-04.png,0001-00-0007-33.png
00000009,596,1,1445628999110,1445628999118,890,487,0,0,0,3,1,2,31,0003-00-0006-74.png,0004-00-0000-27.png
00000009,597,1,1445629000412,1445629000500,925,436,0,0,0,2,1,1,21,0002-00-0000-39.png,0004-00-0004-64.png
00000009,598,1,1445629001476,1445629001512,869,416,0,0,0,5,1,4,51,0001-00-0002-38.png,0004-00-0009-25.png
00000009,599,1,1445629002715,1445629002807,888,436,0,0,0,4,2,2,42,0005-00-0000-04.png,0002-00-0003-09.png
00000009,600,0,1445629005678,1445629005738,952,319,0,0,0,1,4,3,14,0004-00-0008-24.png,0005-00-0000-29.png
00000009,601,0,1445629008848,1445629009368,1045,281,0,0,0,2,4,2,24,0002-00-0005-75.png,0005-00-0007-34.png
00000009,602,0,1445629012277,1445629012852,1092,306,0,0,0,3,5,2,35,0003-00-0002-67.png,0001-00-0004-78.png
00000009,603,1,1445629015994,1445629016515,960,315,0,0,0,3,2,1,32,0003-00-0003-65.png,0002-00-0007-93.png
00000009,604,1,1445629017833,1445629018683,441,240,0,0,0,1,5,4,15,0004-00-0004-48.png,0001-00-0006-32.png
00000009,605,1,1445629020068,1445629020088,894,398,0,0,0,5,3,2,53,0001-00-0007-86.png,0003-00-0009-02.png
00000009,606,1,1445629021072,1445629021144,903,417,0,0,0,3,1,2,31,0003-00-0009-95.png,0004-00-0005-67.png
00000009,607,1,1445629022116,1445629022176,904,448,0,0,0,5,4,1,54,0001-00-0008-00.png,0005-00-0004-47.png
00000009,608,1,1445629023406,1445629023466,908,422,0,0,0,2,1,1,21,0002-00-0009-22.png,0004-00-0009-65.png
00000009,609,0,1445629024698,1445629024749,895,455,0,0,0,1,2,1,12,0004-00-0003-66.png,0002-00-0009-56.png
00000009,610,1,1445629027759,1445629028257,415,344,0,0,0,4,5,1,45,0005-00-0009-29.png,0001-00-0006-79.png
00000009,611,0,1445629029159,1445629029191,870,488,0,0,0,3,4,1,34,0003-00-0007-10.png,0005-00-0002-83.png
00000009,612,1,1445629032173,1445629032657,372,372,0,0,0,1,4,3,14,0004-00-0001-71.png,0005-00-0007-66.png
00000009,613,0,1445629033951,1445629034255,1016,488,0,0,0,2,5,3,25,0002-00-0008-12.png,0001-00-0007-14.png
00000009,614,1,1445629037380,1445629037578,873,354,0,0,0,5,2,3,52,0001-00-0001-54.png,0002-00-0001-07.png
00000009,615,1,1445629038552,1445629038604,932,462,0,0,0,4,3,1,43,0005-00-0006-68.png,0003-00-0003-47.png
00000009,616,1,1445629039595,1445629039643,902,436,0,0,0,4,1,3,41,0005-00-0005-25.png,0004-00-0005-88.png
00000009,617,0,1445629040757,1445629040829,954,470,0,0,0,2,3,1,23,0002-00-0008-75.png,0003-00-0009-45.png
00000009,618,1,1445629043898,1445629044031,959,287,0,0,0,5,1,4,51,0001-00-0008-24.png,0004-00-0000-62.png
00000009,619,0,1445629044972,1445629045020,923,459,0,0,0,1,3,2,13,0004-00-0003-27.png,0003-00-0006-21.png
00000009,620,1,1445629048398,1445629048852,965,305,0,0,0,4,2,2,42,0005-00-0001-22.png,0002-00-0008-81.png
00000009,621,1,1445629050150,1445629050460,1018,515,0,0,0,5,3,2,53,0001-00-0000-02.png,0003-00-0002-30.png
00000009,622,0,1445629051499,1445629051571,878,410,0,0,0,1,4,3,14,0004-00-0004-88.png,0005-00-0007-88.png
00000009,623,1,1445629054609,1445629055156,504,266,0,0,0,1,3,2,13,0004-00-0005-37.png,0003-00-0001-76.png
00000009,624,1,1445629056448,1445629057157,504,241,0,0,0,3,5,2,35,0003-00-0007-35.png,0001-00-0003-36.png
00000009,625,0,1445629058077,1445629058899,1067,293,0,0,0,1,2,1,12,0004-00-0005-35.png,0002-00-0001-34.png
00000009,626,0,1445629062013,1445629062724,939,423,0,0,0,2,4,2,24,0002-00-0003-76.png,0005-00-0009-22.png
00000009,627,1,1445629065659,1445629066190,987,305,0,0,0,4,2,2,42,0005-00-0007-76.png,0002-00-0001-71.png
00000009,628,0,1445629067540,1445629068175,1092,290,0,0,0,3,4,1,34,0003-00-0007-09.png,0005-00-0005-15.png
00000009,629,1,1445629071362,1445629071912,469,284,0,0,0,2,3,1,23,0002-00-0002-45.png,0003-00-0007-92.png
00000009,630,1,1445629073223,1445629074183,969,341,0,0,0,2,1,1,21,0002-00-0002-20.png,0004-00-0006-21.png
00000009,631,1,1445629075130,1445629075194,962,450,0,0,0,5,2,3,52,0001-00-0003-33.png,0002-00-0001-08.png
00000009,632,1,1445629076204,1445629076224,917,387,0,0,0,3,2,1,32,0003-00-0001-68.png,0002-00-0008-30.png
00000009,633,0,1445629077485,1445629077545,932,444,0,0,0,2,5,3,25,0002-00-0006-81.png,0001-00-0009-28.png
00000009,634,1,1445629081451,1445629081994,943,352,0,0,0,5,1,4,51,0001-00-0001-66.png,0004-00-0005-11.png
00000009,635,0,1445629083319,1445629083903,499,236,0,0,0,4,1,3,41,0005-00-0001-97.png,0004-00-0003-72.png
00000009,636,0,1445629087064,1445629088043,1101,306,0,0,0,4,5,1,45,0005-00-0009-14.png,0001-00-0005-49.png
00000009,637,1,1445629091746,1445629092365,972,323,0,0,0,3,1,2,31,0003-00-0009-59.png,0004-00-0006-08.png
00000009,638,0,1445629093673,1445629094329,492,254,0,0,0,4,3,1,43,0005-00-0002-92.png,0003-00-0005-26.png
00000009,639,1,1445629099737,1445629100236,485,282,0,0,0,1,5,4,15,0004-00-0001-58.png,0001-00-0004-26.png
00000009,640,1,1445629101475,1445629102443,934,324,0,0,0,5,4,1,54,0001-00-0002-24.png,0005-00-0003-88.png
00000009,641,0,1445629103375,1445629103403,918,429,0,0,0,2,5,3,25,0002-00-0008-14.png,0001-00-0009-70.png
00000009,642,1,1445629106544,1445629107100,948,329,0,0,0,3,2,1,32,0003-00-0005-51.png,0002-00-0003-53.png
00000009,643,1,1445629108381,1445629109030,1092,271,0,0,0,4,2,2,42,0005-00-0005-87.png,0002-00-0001-81.png
00000009,644,1,1445629109951,1445629109991,965,386,0,0,0,5,4,1,54,0001-00-0008-85.png,0005-00-0000-37.png
00000009,645,0,1445629111084,1445629111112,951,410,0,0,0,3,4,1,34,0003-00-0003-75.png,0005-00-0001-31.png
00000009,646,1,1445629114215,1445629114743,497,301,0,0,0,2,4,2,24,0002-00-0005-89.png,0005-00-0000-52.png
00000009,647,0,1445629115574,1445629115638,913,462,0,0,0,3,5,2,35,0003-00-0000-00.png,0001-00-0007-57.png
00000009,648,0,1445629118526,1445629119164,913,400,0,0,0,2,3,1,23,0002-00-0009-76.png,0003-00-0004-65.png
00000009,649,1,1445629122085,1445629122639,494,268,0,0,0,1,3,2,13,0004-00-0009-51.png,0003-00-0003-99.png
00000009,650,1,1445629123873,1445629123917,919,365,0,0,0,4,1,3,41,0005-00-0009-36.png,0004-00-0008-94.png
00000009,651,1,1445629124896,1445629124968,939,448,0,0,0,4,3,1,43,0005-00-0008-45.png,0003-00-0005-56.png
00000009,652,1,1445629126061,1445629126101,938,420,0,0,0,3,1,2,31,0003-00-0006-33.png,0004-00-0000-98.png
00000009,653,0,1445629127304,1445629127344,947,458,0,0,0,1,2,1,12,0004-00-0001-36.png,0002-00-0000-15.png
00000009,654,1,1445629130680,1445629131238,472,278,0,0,0,1,4,3,14,0004-00-0005-08.png,0005-00-0009-16.png
00000009,655,1,1445629132490,1445629133505,913,344,0,0,0,5,1,4,51,0001-00-0009-46.png,0004-00-0006-48.png
00000009,656,0,1445629134360,1445629135337,877,340,0,0,0,4,5,1,45,0005-00-0004-10.png,0001-00-0003-02.png
00000009,657,1,1445629138423,1445629138467,939,358,0,0,0,5,3,2,53,0001-00-0004-63.png,0003-00-0009-82.png
00000009,658,1,1445629139426,1445629139446,920,436,0,0,0,2,1,1,21,0002-00-0006-45.png,0004-00-0003-47.png
00000009,659,1,1445629140381,1445629140409,888,410,0,0,0,5,2,3,52,0001-00-0004-34.png,0002-00-0001-48.png
00000009,660,0,1445629141433,1445629141482,928,459,0,0,0,1,5,4,15,0004-00-0005-75.png,0001-00-0006-71.png
00000009,661,1,1445629144306,1445629144800,388,351,0,0,0,1,3,2,13,0004-00-0005-86.png,0003-00-0008-54.png
00000009,662,1,1445629145653,1445629145693,913,498,0,0,0,3,1,2,31,0003-00-0005-80.png,0004-00-0002-41.png
00000009,663,1,1445629146709,1445629147643,418,319,0,0,0,2,4,2,24,0002-00-0005-62.png,0005-00-0009-55.png
00000009,664,1,1445629148569,1445629148609,888,458,0,0,0,5,4,1,54,0001-00-0004-81.png,0005-00-0005-24.png
00000009,665,1,1445629149661,1445629149701,932,442,0,0,0,3,2,1,32,0003-00-0008-64.png,0002-00-0003-74.png
00000009,666,0,1445629150804,1445629150844,954,452,0,0,0,1,5,4,15,0004-00-0004-56.png,0001-00-0009-96.png
00000009,667,1,1445629154421,1445629154915,990,424,0,0,0,4,1,3,41,0005-00-0000-32.png,0004-00-0003-85.png
00000009,668,1,1445629156200,1445629156839,417,339,0,0,0,1,2,1,12,0004-00-0005-77.png,0002-00-0003-91.png
00000009,669,1,1445629157731,1445629158481,408,416,0,0,0,2,5,3,25,0002-00-0001-36.png,0001-00-0000-75.png
00000009,670,1,1445629159401,1445629159429,910,428,0,0,0,5,1,4,51,0001-00-0008-53.png,0004-00-0008-37.png
00000009,671,0,1445629160523,1445629160563,936,417,0,0,0,3,5,2,35,0003-00-0004-29.png,0001-00-0008-62.png
00000009,672,1,1445629163434,1445629164270,918,335,0,0,0,5,3,2,53,0001-00-0009-98.png,0003-00-0006-24.png
00000009,673,1,1445629165152,1445629165184,913,460,0,0,0,5,2,3,52,0001-00-0008-85.png,0002-00-0007-54.png
00000009,674,1,1445629166158,1445629166214,939,449,0,0,0,2,1,1,21,0002-00-0003-76.png,0004-00-0008-60.png
00000009,675,0,1445629167360,1445629167408,923,442,0,0,0,4,5,1,45,0005-00-0003-54.png,0001-00-0006-01.png
00000009,676,1,1445629170290,1445629171058,1067,296,0,0,0,4,3,1,43,0005-00-0005-16.png,0003-00-0005-73.png
00000009,677,1,1445629171890,1445629172835,481,269,0,0,0,1,4,3,14,0004-00-0001-12.png,0005-00-0004-50.png
00000009,678,1,1445629173750,1445629173798,913,449,0,0,0,4,2,2,42,0005-00-0009-33.png,0002-00-0006-02.png
00000009,679,0,1445629174821,1445629174877,927,474,0,0,0,3,4,1,34,0003-00-0009-41.png,0005-00-0000-03.png
00000009,680,1,1445629177775,1445629178240,376,359,0,0,0,2,3,1,23,0002-00-0000-18.png,0003-00-0009-98.png
00000009,681,1,1445629179106,1445629179787,1071,331,0,0,0,5,2,3,52,0001-00-0007-70.png,0002-00-0003-50.png
00000009,682,1,1445629180657,1445629180705,957,451,0,0,0,2,1,1,21,0002-00-0007-57.png,0004-00-0008-75.png
00000009,683,0,1445629181750,1445629181798,921,439,0,0,0,1,5,4,15,0004-00-0008-99.png,0001-00-0002-91.png
00000009,684,0,1445629185417,1445629185902,1041,279,0,0,0,3,4,1,34,0003-00-0001-10.png,0005-00-0005-89.png
00000009,685,0,1445629189066,1445629189094,921,342,0,0,0,2,4,2,24,0002-00-0004-25.png,0005-00-0006-67.png
00000009,686,1,1445629192175,1445629192689,1084,285,0,0,0,4,2,2,42,0005-00-0004-44.png,0002-00-0000-42.png
00000009,687,1,1445629193584,1445629193624,913,462,0,0,0,5,4,1,54,0001-00-0003-93.png,0005-00-0007-25.png
00000009,688,1,1445629194689,1445629194717,945,374,0,0,0,5,1,4,51,0001-00-0003-21.png,0004-00-0004-18.png
00000009,689,1,1445629195801,1445629195869,947,430,0,0,0,4,1,3,41,0005-00-0008-18.png,0004-00-0004-66.png
00000009,690,0,1445629196975,1445629197033,932,443,0,0,0,1,3,2,13,0004-00-0009-41.png,0003-00-0001-79.png
00000009,691,1,1445629200193,1445629200691,995,335,0,0,0,4,3,1,43,0005-00-0001-19.png,0003-00-0005-67.png
00000009,692,0,1445629201542,1445629201562,908,447,0,0,0,2,3,1,23,0002-00-0009-42.png,0003-00-0006-27.png
00000009,693,0,1445629204459,1445629205004,900,309,0,0,0,1,2,1,12,0004-00-0007-65.png,0002-00-0005-37.png
00000009,694,1,1445629208044,1445629209179,437,281,0,0,0,4,5,1,45,0005-00-0002-92.png,0001-00-0005-31.png
00000009,695,1,1445629210043,1445629210755,482,243,0,0,0,1,4,3,14,0004-00-0006-42.png,0005-00-0009-12.png
00000009,696,1,1445629211599,1445629212338,368,349,0,0,0,2,5,3,25,0002-00-0009-69.png,0001-00-0008-91.png
00000009,697,1,1445629213341,1445629213389,905,417,0,0,0,3,2,1,32,0003-00-0000-28.png,0002-00-0003-68.png
00000009,698,0,1445629214444,1445629214472,910,396,0,0,0,3,5,2,35,0003-00-0004-59.png,0001-00-0003-23.png
00000009,699,1,1445629217604,1445629217789,904,426,0,0,0,5,3,2,53,0001-00-0001-89.png,0003-00-0009-01.png
00000009,700,1,1445629219314,1445629219354,892,407,0,0,0,3,1,2,31,0003-00-0006-37.png,0004-00-0002-92.png
00000009,701,1,1445629220347,1445629220367,891,416,0,0,0,4,3,1,43,0005-00-0001-40.png,0003-00-0007-27.png
00000009,702,0,1445629221351,1445629221364,897,404,0,0,0,3,5,2,35,0003-00-0005-54.png,0001-00-0000-81.png
00000009,703,0,1445629224451,1445629224548,939,294,0,0,0,2,4,2,24,0002-00-0002-18.png,0005-00-0007-82.png
00000009,704,1,1445629227721,1445629227761,935,357,0,0,0,4,1,3,41,0005-00-0001-45.png,0004-00-0002-63.png
00000009,705,1,1445629228714,1445629229725,401,319,0,0,0,4,5,1,45,0005-00-0009-72.png,0001-00-0000-45.png
00000009,706,1,1445629230611,1445629230655,918,395,0,0,0,5,3,2,53,0001-00-0001-08.png,0003-00-0005-67.png
00000009,707,1,1445629231626,1445629231654,887,381,0,0,0,4,2,2,42,0005-00-0005-16.png,0002-00-0007-83.png
00000009,708,0,1445629232809,1445629232869,906,460,0,0,0,2,3,1,23,0002-00-0002-80.png,0003-00-0008-21.png
00000009,709,1,1445629236047,1445629236530,1092,249,0,0,0,3,1,2,31,0003-00-0006-81.png,0004-00-0006-07.png
00000009,710,1,1445629237906,1445629238499,943,332,0,0,0,5,2,3,52,0001-00-0002-41.png,0002-00-0006-70.png
00000009,711,1,1445629239326,1445629240727,364,357,0,0,0,1,4,3,14,0004-00-0003-12.png,0005-00-0009-36.png
00000009,712,1,1445629241691,1445629241711,894,447,0,0,0,5,1,4,51,0001-00-0009-31.png,0004-00-0002-63.png
00000009,713,0,1445629242873,1445629242913,956,415,0,0,0,3,4,1,34,0003-00-0008-30.png,0005-00-0009-14.png
00000009,714,1,1445629245934,1445629246401,410,348,0,0,0,1,2,1,12,0004-00-0007-65.png,0002-00-0008-48.png
00000009,715,1,1445629247243,1445629247950,495,268,0,0,0,1,5,4,15,0004-00-0008-78.png,0001-00-0001-96.png
00000009,716,1,1445629249403,1445629250521,1041,306,0,0,0,5,4,1,54,0001-00-0004-33.png,0005-00-0003-78.png
00000009,717,1,1445629251410,1445629251450,916,442,0,0,0,2,1,1,21,0002-00-0005-83.png,0004-00-0000-98.png
00000009,718,1,1445629252462,1445629252506,948,446,0,0,0,3,2,1,32,0003-00-0003-14.png,0002-00-0007-03.png
00000009,719,0,1445629253705,1445629253745,936,447,0,0,0,1,3,2,13,0004-00-0001-84.png,0003-00-0007-84.png
00000009,720,1,1445629256886,1445629257420,478,252,0,0,0,2,5,3,25,0002-00-0009-37.png,0001-00-0008-94.png
00000009,721,0,1445629258266,1445629258294,917,446,0,0,0,2,3,1,23,0002-00-0005-82.png,0003-00-0001-17.png
00000009,722,0,1445629261366,1445629261640,961,310,0,0,0,1,5,4,15,0004-00-0002-28.png,0001-00-0008-49.png
00000009,723,1,1445629267063,1445629267111,904,339,0,0,0,4,3,1,43,0005-00-0005-58.png,0003-00-0003-54.png
00000009,724,1,1445629268085,1445629268113,862,436,0,0,0,3,2,1,32,0003-00-0006-85.png,0002-00-0001-97.png
00000009,725,0,1445629269048,1445629269175,929,462,0,0,0,4,5,1,45,0005-00-0004-25.png,0001-00-0005-11.png
00000009,726,1,1445629272498,1445629272997,488,290,0,0,0,1,4,3,14,0004-00-0005-31.png,0005-00-0005-67.png
00000009,727,1,1445629274335,1445629274900,939,400,0,0,0,4,2,2,42,0005-00-0002-65.png,0002-00-0006-69.png
00000009,728,1,1445629275744,1445629275776,984,374,0,0,0,2,1,1,21,0002-00-0002-75.png,0004-00-0001-19.png
00000009,729,1,1445629276780,1445629276796,913,384,0,0,0,5,3,2,53,0001-00-0000-52.png,0003-00-0009-60.png
00000009,730,0,1445629277942,1445629277982,938,410,0,0,0,3,5,2,35,0003-00-0005-52.png,0001-00-0000-99.png
00000009,731,1,1445629281143,1445629281993,995,303,0,0,0,5,4,1,54,0001-00-0001-30.png,0005-00-0004-26.png
00000009,732,0,1445629283338,1445629284246,469,260,0,0,0,4,1,3,41,0005-00-0005-05.png,0004-00-0003-08.png
00000009,733,0,1445629287374,1445629287939,962,295,0,0,0,1,2,1,12,0004-00-0002-55.png,0002-00-0006-03.png
00000009,734,1,1445629291099,1445629291661,945,326,0,0,0,5,2,3,52,0001-00-0004-82.png,0002-00-0003-90.png
00000009,735,1,1445629293000,1445629293596,473,241,0,0,0,2,5,3,25,0002-00-0006-78.png,0001-00-0006-98.png
00000009,736,1,1445629294427,1445629294451,877,394,0,0,0,5,1,4,51,0001-00-0002-24.png,0004-00-0004-69.png
00000009,737,1,1445629295493,1445629296368,1041,279,0,0,0,3,1,2,31,0003-00-0006-98.png,0004-00-0004-97.png
00000009,738,1,1445629297243,1445629297966,388,326,0,0,0,2,4,2,24,0002-00-0006-91.png,0005-00-0000-63.png
00000009,739,0,1445629298863,1445629298903,885,453,0,0,0,3,4,1,34,0003-00-0006-07.png,0005-00-0006-96.png
00000009,740,1,1445629301877,1445629302409,504,287,0,0,0,1,3,2,13,0004-00-0009-28.png,0003-00-0003-81.png
00000009,741,0,1445629303263,1445629303287,862,488,0,0,0,1,2,1,12,0004-00-0008-45.png,0002-00-0009-46.png
00000009,742,1,1445629306195,1445629306691,930,328,0,0,0,5,1,4,51,0001-00-0009-34.png,0004-00-0005-41.png
00000009,743,1,1445629307985,1445629308580,498,255,0,0,0,4,5,1,45,0005-00-0003-66.png,0001-00-0005-87.png
00000009,744,1,1445629309454,1445629310271,410,403,0,0,0,2,4,2,24,0002-00-0003-70.png,0005-00-0004-20.png
00000009,745,1,1445629311154,1445629311194,919,436,0,0,0,3,2,1,32,0003-00-0008-70.png,0002-00-0005-08.png
00000009,746,1,1445629312266,1445629312286,916,449,0,0,0,5,3,2,53,0001-00-0000-83.png,0003-00-0009-92.png
00000009,747,1,1445629316262,1445629316905,464,266,0,0,0,2,5,3,25,0002-00-0005-27.png,0001-00-0007-80.png
00000009,748,0,1445629317782,1445629317863,888,474,0,0,0,3,4,1,34,0003-00-0000-06.png,0005-00-0000-23.png
00000009,749,1,1445629320863,1445629321354,945,311,0,0,0,4,2,2,42,0005-00-0005-02.png,0002-00-0006-82.png
00000009,750,1,1445629322702,1445629323537,470,245,0,0,0,3,5,2,35,0003-00-0006-19.png,0001-00-0007-48.png
00000009,751,1,1445629324363,1445629325077,965,413,0,0,0,2,1,1,21,0002-00-0000-55.png,0004-00-0008-57.png
00000009,752,1,1445629325981,1445629325993,964,384,0,0,0,3,1,2,31,0003-00-0006-14.png,0004-00-0004-29.png
00000009,753,1,1445629327201,1445629327213,938,398,0,0,0,5,2,3,52,0001-00-0008-82.png,0002-00-0001-86.png
00000009,754,1,1445629328188,1445629328948,489,306,0,0,0,2,3,1,23,0002-00-0007-84.png,0003-00-0008-68.png
00000009,755,0,1445629329907,1445629329955,900,448,0,0,0,1,5,4,15,0004-00-0008-76.png,0001-00-0006-52.png
00000009,756,0,1445629332858,1445629333634,470,253,0,0,0,5,4,1,54,0001-00-0003-90.png,0005-00-0005-33.png
00000009,757,1,1445629336782,1445629337043,964,410,0,0,0,4,1,3,41,0005-00-0004-42.png,0004-00-0006-94.png
00000009,758,0,1445629338423,1445629338935,932,324,0,0,0,1,4,3,14,0004-00-0008-01.png,0005-00-0000-72.png
00000009,759,1,1445629341841,1445629342364,397,382,0,0,0,1,3,2,13,0004-00-0009-32.png,0003-00-0005-15.png
00000009,760,1,1445629343200,1445629343885,1075,279,0,0,0,4,3,1,43,0005-00-0002-97.png,0003-00-0002-42.png
00000009,761,1,1445629344834,1445629344870,939,436,0,0,0,5,4,1,54,0001-00-0003-98.png,0005-00-0007-15.png
00000009,762,0,1445629345866,1445629345886,914,394,0,0,0,1,4,3,14,0004-00-0005-19.png,0005-00-0000-76.png
00000009,763,1,1445629349015,1445629349043,900,340,0,0,0,4,3,1,43,0005-00-0002-74.png,0003-00-0004-22.png
00000009,764,1,1445629350009,1445629350692,1092,279,0,0,0,5,2,3,52,0001-00-0008-52.png,0002-00-0008-04.png
00000009,765,1,1445629351552,1445629351580,973,410,0,0,0,2,1,1,21,0002-00-0007-95.png,0004-00-0006-54.png
00000009,766,0,1445629352682,1445629353802,1061,321,0,0,0,3,5,2,35,0003-00-0003-66.png,0001-00-0002-45.png
00000009,767,1,1445629356954,1445629357708,354,394,0,0,0,1,3,2,13,0004-00-0006-35.png,0003-00-0008-34.png
00000009,768,1,1445629358597,1445629359648,467,255,0,0,0,2,4,2,24,0002-00-0000-08.png,0005-00-0006-23.png
00000009,769,1,1445629361110,1445629361138,931,397,0,0,0,5,3,2,53,0001-00-0009-77.png,0003-00-0001-70.png
00000009,770,1,1445629362143,1445629362869,1050,346,0,0,0,5,1,4,51,0001-00-0003-26.png,0004-00-0002-53.png
00000009,771,1,1445629364300,1445629364356,939,400,0,0,0,3,2,1,32,0003-00-0000-42.png,0002-00-0000-48.png
00000009,772,1,1445629365503,1445629366250,379,327,0,0,0,2,5,3,25,0002-00-0000-01.png,0001-00-0006-68.png
00000009,773,1,1445629367151,1445629367183,934,421,0,0,0,3,1,2,31,0003-00-0004-69.png,0004-00-0002-62.png
00000009,774,0,1445629368355,1445629368403,931,446,0,0,0,3,4,1,34,0003-00-0001-09.png,0005-00-0002-11.png
00000009,775,0,1445629371394,1445629372101,1055,253,0,0,0,4,5,1,45,0005-00-0001-23.png,0001-00-0003-09.png
00000009,776,1,1445629375113,1445629375711,389,344,0,0,0,1,5,4,15,0004-00-0008-58.png,0001-00-0004-18.png
00000009,777,1,1445629376541,1445629376569,913,436,0,0,0,4,1,3,41,0005-00-0000-41.png,0004-00-0007-72.png
00000009,778,1,1445629377547,1445629378240,480,235,0,0,0,1,2,1,12,0004-00-0007-17.png,0002-00-0006-45.png
00000009,779,1,1445629379125,1445629379169,888,410,0,0,0,4,2,2,42,0005-00-0007-99.png,0002-00-0007-40.png
00000009,780,0,1445629380229,1445629380249,913,422,0,0,0,2,3,1,23,0002-00-0005-47.png,0003-00-0007-10.png
00000009,781,1,1445629383409,1445629383907,1068,281,0,0,0,5,2,3,52,0001-00-0002-14.png,0002-00-0007-19.png
00000009,782,1,1445629384723,1445629385482,1079,279,0,0,0,5,1,4,51,0001-00-0004-08.png,0004-00-0000-95.png
00000009,783,1,1445629386340,1445629386380,949,410,0,0,0,4,3,1,43,0005-00-0005-88.png,0003-00-0004-05.png
00000009,784,1,1445629387334,1445629387366,909,410,0,0,0,5,3,2,53,0001-00-0002-39.png,0003-00-0000-65.png
00000009,785,0,1445629388587,1445629388615,903,408,0,0,0,2,5,3,25,0002-00-0003-66.png,0001-00-0001-46.png
00000009,786,1,1445629391815,1445629392353,427,410,0,0,0,1,3,2,13,0004-00-0000-64.png,0003-00-0007-86.png
00000009,787,0,1445629393704,1445629393712,888,384,0,0,0,2,3,1,23,0002-00-0009-49.png,0003-00-0000-68.png
00000009,788,1,1445629396835,1445629397399,508,281,0,0,0,1,4,3,14,0004-00-0003-53.png,0005-00-0004-05.png
00000009,789,1,1445629398240,1445629398296,921,488,0,0,0,4,2,2,42,0005-00-0004-95.png,0002-00-0003-42.png
00000009,790,0,1445629399278,1445629399366,939,452,0,0,0,3,4,1,34,0003-00-0007-62.png,0005-00-0000-99.png
00000009,791,1,1445629402727,1445629403401,459,270,0,0,0,3,5,2,35,0003-00-0008-53.png,0001-00-0004-19.png
00000009,792,1,1445629404223,1445629404259,904,436,0,0,0,3,2,1,32,0003-00-0009-48.png,0002-00-0009-55.png
00000009,793,1,1445629405638,1445629405698,903,462,0,0,0,3,1,2,31,0003-00-0001-21.png,0004-00-0008-13.png
00000009,794,0,1445629407376,1445629407416,924,454,0,0,0,1,5,4,15,0004-00-0007-60.png,0001-00-0000-20.png
00000009,795,0,1445629410746,1445629411388,1063,282,0,0,0,4,5,1,45,0005-00-0004-31.png,0001-00-0009-16.png
00000009,796,1,1445629414473,1445629414723,862,409,0,0,0,2,1,1,21,0002-00-0007-78.png,0004-00-0002-04.png
00000009,797,0,1445629416102,1445629416139,918,359,0,0,0,2,4,2,24,0002-00-0005-00.png,0005-00-0005-58.png
00000009,798,0,1445629419124,1445629419172,892,378,0,0,0,1,2,1,12,0004-00-0009-39.png,0002-00-0004-62.png
00000009,799,1,1445629422303,1445629422831,945,399,0,0,0,4,1,3,41,0005-00-0008-20.png,0004-00-0001-23.png
00000009,800,1,1445629424111,1445629424163,913,384,0,0,0,5,4,1,54,0001-00-0008-09.png,0005-00-0001-55.png
00000009,801,0,1445629425106,1445629425166,939,419,0,0,0,2,4,2,24,0002-00-0008-22.png,0005-00-0007-09.png
00000009,802,1,1445629428316,1445629429096,339,372,0,0,0,3,5,2,35,0003-00-0007-09.png,0001-00-0004-95.png
00000009,803,0,1445629430492,1445629430532,939,384,0,0,0,2,5,3,25,0002-00-0006-74.png,0001-00-0009-12.png
00000009,804,1,1445629433434,1445629433981,466,269,0,0,0,2,3,1,23,0002-00-0000-41.png,0003-00-0003-63.png
00000009,805,0,1445629435320,1445629435368,939,398,0,0,0,3,4,1,34,0003-00-0008-85.png,0005-00-0008-76.png
00000009,806,1,1445629438342,1445629439018,948,324,0,0,0,5,2,3,52,0001-00-0000-95.png,0002-00-0002-57.png
00000009,807,1,1445629440329,1445629440982,941,342,0,0,0,4,2,2,42,0005-00-0000-88.png,0002-00-0002-28.png
00000009,808,0,1445629441928,1445629441980,973,402,0,0,0,1,2,1,12,0004-00-0005-30.png,0002-00-0003-78.png
00000009,809,1,1445629445227,1445629445756,478,289,0,0,0,4,5,1,45,0005-00-0008-68.png,0001-00-0008-55.png
00000009,810,1,1445629446650,1445629446678,906,493,0,0,0,4,1,3,41,0005-00-0001-85.png,0004-00-0000-23.png
00000009,811,0,1445629447656,1445629447704,913,384,0,0,0,1,3,2,13,0004-00-0001-56.png,0003-00-0006-44.png
00000009,812,1,1445629450857,1445629451365,950,327,0,0,0,5,1,4,51,0001-00-0007-07.png,0004-00-0005-21.png
00000009,813,0,1445629452811,1445629453395,478,254,0,0,0,2,1,1,21,0002-00-0009-12.png,0004-00-0000-56.png
00000009,814,1,1445629456574,1445629457184,967,334,0,0,0,4,3,1,43,0005-00-0009-54.png,0003-00-0006-36.png
00000009,815,1,1445629458107,1445629458156,932,443,0,0,0,3,2,1,32,0003-00-0009-22.png,0002-00-0001-91.png
00000009,816,1,1445629459131,1445629459191,927,425,0,0,0,5,4,1,54,0001-00-0004-72.png,0005-00-0001-71.png
00000009,817,1,1445629460324,1445629460376,938,472,0,0,0,3,1,2,31,0003-00-0003-65.png,0004-00-0006-41.png
00000009,818,1,1445629461575,1445629462325,506,262,0,0,0,1,5,4,15,0004-00-0006-53.png,0001-00-0008-17.png
00000009,819,1,1445629463214,1445629463250,923,436,0,0,0,5,3,2,53,0001-00-0000-10.png,0003-00-0006-02.png
00000009,820,0,1445629464366,1445629464427,932,446,0,0,0,1,4,3,14,0004-00-0002-42.png,0005-00-0008-48.png
00000009,821,0,1445629467478,1445629467530,869,415,0,0,0,2,5,3,25,0002-00-0001-82.png,0001-00-0008-85.png
00000009,822,1,1445629470708,1445629471673,447,236,0,0,0,1,2,1,12,0004-00-0002-07.png,0002-00-0005-49.png
00000009,823,1,1445629472505,1445629472555,966,438,0,0,0,2,1,1,21,0002-00-0003-13.png,0004-00-0003-96.png
00000009,824,1,1445629473480,1445629474150,961,382,0,0,0,5,2,3,52,0001-00-0007-42.png,0002-00-0004-64.png
00000009,825,0,1445629475111,1445629475151,1003,425,0,0,0,2,3,1,23,0002-00-0005-21.png,0003-00-0003-09.png
00000009,826,1,1445629478239,1445629478721,1067,292,0,0,0,3,1,2,31,0003-00-0008-87.png,0004-00-0008-13.png
00000009,827,1,1445629479549,1445629479593,890,454,0,0,0,4,3,1,43,0005-00-0008-03.png,0003-00-0006-77.png
00000009,828,0,1445629480617,1445629480699,964,450,0,0,0,1,4,3,14,0004-00-0007-71.png,0005-00-0004-03.png
00000009,829,1,1445629483875,1445629484468,941,330,0,0,0,4,2,2,42,0005-00-0001-66.png,0002-00-0004-61.png
00000009,830,0,1445629485740,1445629486137,1041,541,0,0,0,3,4,1,34,0003-00-0000-57.png,0005-00-0006-19.png
00000009,831,0,1445629489027,1445629490447,433,294,0,0,0,5,4,1,54,0001-00-0008-50.png,0005-00-0008-52.png
00000009,832,1,1445629493586,1445629494282,444,299,0,0,0,3,5,2,35,0003-00-0003-59.png,0001-00-0009-78.png
00000009,833,1,1445629495632,1445629496305,1067,296,0,0,0,5,1,4,51,0001-00-0004-37.png,0004-00-0006-32.png
00000009,834,1,1445629497162,1445629497201,966,397,0,0,0,5,3,2,53,0001-00-0006-09.png,0003-00-0003-20.png
00000009,835,1,1445629498335,1445629498387,909,451,0,0,0,3,2,1,32,0003-00-0008-11.png,0002-00-0000-64.png
00000009,836,0,1445629500164,1445629500212,913,371,0,0,0,4,5,1,45,0005-00-0002-88.png,0001-00-0003-69.png
00000009,837,1,1445629503363,1445629503888,454,288,0,0,0,1,5,4,15,0004-00-0001-84.png,0001-00-0008-99.png
00000009,838,1,1445629504785,1445629504817,922,436,0,0,0,4,1,3,41,0005-00-0008-06.png,0004-00-0000-43.png
00000009,839,0,1445629505852,1445629505916,933,429,0,0,0,2,4,2,24,0002-00-0003-97.png,0005-00-0001-43.png
00000009,840,0,1445629509086,1445629509364,923,300,0,0,0,1,3,2,13,0004-00-0001-84.png,0003-00-0002-24.png
00000009,841,0,1445629512504,1445629513014,465,315,0,0,0,2,1,1,21,0002-00-0004-76.png,0004-00-0005-64.png
00000009,842,0,1445629515959,1445629516657,1094,307,0,0,0,3,5,2,35,0003-00-0005-06.png,0001-00-0002-32.png
00000009,843,1,1445629519490,1445629520198,453,279,0,0,0,2,5,3,25,0002-00-0008-68.png,0001-00-0004-51.png
00000009,844,1,1445629521551,1445629522082,1050,279,0,0,0,3,1,2,31,0003-00-0007-83.png,0004-00-0006-49.png
00000009,845,1,1445629522990,1445629523754,1086,260,0,0,0,3,2,1,32,0003-00-0008-60.png,0002-00-0002-35.png
00000009,846,0,1445629524707,1445629524741,1016,421,0,0,0,4,5,1,45,0005-00-0007-78.png,0001-00-0006-45.png
00000009,847,0,1445629527949,1445629528414,395,333,0,0,0,5,3,2,53,0001-00-0004-94.png,0003-00-0005-31.png
00000009,848,1,1445629531498,1445629532059,488,306,0,0,0,1,5,4,15,0004-00-0005-40.png,0001-00-0007-87.png
00000009,849,1,1445629532926,1445629532968,939,447,0,0,0,4,1,3,41,0005-00-0001-08.png,0004-00-0004-38.png
00000009,850,0,1445629533949,1445629534002,969,420,0,0,0,2,4,2,24,0002-00-0002-47.png,0005-00-0008-33.png
00000009,851,1,1445629537320,1445629537946,929,416,0,0,0,4,3,1,43,0005-00-0008-83.png,0003-00-0002-84.png
00000009,852,0,1445629538861,1445629538889,975,410,0,0,0,1,4,3,14,0004-00-0006-50.png,0005-00-0007-63.png
00000009,853,0,1445629541930,1445629542573,1075,280,0,0,0,1,2,1,12,0004-00-0007-09.png,0002-00-0006-31.png
00000009,854,1,1445629545725,1445629545749,862,358,0,0,0,5,2,3,52,0001-00-0008-74.png,0002-00-0008-37.png
00000009,855,1,1445629547237,1445629547265,939,322,0,0,0,5,4,1,54,0001-00-0003-44.png,0005-00-0002-06.png
00000009,856,0,1445629548320,1445629548368,939,445,0,0,0,1,3,2,13,0004-00-0007-61.png,0003-00-0000-35.png
00000009,857,0,1445629551520,1445629552168,943,290,0,0,0,3,4,1,34,0003-00-0000-54.png,0005-00-0005-06.png
00000009,858,0,1445629555098,1445629556148,921,375,0,0,0,2,3,1,23,0002-00-0009-13.png,0003-00-0006-13.png
00000009,859,1,1445629559282,1445629559807,1127,279,0,0,0,5,1,4,51,0001-00-0007-25.png,0004-00-0007-99.png
00000009,860,1,1445629561140,1445629561816,1048,290,0,0,0,4,2,2,42,0005-00-0004-22.png,0002-00-0002-08.png
00000009,861,0,1445629562681,1445629562709,985,421,0,0,0,4,5,1,45,0005-00-0008-61.png,0001-00-0008-52.png
00000009,862,1,1445629565598,1445629566076,396,398,0,0,0,2,4,2,24,0002-00-0000-48.png,0005-00-0007-72.png
00000009,863,1,1445629567391,1445629568021,510,260,0,0,0,1,5,4,15,0004-00-0002-46.png,0001-00-0003-95.png
00000009,864,0,1445629568951,1445629568983,920,425,0,0,0,1,4,3,14,0004-00-0005-22.png,0005-00-0006-01.png
00000009,865,0,1445629572078,1445629572757,1044,353,0,0,0,3,5,2,35,0003-00-0009-08.png,0001-00-0009-75.png
00000009,866,0,1445629575837,1445629576397,485,270,0,0,0,4,1,3,41,0005-00-0005-96.png,0004-00-0000-17.png
00000009,867,1,1445629579250,1445629579857,982,306,0,0,0,5,2,3,52,0001-00-0009-46.png,0002-00-0003-88.png
00000009,868,0,1445629581204,1445629581244,911,426,0,0,0,2,5,3,25,0002-00-0002-47.png,0001-00-0005-25.png
00000009,869,1,1445629584075,1445629584119,870,436,0,0,0,2,1,1,21,0002-00-0001-70.png,0004-00-0001-30.png
00000009,870,0,1445629585121,1445629585933,1034,294,0,0,0,3,4,1,34,0003-00-0006-20.png,0005-00-0007-08.png
00000009,871,0,1445629588943,1445629589644,499,296,0,0,0,5,3,2,53,0001-00-0004-30.png,0003-00-0000-35.png
00000009,872,1,1445629592596,1445629593188,958,341,0,0,0,5,1,4,51,0001-00-0008-80.png,0004-00-0009-70.png
00000009,873,1,1445629594501,1445629595142,1080,279,0,0,0,3,2,1,32,0003-00-0004-71.png,0002-00-0009-21.png
00000009,874,1,1445629595978,1445629596042,986,387,0,0,0,3,1,2,31,0003-00-0008-98.png,0004-00-0001-84.png
00000009,875,1,1445629597167,1445629597207,963,426,0,0,0,5,4,1,54,0001-00-0004-38.png,0005-00-0004-00.png
00000009,876,0,1445629598327,1445629598395,952,469,0,0,0,2,3,1,23,0002-00-0004-68.png,0003-00-0005-50.png
00000009,877,1,1445629601488,1445629602110,1102,299,0,0,0,4,3,1,43,0005-00-0004-76.png,0003-00-0000-46.png
00000009,878,0,1445629603485,1445629603798,1041,558,0,0,0,1,3,2,13,0004-00-0005-77.png,0003-00-0005-82.png
00000009,879,0,1445629606924,1445629607413,964,373,0,0,0,1,2,1,12,0004-00-0009-09.png,0002-00-0005-77.png
00000009,880,1,1445629610361,1445629610609,906,445,0,0,0,4,2,2,42,0005-00-0009-37.png,0002-00-0003-74.png
00000009,881,1,1445629611991,1445629612577,1097,303,0,0,0,3,2,1,32,0003-00-0000-86.png,0002-00-0008-08.png
00000009,882,1,1445629613452,1445629614330,960,347,0,0,0,4,2,2,42,0005-00-0009-87.png,0002-00-0007-58.png
00000009,883,0,1445629615308,1445629615362,981,458,0,0,0,2,4,2,24,0002-00-0007-14.png,0005-00-0005-77.png
00000009,884,0,1445629618410,1445629618964,1067,270,0,0,0,1,2,1,12,0004-00-0000-75.png,0002-00-0007-99.png
00000009,885,1,1445629622097,1445629623210,942,299,0,0,0,4,3,1,43,0005-00-0004-98.png,0003-00-0009-84.png
00000009,886,1,1445629624633,1445629625421,452,280,0,0,0,3,5,2,35,0003-00-0006-79.png,0001-00-0006-04.png
00000009,887,1,1445629626322,1445629626350,913,422,0,0,0,5,4,1,54,0001-00-0002-01.png,0005-00-0008-44.png
00000009,888,0,1445629627274,1445629627359,904,462,0,0,0,1,5,4,15,0004-00-0005-87.png,0001-00-0000-50.png
00000009,889,1,1445629630340,1445629631060,361,387,0,0,0,3,4,1,34,0003-00-0004-35.png,0005-00-0009-16.png
00000009,890,1,1445629632015,1445629632060,897,488,0,0,0,2,1,1,21,0002-00-0004-78.png,0004-00-0001-17.png
00000009,891,0,1445629632999,1445629633032,939,448,0,0,0,2,3,1,23,0002-00-0001-16.png,0003-00-0008-37.png
00000009,892,1,1445629636040,1445629636630,975,316,0,0,0,3,1,2,31,0003-00-0004-02.png,0004-00-0004-45.png
00000009,893,0,1445629637923,1445629637985,913,384,0,0,0,2,5,3,25,0002-00-0001-91.png,0001-00-0006-77.png
00000009,894,1,1445629640816,1445629641695,1087,328,0,0,0,4,1,3,41,0005-00-0009-29.png,0004-00-0008-10.png
00000009,895,1,1445629643008,1445629643592,964,347,0,0,0,5,1,4,51,0001-00-0000-23.png,0004-00-0007-88.png
00000009,896,1,1445629644466,1445629645272,480,306,0,0,0,1,3,2,13,0004-00-0001-71.png,0003-00-0006-65.png
00000009,897,1,1445629646385,1445629646437,920,425,0,0,0,5,2,3,52,0001-00-0004-04.png,0002-00-0009-27.png
00000009,898,0,1445629647578,1445629647634,964,472,0,0,0,4,5,1,45,0005-00-0008-76.png,0001-00-0000-93.png
00000009,899,1,1445629650465,1445629651330,1067,279,0,0,0,5,3,2,53,0001-00-0002-55.png,0003-00-0004-65.png
00000009,900,1,1445629652727,1445629653308,491,260,0,0,0,1,4,3,14,0004-00-0008-33.png,0005-00-0002-74.png
00000009,901,0,1445629654684,1445629655415,1071,284,0,0,0,2,3,1,23,0002-00-0006-43.png,0003-00-0008-44.png
00000009,902,1,1445629658551,1445629659030,967,307,0,0,0,5,2,3,52,0001-00-0003-54.png,0002-00-0003-42.png
00000009,903,0,1445629660357,1445629661206,386,331,0,0,0,3,1,2,31,0003-00-0006-84.png,0004-00-0006-60.png
00000009,904,1,1445629664789,1445629665294,427,279,0,0,0,1,5,4,15,0004-00-0005-77.png,0001-00-0008-00.png
00000009,905,0,1445629666231,1445629666263,913,465,0,0,0,4,5,1,45,0005-00-0008-08.png,0001-00-0008-36.png
00000009,906,1,1445629669222,1445629670005,957,364,0,0,0,2,1,1,21,0002-00-0009-45.png,0004-00-0001-24.png
00000009,907,1,1445629671319,1445629671950,1054,267,0,0,0,4,2,2,42,0005-00-0007-82.png,0002-00-0007-53.png
00000009,908,0,1445629672915,1445629672957,914,437,0,0,0,2,4,2,24,0002-00-0006-89.png,0005-00-0009-74.png
00000009,909,1,1445629676069,1445629676709,1070,307,0,0,0,4,3,1,43,0005-00-0004-04.png,0003-00-0007-07.png
00000009,910,0,1445629677621,1445629677680,964,450,0,0,0,1,3,2,13,0004-00-0005-56.png,0003-00-0004-18.png
00000009,911,1,1445629680767,1445629681317,495,266,0,0,0,1,2,1,12,0004-00-0001-90.png,0002-00-0008-41.png
00000009,912,1,1445629682628,1445629683323,472,262,0,0,0,1,4,3,14,0004-00-0005-61.png,0005-00-0007-14.png
00000009,913,1,1445629684348,1445629685305,1041,279,0,0,0,5,3,2,53,0001-00-0006-18.png,0003-00-0004-24.png
00000009,914,0,1445629686392,1445629687161,422,343,0,0,0,5,4,1,54,0001-00-0003-89.png,0005-00-0009-45.png
00000009,915,1,1445629690208,1445629690814,964,325,0,0,0,4,1,3,41,0005-00-0001-93.png,0004-00-0008-03.png
00000009,916,1,1445629691661,1445629692591,1067,294,0,0,0,5,1,4,51,0001-00-0000-79.png,0004-00-0002-25.png
00000009,917,1,1445629693607,1445629693639,1016,410,0,0,0,3,2,1,32,0003-00-0007-12.png,0002-00-0008-02.png
00000009,918,0,1445629694732,1445629695818,1063,324,0,0,0,3,5,2,35,0003-00-0004-30.png,0001-00-0001-93.png
00000009,919,1,1445629698681,1445629699368,470,306,0,0,0,2,5,3,25,0002-00-0002-96.png,0001-00-0008-53.png
00000009,920,0,1445629700823,1445629701497,1067,306,0,0,0,3,4,1,34,0003-00-0000-53.png,0005-00-0008-36.png
00000009,921,0,1445629704609,1445629705514,332,376,0,0,0,2,1,1,21,0002-00-0000-58.png,0004-00-0007-28.png
00000009,922,1,1445629708382,1445629709160,445,297,0,0,0,2,4,2,24,0002-00-0006-71.png,0005-00-0001-76.png
00000009,923,1,1445629710591,1445629710619,922,384,0,0,0,5,3,2,53,0001-00-0005-93.png,0003-00-0002-92.png
00000009,924,1,1445629711685,1445629711733,904,435,0,0,0,4,2,2,42,0005-00-0008-51.png,0002-00-0000-10.png
00000009,925,0,1445629712797,1445629712857,939,447,0,0,0,1,4,3,14,0004-00-0009-74.png,0005-00-0003-15.png
00000009,926,1,1445629715918,1445629716433,478,279,0,0,0,2,5,3,25,0002-00-0009-21.png,0001-00-0009-53.png
00000009,927,1,1445629717818,1445629718366,517,246,0,0,0,2,3,1,23,0002-00-0003-13.png,0003-00-0002-11.png
00000009,928,1,1445629719407,1445629720427,1066,312,0,0,0,4,3,1,43,0005-00-0008-28.png,0003-00-0009-52.png
00000009,929,1,1445629721504,1445629721532,959,448,0,0,0,3,2,1,32,0003-00-0004-00.png,0002-00-0009-66.png
00000009,930,0,1445629722773,1445629722805,958,467,0,0,0,3,4,1,34,0003-00-0002-96.png,0005-00-0001-35.png
00000009,931,1,1445629725647,1445629726183,410,380,0,0,0,3,5,2,35,0003-00-0004-20.png,0001-00-0000-11.png
00000009,932,1,1445629727564,1445629727592,888,384,0,0,0,5,4,1,54,0001-00-0000-44.png,0005-00-0007-61.png
00000009,933,1,1445629728678,1445629728708,894,417,0,0,0,4,1,3,41,0005-00-0004-84.png,0004-00-0006-25.png
00000009,934,0,1445629729799,1445629729815,936,463,0,0,0,1,2,1,12,0004-00-0002-63.png,0002-00-0001-49.png
00000009,935,1,1445629732722,1445629733174,1067,297,0,0,0,5,1,4,51,0001-00-0006-84.png,0004-00-0003-79.png
00000009,936,1,1445629736249,1445629736788,382,376,0,0,0,1,5,4,15,0004-00-0005-24.png,0001-00-0003-88.png
00000009,937,0,1445629737749,1445629737773,887,439,0,0,0,4,5,1,45,0005-00-0001-72.png,0001-00-0002-29.png
00000009,938,0,1445629740622,1445629741214,483,262,0,0,0,3,1,2,31,0003-00-0007-28.png,0004-00-0003-22.png
00000009,939,1,1445629744409,1445629745053,949,413,0,0,0,5,2,3,52,0001-00-0008-45.png,0002-00-0002-73.png
00000009,940,1,1445629746513,1445629747282,502,271,0,0,0,1,3,2,13,0004-00-0005-14.png,0003-00-0002-04.png
00000009,941,1,1445629748195,1445629748223,914,445,0,0,0,5,2,3,52,0001-00-0003-71.png,0002-00-0009-72.png
