subject_id,trial,correct_response,stim_time,response_time,x_coord,y_coord,trial_timeout,timeout_time,interTrial_timeout,left_rank,right_rank,distance,joint_rank,left_image,right_image
9,1,0,1.44536E+12,1.44536E+12,350,440,0,0,0,1,3,2,13,0004-00-0002-57.png,0003-00-0003-03.png
9,2,1,1.44536E+12,1.44536E+12,992,356,0,0,0,4,1,3,41,0005-00-0008-46.png,0004-00-0001-64.png
9,3,1,1.44536E+12,1.44536E+12,956,382,0,0,0,3,4,1,34,0003-00-0006-74.png,0005-00-0009-95.png
9,4,1,1.44536E+12,1.44536E+12,355,255,0,0,0,2,1,1,21,0002-00-0000-71.png,0004-00-0003-11.png
9,5,0,1.44536E+12,1.44536E+12,858,296,0,0,0,2,5,3,25,0002-00-0006-16.png,0001-00-0009-31.png
9,6,1,1.44536E+12,1.44536E+12,937,321,0,0,0,2,1,1,21,0002-00-0002-53.png,0004-00-0007-76.png
9,7,0,1.44536E+12,1.44536E+12,965,336,0,0,0,2,4,2,24,0002-00-0007-12.png,0005-00-0005-28.png
9,8,1,1.44536E+12,1.44536E+12,398,272,0,0,0,3,1,2,31,0003-00-0009-70.png,0004-00-0004-71.png
9,9,1,1.44536E+12,1.44536E+12,965,343,0,0,0,5,4,1,54,0001-00-0004-02.png,0005-00-0006-62.png
9,10,1,1.44536E+12,1.44536E+12,331,420,0,0,0,4,1,3,41,0005-00-0009-00.png,0004-00-0009-20.png
9,11,0,1.44536E+12,1.44536E+12,891,356,0,0,0,3,5,2,35,0003-00-0004-84.png,0001-00-0002-22.png
9,12,1,1.44536E+12,1.44536E+12,950,276,0,0,0,3,2,1,32,0003-00-0009-15.png,0002-00-0007-21.png
9,13,0,1.44536E+12,1.44536E+12,950,384,0,0,0,1,2,1,12,0004-00-0009-01.png,0002-00-0006-36.png
9,14,1,1.44536E+12,1.44536E+12,888,398,0,0,0,2,1,1,21,0002-00-0007-41.png,0004-00-0008-37.png
9,15,1,1.44536E+12,1.44536E+12,936,387,0,0,0,1,5,4,15,0004-00-0004-31.png,0001-00-0006-64.png
9,16,1,1.44536E+12,1.44536E+12,906,448,0,0,0,2,4,2,24,0002-00-0000-50.png,0005-00-0008-18.png
9,17,1,1.44536E+12,1.44536E+12,368,429,0,0,0,3,2,1,32,0003-00-0009-65.png,0002-00-0003-02.png
9,18,1,1.44536E+12,1.44536E+12,911,391,0,0,0,4,5,1,45,0005-00-0006-57.png,0001-00-0001-35.png
9,19,1,1.44536E+12,1.44536E+12,964,395,0,0,0,3,1,2,31,0003-00-0003-87.png,0004-00-0006-82.png
9,20,1,1.44536E+12,1.44536E+12,945,486,0,0,0,4,3,1,43,0005-00-0006-32.png,0003-00-0004-76.png
9,21,1,1.44536E+12,1.44536E+12,1020,297,0,0,0,1,4,3,14,0004-00-0000-85.png,0005-00-0005-40.png
9,22,0,1.44536E+12,1.44536E+12,926,410,0,0,0,2,4,2,24,0002-00-0006-61.png,0005-00-0008-27.png
9,23,1,1.44536E+12,1.44536E+12,913,384,0,0,0,1,3,2,13,0004-00-0000-16.png,0003-00-0006-72.png
9,24,0,1.44536E+12,1.44536E+12,919,429,0,0,0,2,3,1,23,0002-00-0007-37.png,0003-00-0008-87.png
9,25,1,1.44536E+12,1.44536E+12,990,433,0,0,0,4,1,3,41,0005-00-0007-43.png,0004-00-0000-64.png
9,26,1,1.44536E+12,1.44536E+12,1049,248,0,0,0,1,2,1,12,0004-00-0006-45.png,0002-00-0007-55.png
9,27,1,1.44536E+12,1.44536E+12,869,412,0,0,0,1,4,3,14,0004-00-0008-88.png,0005-00-0002-31.png
9,28,1,1.44536E+12,1.44536E+12,1039,280,0,0,0,5,3,2,53,0001-00-0009-11.png,0003-00-0009-69.png
9,29,0,1.44536E+12,1.44536E+12,862,398,0,0,0,3,5,2,35,0003-00-0004-37.png,0001-00-0005-37.png
9,30,1,1.44536E+12,1.44536E+12,352,378,0,0,0,5,4,1,54,0001-00-0009-09.png,0005-00-0005-58.png
9,31,0,1.44536E+12,1.44536E+12,910,360,0,0,0,3,1,2,31,0003-00-0009-15.png,0004-00-0005-32.png
9,32,1,1.44536E+12,1.44536E+12,922,357,0,0,0,2,5,3,25,0002-00-0002-58.png,0001-00-0008-20.png
9,33,1,1.44536E+12,1.44536E+12,913,410,0,0,0,5,2,3,52,0001-00-0009-65.png,0002-00-0004-02.png
9,34,1,1.44536E+12,1.44536E+12,1060,280,0,0,0,1,3,2,13,0004-00-0008-65.png,0003-00-0004-76.png
9,35,1,1.44536E+12,1.44536E+12,906,390,0,0,0,5,1,4,51,0001-00-0002-92.png,0004-00-0007-10.png
9,36,0,1.44536E+12,1.44536E+12,1041,253,0,0,0,2,3,1,23,0002-00-0009-71.png,0003-00-0008-15.png
9,37,1,1.44536E+12,1.44536E+12,936,392,0,0,0,4,3,1,43,0005-00-0003-21.png,0003-00-0004-88.png
9,38,0,1.44536E+12,1.44536E+12,877,449,0,0,0,1,4,3,14,0004-00-0005-18.png,0005-00-0004-49.png
9,39,0,1.44536E+12,1.44536E+12,415,288,0,0,0,3,4,1,34,0003-00-0001-92.png,0005-00-0003-36.png
9,40,1,1.44536E+12,1.44536E+12,881,384,0,0,0,2,5,3,25,0002-00-0001-16.png,0001-00-0004-08.png
9,41,0,1.44536E+12,1.44536E+12,910,412,0,0,0,4,5,1,45,0005-00-0004-51.png,0001-00-0001-59.png
9,42,1,1.44536E+12,1.44536E+12,897,384,0,0,0,3,1,2,31,0003-00-0000-29.png,0004-00-0005-40.png
9,43,1,1.44536E+12,1.44536E+12,377,382,0,0,0,5,1,4,51,0001-00-0005-41.png,0004-00-0001-05.png
9,44,1,1.44536E+12,1.44536E+12,925,400,0,0,0,1,3,2,13,0004-00-0001-91.png,0003-00-0001-48.png
9,45,1,1.44536E+12,1.44536E+12,873,363,0,0,0,5,2,3,52,0001-00-0002-59.png,0002-00-0007-30.png
9,46,1,1.44536E+12,1.44536E+12,898,384,0,0,0,5,1,4,51,0001-00-0001-25.png,0004-00-0003-39.png
9,47,1,1.44536E+12,1.44536E+12,870,377,0,0,0,4,1,3,41,0005-00-0006-27.png,0004-00-0009-08.png
9,48,0,1.44536E+12,1.44536E+12,963,278,0,0,0,4,3,1,43,0005-00-0001-87.png,0003-00-0009-81.png
9,49,1,1.44536E+12,1.44536E+12,964,314,0,0,0,3,2,1,32,0003-00-0005-39.png,0002-00-0005-58.png
9,50,0,1.44536E+12,1.44536E+12,432,272,0,0,0,4,3,1,43,0005-00-0003-20.png,0003-00-0008-71.png
9,51,0,1.44536E+12,1.44536E+12,863,344,0,0,0,2,1,1,21,0002-00-0000-69.png,0004-00-0000-02.png
9,52,1,1.44536E+12,1.44536E+12,350,372,0,0,0,1,5,4,15,0004-00-0004-92.png,0001-00-0001-81.png
9,53,0,1.44536E+12,1.44536E+12,981,346,0,0,0,4,3,1,43,0005-00-0009-63.png,0003-00-0003-22.png
9,54,0,1.44536E+12,1.44536E+12,1067,279,0,0,0,3,4,1,34,0003-00-0004-46.png,0005-00-0009-39.png
9,55,0,1.44536E+12,1.44536E+12,926,410,0,0,0,4,5,1,45,0005-00-0005-43.png,0001-00-0001-44.png
9,56,1,1.44536E+12,1.44536E+12,880,410,0,0,0,3,2,1,32,0003-00-0005-81.png,0002-00-0006-32.png
9,57,1,1.44536E+12,1.44536E+12,880,422,0,0,0,2,1,1,21,0002-00-0000-19.png,0004-00-0004-34.png
9,58,1,1.44536E+12,1.44536E+12,456,260,0,0,0,5,4,1,54,0001-00-0005-27.png,0005-00-0002-58.png
9,59,1,1.44536E+12,1.44536E+12,366,367,0,0,0,4,1,3,41,0005-00-0008-86.png,0004-00-0002-21.png
9,60,1,1.44536E+12,1.44536E+12,859,368,0,0,0,4,2,2,42,0005-00-0000-59.png,0002-00-0002-65.png
9,61,1,1.44536E+12,1.44536E+12,870,378,0,0,0,3,1,2,31,0003-00-0009-05.png,0004-00-0003-97.png
9,62,1,1.44536E+12,1.44536E+12,868,426,0,0,0,5,4,1,54,0001-00-0005-62.png,0005-00-0007-87.png
9,63,0,1.44536E+12,1.44536E+12,888,416,0,0,0,4,5,1,45,0005-00-0007-85.png,0001-00-0003-54.png
9,64,0,1.44536E+12,1.44536E+12,915,445,0,0,0,4,3,1,43,0005-00-0009-38.png,0003-00-0006-96.png
9,65,1,1.44536E+12,1.44536E+12,462,257,0,0,0,5,2,3,52,0001-00-0003-59.png,0002-00-0008-50.png
9,66,0,1.44536E+12,1.44536E+12,458,284,0,0,0,2,4,2,24,0002-00-0004-24.png,0005-00-0002-34.png
9,67,0,1.44536E+12,1.44536E+12,1078,279,0,0,0,4,5,1,45,0005-00-0000-22.png,0001-00-0006-84.png
9,68,1,1.44536E+12,1.44536E+12,907,429,0,0,0,3,1,2,31,0003-00-0002-57.png,0004-00-0008-03.png
9,69,0,1.44536E+12,1.44536E+12,320,364,0,0,0,1,3,2,13,0004-00-0002-35.png,0003-00-0005-93.png
9,70,1,1.44536E+12,1.44536E+12,865,384,0,0,0,1,3,2,13,0004-00-0000-81.png,0003-00-0006-71.png
9,71,1,1.44536E+12,1.44536E+12,860,405,0,0,0,3,5,2,35,0003-00-0005-29.png,0001-00-0002-27.png
9,72,1,1.44536E+12,1.44536E+12,964,395,0,0,0,2,3,1,23,0002-00-0002-45.png,0003-00-0000-23.png
9,73,1,1.44536E+12,1.44536E+12,459,291,0,0,0,5,4,1,54,0001-00-0002-20.png,0005-00-0004-30.png
9,74,1,1.44536E+12,1.44536E+12,1108,237,0,0,0,5,2,3,52,0001-00-0003-57.png,0002-00-0005-20.png
9,75,0,1.44536E+12,1.44536E+12,885,370,0,0,0,1,5,4,15,0004-00-0004-25.png,0001-00-0003-50.png
9,76,1,1.44536E+12,1.44536E+12,882,397,0,0,0,2,4,2,24,0002-00-0005-02.png,0005-00-0009-30.png
9,77,1,1.44536E+12,1.44536E+12,1067,313,0,0,0,5,1,4,51,0001-00-0008-70.png,0004-00-0002-81.png
9,78,1,1.44536E+12,1.44536E+12,913,370,0,0,0,3,2,1,32,0003-00-0005-28.png,0002-00-0009-77.png
9,79,0,1.44536E+12,1.44536E+12,862,371,0,0,0,1,4,3,14,0004-00-0003-21.png,0005-00-0004-81.png
9,80,1,1.44536E+12,1.44536E+12,866,432,0,0,0,5,1,4,51,0001-00-0002-38.png,0004-00-0008-68.png
9,81,1,1.44536E+12,1.44536E+12,453,295,0,0,0,4,5,1,45,0005-00-0001-95.png,0001-00-0009-48.png
9,82,1,1.44536E+12,1.44536E+12,985,501,0,0,0,2,4,2,24,0002-00-0009-37.png,0005-00-0002-68.png
9,83,0,1.44536E+12,1.44536E+12,862,367,0,0,0,1,2,1,12,0004-00-0005-30.png,0002-00-0007-94.png
9,84,1,1.44536E+12,1.44536E+12,896,405,0,0,0,5,3,2,53,0001-00-0005-58.png,0003-00-0007-26.png
9,85,0,1.44536E+12,1.44536E+12,983,335,0,0,0,4,5,1,45,0005-00-0006-38.png,0001-00-0004-37.png
9,86,1,1.44536E+12,1.44536E+12,903,421,0,0,0,2,1,1,21,0002-00-0008-12.png,0004-00-0009-75.png
9,87,1,1.44536E+12,1.44536E+12,940,439,0,0,0,4,2,2,42,0005-00-0005-74.png,0002-00-0004-84.png
9,88,1,1.44536E+12,1.44536E+12,862,358,0,0,0,4,3,1,43,0005-00-0003-64.png,0003-00-0004-46.png
9,89,1,1.44536E+12,1.44536E+12,1084,321,0,0,0,4,2,2,42,0005-00-0007-58.png,0002-00-0000-95.png
9,90,1,1.44536E+12,1.44536E+12,1036,269,0,0,0,1,5,4,15,0004-00-0009-44.png,0001-00-0008-14.png
9,91,0,1.44536E+12,1.44536E+12,929,421,0,0,0,5,4,1,54,0001-00-0007-23.png,0005-00-0003-80.png
9,92,1,1.44536E+12,1.44536E+12,866,401,0,0,0,1,2,1,12,0004-00-0000-59.png,0002-00-0006-10.png
9,93,0,1.44536E+12,1.44536E+12,880,416,0,0,0,1,2,1,12,0004-00-0006-89.png,0002-00-0000-85.png
9,94,1,1.44536E+12,1.44536E+12,388,418,0,0,0,1,5,4,15,0004-00-0000-72.png,0001-00-0008-00.png
9,95,1,1.44536E+12,1.44536E+12,356,392,0,0,0,3,2,1,32,0003-00-0001-65.png,0002-00-0004-43.png
9,96,1,1.44536E+12,1.44536E+12,862,384,0,0,0,4,2,2,42,0005-00-0008-85.png,0002-00-0007-73.png
9,97,1,1.44536E+12,1.44536E+12,362,392,0,0,0,5,4,1,54,0001-00-0003-50.png,0005-00-0006-19.png
9,98,1,1.44536E+12,1.44536E+12,433,261,0,0,0,2,4,2,24,0002-00-0007-84.png,0005-00-0008-48.png
9,99,0,1.44536E+12,1.44536E+12,470,278,0,0,0,3,4,1,34,0003-00-0005-91.png,0005-00-0005-08.png
9,100,1,1.44536E+12,1.44536E+12,361,309,0,0,0,1,5,4,15,0004-00-0004-44.png,0001-00-0009-50.png
9,101,1,1.44536E+12,1.44536E+12,871,358,0,0,0,3,2,1,32,0003-00-0007-74.png,0002-00-0009-51.png
9,102,0,1.44536E+12,1.44536E+12,862,295,0,0,0,1,4,3,14,0004-00-0003-20.png,0005-00-0007-10.png
9,103,1,1.44536E+12,1.44536E+12,946,401,0,0,0,2,5,3,25,0002-00-0000-16.png,0001-00-0008-43.png
9,104,0,1.44536E+12,1.44536E+12,957,352,0,0,0,1,5,4,15,0004-00-0004-70.png,0001-00-0002-79.png
9,105,1,1.44536E+12,1.44536E+12,456,405,0,0,0,5,3,2,53,0001-00-0008-06.png,0003-00-0004-51.png
9,106,0,1.44536E+12,1.44536E+12,973,375,0,0,0,5,4,1,54,0001-00-0006-18.png,0005-00-0005-42.png
9,107,1,1.44536E+12,1.44536E+12,1063,546,0,0,0,5,4,1,54,0001-00-0006-74.png,0005-00-0000-23.png
9,108,1,1.44536E+12,1.44536E+12,885,320,0,0,0,2,3,1,23,0002-00-0002-27.png,0003-00-0009-60.png
9,109,1,1.44536E+12,1.44536E+12,385,364,0,0,0,2,4,2,24,0002-00-0003-75.png,0005-00-0000-57.png
9,110,1,1.44536E+12,1.44536E+12,502,271,0,0,0,1,3,2,13,0004-00-0004-23.png,0003-00-0002-76.png
9,111,1,1.44536E+12,1.44536E+12,882,360,0,0,0,2,1,1,21,0002-00-0004-57.png,0004-00-0007-51.png
9,112,1,1.44536E+12,1.44536E+12,858,366,0,0,0,5,1,4,51,0001-00-0005-60.png,0004-00-0009-15.png
9,113,1,1.44536E+12,1.44536E+12,881,391,0,0,0,4,1,3,41,0005-00-0008-87.png,0004-00-0009-93.png
9,114,1,1.44536E+12,1.44536E+12,454,283,0,0,0,5,4,1,54,0001-00-0004-34.png,0005-00-0000-24.png
9,115,1,1.44536E+12,1.44536E+12,430,292,0,0,0,1,4,3,14,0004-00-0007-67.png,0005-00-0001-48.png
9,116,0,1.44536E+12,1.44536E+12,420,270,0,0,0,4,5,1,45,0005-00-0006-56.png,0001-00-0009-32.png
9,117,1,1.44536E+12,1.44536E+12,988,324,0,0,0,4,1,3,41,0005-00-0007-75.png,0004-00-0007-39.png
9,118,0,1.44536E+12,1.44536E+12,904,390,0,0,0,2,3,1,23,0002-00-0008-89.png,0003-00-0003-40.png
9,119,0,1.44536E+12,1.44536E+12,893,376,0,0,0,4,3,1,43,0005-00-0009-96.png,0003-00-0001-42.png
9,120,1,1.44536E+12,1.44536E+12,860,361,0,0,0,5,1,4,51,0001-00-0004-25.png,0004-00-0002-44.png
9,121,0,1.44536E+12,1.44536E+12,964,332,0,0,0,3,5,2,35,0003-00-0009-76.png,0001-00-0002-92.png
9,122,1,1.44536E+12,1.44536E+12,398,429,0,0,0,3,2,1,32,0003-00-0001-66.png,0002-00-0004-77.png
9,123,0,1.44536E+12,1.44536E+12,888,395,0,0,0,1,3,2,13,0004-00-0007-59.png,0003-00-0001-79.png
9,124,1,1.44536E+12,1.44536E+12,888,396,0,0,0,4,2,2,42,0005-00-0009-33.png,0002-00-0000-79.png
9,125,0,1.44536E+12,1.44536E+12,484,258,0,0,0,4,3,1,43,0005-00-0007-74.png,0003-00-0008-17.png
9,126,1,1.44536E+12,1.44536E+12,987,381,0,0,0,4,2,2,42,0005-00-0004-35.png,0002-00-0006-10.png
9,127,0,1.44536E+12,1.44536E+12,947,410,0,0,0,1,2,1,12,0004-00-0008-53.png,0002-00-0001-96.png
9,128,1,1.44536E+12,1.44536E+12,888,410,0,0,0,1,4,3,14,0004-00-0002-22.png,0005-00-0001-57.png
9,129,0,1.44536E+12,1.44536E+12,1092,306,0,0,0,2,3,1,23,0002-00-0007-91.png,0003-00-0007-45.png
9,130,1,1.44536E+12,1.44536E+12,442,406,0,0,0,1,5,4,15,0004-00-0004-85.png,0001-00-0008-87.png
9,131,0,1.44536E+12,1.44536E+12,889,408,0,0,0,3,5,2,35,0003-00-0008-99.png,0001-00-0001-06.png
9,132,0,1.44536E+12,1.44536E+12,881,438,0,0,0,1,3,2,13,0004-00-0001-24.png,0003-00-0007-40.png
9,133,1,1.44536E+12,1.44536E+12,1070,268,0,0,0,3,1,2,31,0003-00-0002-98.png,0004-00-0005-91.png
9,134,1,1.44536E+12,1.44536E+12,403,434,0,0,0,1,4,3,14,0004-00-0001-43.png,0005-00-0007-29.png
9,135,0,1.44536E+12,1.44536E+12,927,358,0,0,0,1,5,4,15,0004-00-0006-39.png,0001-00-0009-82.png
9,136,1,1.44536E+12,1.44536E+12,936,395,0,0,0,2,4,2,24,0002-00-0007-70.png,0005-00-0005-70.png
9,137,1,1.44536E+12,1.44536E+12,913,332,0,0,0,3,1,2,31,0003-00-0005-28.png,0004-00-0006-28.png
9,138,1,1.44536E+12,1.44536E+12,964,306,0,0,0,5,1,4,51,0001-00-0005-25.png,0004-00-0004-84.png
9,139,1,1.44536E+12,1.44536E+12,967,326,0,0,0,3,4,1,34,0003-00-0000-44.png,0005-00-0002-92.png
9,140,1,1.44536E+12,1.44536E+12,395,388,0,0,0,3,1,2,31,0003-00-0009-62.png,0004-00-0007-43.png
9,141,1,1.44536E+12,1.44536E+12,943,356,0,0,0,5,4,1,54,0001-00-0007-24.png,0005-00-0007-73.png
9,142,1,1.44536E+12,1.44536E+12,899,358,0,0,0,3,1,2,31,0003-00-0005-59.png,0004-00-0009-21.png
9,143,0,1.44536E+12,1.44536E+12,884,395,0,0,0,1,2,1,12,0004-00-0003-00.png,0002-00-0001-77.png
9,144,1,1.44536E+12,1.44536E+12,925,384,0,0,0,2,4,2,24,0002-00-0001-16.png,0005-00-0005-92.png
9,145,1,1.44536E+12,1.44536E+12,1016,462,0,0,0,5,1,4,51,0001-00-0008-82.png,0004-00-0000-95.png
9,146,1,1.44536E+12,1.44536E+12,961,311,0,0,0,5,3,2,53,0001-00-0006-44.png,0003-00-0004-09.png
9,147,1,1.44536E+12,1.44536E+12,977,364,0,0,0,5,3,2,53,0001-00-0000-26.png,0003-00-0000-09.png
9,148,1,1.44536E+12,1.44536E+12,916,382,0,0,0,5,3,2,53,0001-00-0003-81.png,0003-00-0009-71.png
9,149,1,1.44536E+12,1.44536E+12,964,374,0,0,0,2,3,1,23,0002-00-0003-92.png,0003-00-0001-39.png
9,150,1,1.44536E+12,1.44536E+12,888,424,0,0,0,3,2,1,32,0003-00-0006-32.png,0002-00-0005-86.png
9,151,1,1.44536E+12,1.44536E+12,1092,295,0,0,0,4,1,3,41,0005-00-0001-83.png,0004-00-0000-38.png
9,152,0,1.44536E+12,1.44536E+12,898,443,0,0,0,1,3,2,13,0004-00-0009-58.png,0003-00-0003-78.png
9,153,0,1.44536E+12,1.44536E+12,488,259,0,0,0,1,4,3,14,0004-00-0004-71.png,0005-00-0002-88.png
9,154,1,1.44536E+12,1.44536E+12,1058,262,0,0,0,1,2,1,12,0004-00-0008-40.png,0002-00-0006-25.png
9,155,0,1.44536E+12,1.44536E+12,939,384,0,0,0,1,2,1,12,0004-00-0000-67.png,0002-00-0004-18.png
9,156,0,1.44536E+12,1.44536E+12,1092,279,0,0,0,4,3,1,43,0005-00-0005-28.png,0003-00-0009-33.png
9,157,1,1.44536E+12,1.44536E+12,874,358,0,0,0,4,3,1,43,0005-00-0007-01.png,0003-00-0004-59.png
9,158,1,1.44536E+12,1.44536E+12,874,410,0,0,0,3,2,1,32,0003-00-0008-86.png,0002-00-0008-37.png
9,159,1,1.44536E+12,1.44536E+12,902,410,0,0,0,5,2,3,52,0001-00-0003-22.png,0002-00-0002-72.png
9,160,0,1.44536E+12,1.44536E+12,507,290,0,0,0,3,4,1,34,0003-00-0007-87.png,0005-00-0001-94.png
9,161,1,1.44536E+12,1.44536E+12,990,372,0,0,0,4,3,1,43,0005-00-0009-95.png,0003-00-0001-99.png
9,162,0,1.44536E+12,1.44536E+12,913,384,0,0,0,2,4,2,24,0002-00-0000-39.png,0005-00-0001-71.png
9,163,1,1.44536E+12,1.44536E+12,964,375,0,0,0,3,2,1,32,0003-00-0007-09.png,0002-00-0007-42.png
9,164,0,1.44536E+12,1.44536E+12,916,403,0,0,0,3,4,1,34,0003-00-0006-57.png,0005-00-0009-97.png
9,165,1,1.44536E+12,1.44536E+12,475,310,0,0,0,5,3,2,53,0001-00-0008-45.png,0003-00-0007-75.png
9,166,1,1.44536E+12,1.44536E+12,424,289,0,0,0,4,3,1,43,0005-00-0003-13.png,0003-00-0009-46.png
9,167,1,1.44536E+12,1.44536E+12,862,384,0,0,0,4,2,2,42,0005-00-0001-16.png,0002-00-0002-11.png
9,168,1,1.44536E+12,1.44536E+12,921,342,0,0,0,4,2,2,42,0005-00-0005-78.png,0002-00-0009-21.png
9,169,1,1.44536E+12,1.44536E+12,900,384,0,0,0,1,2,1,12,0004-00-0009-60.png,0002-00-0001-92.png
9,170,1,1.44536E+12,1.44536E+12,914,446,0,0,0,2,5,3,25,0002-00-0004-13.png,0001-00-0004-60.png
9,171,1,1.44536E+12,1.44536E+12,913,420,0,0,0,5,4,1,54,0001-00-0009-84.png,0005-00-0009-40.png
9,172,0,1.44536E+12,1.44536E+12,373,338,0,0,0,1,2,1,12,0004-00-0004-55.png,0002-00-0008-82.png
9,173,1,1.44536E+12,1.44536E+12,955,327,0,0,0,2,4,2,24,0002-00-0006-30.png,0005-00-0001-37.png
9,174,0,1.44536E+12,1.44536E+12,942,385,0,0,0,5,2,3,52,0001-00-0007-34.png,0002-00-0007-74.png
9,175,0,1.44536E+12,1.44536E+12,888,384,0,0,0,5,3,2,53,0001-00-0007-99.png,0003-00-0001-27.png
9,176,0,1.44536E+12,1.44536E+12,920,347,0,0,0,3,4,1,34,0003-00-0002-35.png,0005-00-0006-53.png
9,177,0,1.44536E+12,1.44536E+12,935,312,0,0,0,3,1,2,31,0003-00-0007-07.png,0004-00-0009-62.png
9,178,0,1.44536E+12,1.44536E+12,939,306,0,0,0,3,5,2,35,0003-00-0001-91.png,0001-00-0008-82.png
9,179,0,1.44536E+12,1.44536E+12,950,401,0,0,0,5,3,2,53,0001-00-0008-47.png,0003-00-0002-30.png
9,180,1,1.44536E+12,1.44536E+12,938,385,0,0,0,2,5,3,25,0002-00-0004-90.png,0001-00-0001-44.png
9,181,1,1.44536E+12,1.44536E+12,369,377,0,0,0,4,2,2,42,0005-00-0009-86.png,0002-00-0007-83.png
9,182,0,1.44536E+12,1.44536E+12,395,350,0,0,0,1,5,4,15,0004-00-0005-98.png,0001-00-0000-58.png
9,183,1,1.44536E+12,1.44536E+12,438,277,0,0,0,5,2,3,52,0001-00-0008-48.png,0002-00-0006-87.png
9,184,0,1.44536E+12,1.44536E+12,488,252,0,0,0,3,5,2,35,0003-00-0002-96.png,0001-00-0004-05.png
9,185,1,1.44536E+12,1.44536E+12,892,456,0,0,0,1,4,3,14,0004-00-0002-59.png,0005-00-0007-93.png
9,186,0,1.44536E+12,1.44536E+12,888,410,0,0,0,4,2,2,42,0005-00-0001-04.png,0002-00-0005-82.png
9,187,1,1.44536E+12,1.44536E+12,991,354,0,0,0,4,2,2,42,0005-00-0008-35.png,0002-00-0006-28.png
9,188,1,1.44536E+12,1.44536E+12,891,442,0,0,0,5,1,4,51,0001-00-0000-47.png,0004-00-0002-79.png
9,189,1,1.44536E+12,1.44536E+12,387,349,0,0,0,2,5,3,25,0002-00-0007-17.png,0001-00-0006-73.png
9,190,1,1.44536E+12,1.44536E+12,1063,244,0,0,0,5,2,3,52,0001-00-0001-89.png,0002-00-0002-92.png
9,191,1,1.44536E+12,1.44536E+12,918,404,0,0,0,1,5,4,15,0004-00-0001-43.png,0001-00-0002-51.png
9,192,1,1.44536E+12,1.44536E+12,884,388,0,0,0,1,4,3,14,0004-00-0000-37.png,0005-00-0009-41.png
9,193,1,1.44536E+12,1.44536E+12,1067,289,0,0,0,1,5,4,15,0004-00-0008-88.png,0001-00-0005-51.png
9,194,1,1.44536E+12,1.44536E+12,888,384,0,0,0,5,1,4,51,0001-00-0009-45.png,0004-00-0009-58.png
9,195,0,1.44536E+12,1.44536E+12,984,317,0,0,0,1,5,4,15,0004-00-0003-27.png,0001-00-0006-66.png
9,196,1,1.44536E+12,1.44536E+12,915,434,0,0,0,4,1,3,41,0005-00-0009-47.png,0004-00-0007-58.png
9,197,1,1.44536E+12,1.44536E+12,364,378,0,0,0,4,2,2,42,0005-00-0006-70.png,0002-00-0002-99.png
9,198,1,1.44536E+12,1.44536E+12,970,401,0,0,0,2,1,1,21,0002-00-0009-35.png,0004-00-0002-09.png
9,199,1,1.44536E+12,1.44536E+12,929,410,0,0,0,2,4,2,24,0002-00-0005-88.png,0005-00-0002-41.png
9,200,1,1.44536E+12,1.44536E+12,948,403,0,0,0,1,4,3,14,0004-00-0001-92.png,0005-00-0004-25.png
9,201,1,1.44536E+12,1.44536E+12,1076,244,0,0,0,3,5,2,35,0003-00-0007-37.png,0001-00-0001-66.png
9,202,0,1.44536E+12,1.44536E+12,957,417,0,0,0,2,5,3,25,0002-00-0001-29.png,0001-00-0000-13.png
9,203,1,1.44536E+12,1.44536E+12,988,407,0,0,0,1,3,2,13,0004-00-0006-63.png,0003-00-0008-16.png
9,204,1,1.44536E+12,1.44536E+12,915,539,0,0,0,3,1,2,31,0003-00-0001-59.png,0004-00-0000-85.png
9,205,1,1.44536E+12,1.44536E+12,931,408,0,0,0,5,1,4,51,0001-00-0005-46.png,0004-00-0000-58.png
9,206,1,1.44536E+12,1.44536E+12,948,280,0,0,0,4,3,1,43,0005-00-0001-88.png,0003-00-0003-54.png
9,207,0,1.44536E+12,1.44536E+12,964,409,0,0,0,1,3,2,13,0004-00-0004-79.png,0003-00-0004-79.png
9,208,1,1.44536E+12,1.44536E+12,1054,265,0,0,0,4,1,3,41,0005-00-0002-29.png,0004-00-0002-57.png
9,209,0,1.44536E+12,1.44536E+12,1067,290,0,0,0,4,5,1,45,0005-00-0008-81.png,0001-00-0002-22.png
9,210,1,1.44536E+12,1.44536E+12,888,445,0,0,0,1,5,4,15,0004-00-0007-39.png,0001-00-0007-92.png
9,211,0,1.44536E+12,1.44536E+12,1143,292,0,0,0,2,3,1,23,0002-00-0001-66.png,0003-00-0006-16.png
9,212,1,1.44536E+12,1.44536E+12,1095,288,0,0,0,2,1,1,21,0002-00-0009-76.png,0004-00-0000-02.png
9,213,0,1.44536E+12,1.44536E+12,922,373,0,0,0,5,3,2,53,0001-00-0006-10.png,0003-00-0004-94.png
9,214,1,1.44536E+12,1.44536E+12,877,358,0,0,0,3,1,2,31,0003-00-0006-00.png,0004-00-0001-37.png
9,215,0,1.44536E+12,1.44536E+12,350,372,0,0,0,4,5,1,45,0005-00-0008-26.png,0001-00-0000-80.png
9,216,1,1.44536E+12,1.44536E+12,356,377,0,0,0,1,4,3,14,0004-00-0006-02.png,0005-00-0002-64.png
9,217,0,1.44536E+12,1.44536E+12,424,404,0,0,0,1,3,2,13,0004-00-0004-33.png,0003-00-0002-69.png
9,218,1,1.44536E+12,1.44536E+12,366,384,0,0,0,2,3,1,23,0002-00-0008-13.png,0003-00-0006-09.png
9,219,0,1.44536E+12,1.44536E+12,1054,253,0,0,0,4,5,1,45,0005-00-0002-08.png,0001-00-0002-24.png
9,220,1,1.44536E+12,1.44536E+12,449,278,0,0,0,1,5,4,15,0004-00-0005-18.png,0001-00-0000-88.png
9,221,0,1.44536E+12,1.44536E+12,862,428,0,0,0,5,3,2,53,0001-00-0006-71.png,0003-00-0005-65.png
9,222,1,1.44536E+12,1.44536E+12,939,367,0,0,0,4,1,3,41,0005-00-0009-54.png,0004-00-0001-19.png
9,223,1,1.44536E+12,1.44536E+12,1128,308,0,0,0,5,1,4,51,0001-00-0000-64.png,0004-00-0006-35.png
9,224,1,1.44536E+12,1.44536E+12,944,413,0,0,0,1,2,1,12,0004-00-0006-43.png,0002-00-0004-49.png
9,225,0,1.44536E+12,1.44536E+12,939,422,0,0,0,5,4,1,54,0001-00-0002-54.png,0005-00-0005-42.png
9,226,1,1.44536E+12,1.44536E+12,932,413,0,0,0,5,1,4,51,0001-00-0008-47.png,0004-00-0002-24.png
9,227,1,1.44536E+12,1.44536E+12,931,392,0,0,0,1,5,4,15,0004-00-0002-48.png,0001-00-0001-19.png
9,228,1,1.44536E+12,1.44536E+12,394,404,0,0,0,3,1,2,31,0003-00-0006-84.png,0004-00-0001-76.png
9,229,0,1.44536E+12,1.44536E+12,1092,266,0,0,0,1,3,2,13,0004-00-0001-15.png,0003-00-0004-64.png
9,230,0,1.44536E+12,1.44536E+12,946,402,0,0,0,1,3,2,13,0004-00-0008-77.png,0003-00-0009-93.png
9,231,1,1.44536E+12,1.44536E+12,913,384,0,0,0,3,2,1,32,0003-00-0001-96.png,0002-00-0009-16.png
9,232,0,1.44536E+12,1.44536E+12,374,365,0,0,0,1,2,1,12,0004-00-0003-65.png,0002-00-0002-29.png
9,233,1,1.44536E+12,1.44536E+12,1075,289,0,0,0,5,4,1,54,0001-00-0009-15.png,0005-00-0001-89.png
9,234,1,1.44536E+12,1.44536E+12,982,417,0,0,0,4,1,3,41,0005-00-0008-19.png,0004-00-0005-38.png
9,235,1,1.44536E+12,1.44536E+12,931,365,0,0,0,2,4,2,24,0002-00-0009-38.png,0005-00-0003-15.png
9,236,0,1.44536E+12,1.44536E+12,402,367,0,0,0,2,5,3,25,0002-00-0003-39.png,0001-00-0003-93.png
9,237,1,1.44536E+12,1.44536E+12,381,372,0,0,0,1,4,3,14,0004-00-0008-55.png,0005-00-0001-15.png
9,238,1,1.44536E+12,1.44536E+12,912,396,0,0,0,2,4,2,24,0002-00-0000-10.png,0005-00-0001-83.png
9,239,1,1.44536E+12,1.44536E+12,935,418,0,0,0,1,5,4,15,0004-00-0002-68.png,0001-00-0007-04.png
9,240,0,1.44536E+12,1.44536E+12,936,397,0,0,0,3,5,2,35,0003-00-0001-87.png,0001-00-0009-45.png
9,241,0,1.44536E+12,1.44536E+12,362,344,0,0,0,4,5,1,45,0005-00-0008-23.png,0001-00-0009-54.png
9,242,1,1.44536E+12,1.44536E+12,508,374,0,0,0,3,5,2,35,0003-00-0009-80.png,0001-00-0003-77.png
9,243,1,1.44536E+12,1.44536E+12,1046,281,0,0,0,5,2,3,52,0001-00-0003-75.png,0002-00-0006-34.png
9,244,1,1.44536E+12,1.44536E+12,467,264,0,0,0,5,2,3,52,0001-00-0003-94.png,0002-00-0006-89.png
9,245,1,1.44536E+12,1.44536E+12,502,275,0,0,0,5,3,2,53,0001-00-0007-73.png,0003-00-0000-78.png
9,246,0,1.44536E+12,1.44536E+12,387,421,0,0,0,2,1,1,21,0002-00-0002-08.png,0004-00-0001-14.png
9,247,1,1.44536E+12,1.44536E+12,960,400,0,0,0,3,5,2,35,0003-00-0001-65.png,0001-00-0003-94.png
9,248,1,1.44536E+12,1.44536E+12,941,417,0,0,0,4,2,2,42,0005-00-0003-77.png,0002-00-0002-40.png
9,249,1,1.44536E+12,1.44536E+12,891,390,0,0,0,5,2,3,52,0001-00-0008-09.png,0002-00-0000-56.png
9,250,0,1.44536E+12,1.44536E+12,921,402,0,0,0,2,3,1,23,0002-00-0007-16.png,0003-00-0006-84.png
9,251,0,1.44536E+12,1.44536E+12,964,306,0,0,0,4,5,1,45,0005-00-0008-99.png,0001-00-0008-09.png
9,252,0,1.44536E+12,1.44536E+12,949,358,0,0,0,3,4,1,34,0003-00-0005-04.png,0005-00-0007-36.png
9,253,1,1.44536E+12,1.44536E+12,946,416,0,0,0,2,4,2,24,0002-00-0005-52.png,0005-00-0008-29.png
9,254,1,1.44536E+12,1.44536E+12,452,254,0,0,0,4,2,2,42,0005-00-0006-22.png,0002-00-0006-14.png
9,255,1,1.44536E+12,1.44536E+12,1088,277,0,0,0,2,3,1,23,0002-00-0002-72.png,0003-00-0004-35.png
9,256,0,1.44536E+12,1.44536E+12,986,348,0,0,0,4,3,1,43,0005-00-0002-37.png,0003-00-0004-03.png
9,257,1,1.44536E+12,1.44536E+12,1092,279,0,0,0,4,2,2,42,0005-00-0007-87.png,0002-00-0004-60.png
9,258,1,1.44536E+12,1.44536E+12,946,401,0,0,0,3,1,2,31,0003-00-0009-23.png,0004-00-0003-24.png
9,259,0,1.44536E+12,1.44536E+12,914,386,0,0,0,3,5,2,35,0003-00-0002-20.png,0001-00-0002-91.png
9,260,0,1.44536E+12,1.44536E+12,1072,278,0,0,0,5,3,2,53,0001-00-0004-49.png,0003-00-0009-23.png
9,261,1,1.44536E+12,1.44536E+12,461,249,0,0,0,4,5,1,45,0005-00-0000-98.png,0001-00-0009-04.png
9,262,1,1.44536E+12,1.44536E+12,1039,337,0,0,0,4,2,2,42,0005-00-0007-95.png,0002-00-0007-28.png
9,263,1,1.44536E+12,1.44536E+12,1009,423,0,0,0,2,3,1,23,0002-00-0004-97.png,0003-00-0001-23.png
9,264,1,1.44536E+12,1.44536E+12,514,316,0,0,0,2,3,1,23,0002-00-0007-77.png,0003-00-0003-93.png
9,265,1,1.44536E+12,1.44536E+12,484,275,0,0,0,2,1,1,21,0002-00-0001-79.png,0004-00-0002-76.png
9,266,1,1.44536E+12,1.44536E+12,906,364,0,0,0,2,1,1,21,0002-00-0004-77.png,0004-00-0009-33.png
9,267,1,1.44536E+12,1.44536E+12,1056,305,0,0,0,4,5,1,45,0005-00-0001-32.png,0001-00-0004-77.png
9,268,1,1.44536E+12,1.44536E+12,944,401,0,0,0,5,1,4,51,0001-00-0003-76.png,0004-00-0004-96.png
9,269,1,1.44536E+12,1.44536E+12,1010,320,0,0,0,5,2,3,52,0001-00-0000-34.png,0002-00-0004-73.png
9,270,0,1.44536E+12,1.44536E+12,862,436,0,0,0,2,3,1,23,0002-00-0006-02.png,0003-00-0001-79.png
9,271,1,1.44536E+12,1.44536E+12,520,438,0,0,0,3,2,1,32,0003-00-0001-38.png,0002-00-0005-60.png
9,272,1,1.44536E+12,1.44536E+12,372,399,0,0,0,5,3,2,53,0001-00-0005-65.png,0003-00-0005-41.png
9,273,1,1.44536E+12,1.44536E+12,943,309,0,0,0,4,1,3,41,0005-00-0006-47.png,0004-00-0008-14.png
9,274,1,1.44536E+12,1.44536E+12,933,296,0,0,0,3,1,2,31,0003-00-0005-48.png,0004-00-0005-59.png
9,275,1,1.44536E+12,1.44536E+12,925,392,0,0,0,5,2,3,52,0001-00-0004-89.png,0002-00-0008-57.png
9,276,1,1.44536E+12,1.44536E+12,893,387,0,0,0,4,1,3,41,0005-00-0002-33.png,0004-00-0002-55.png
9,277,1,1.44536E+12,1.44536E+12,372,383,0,0,0,4,1,3,41,0005-00-0004-20.png,0004-00-0004-12.png
9,278,0,1.44536E+12,1.44536E+12,1054,265,0,0,0,3,4,1,34,0003-00-0003-45.png,0005-00-0002-31.png
9,279,1,1.44536E+12,1.44536E+12,897,382,0,0,0,1,4,3,14,0004-00-0006-37.png,0005-00-0002-51.png
9,280,0,1.44536E+12,1.44536E+12,913,392,0,0,0,5,3,2,53,0001-00-0004-72.png,0003-00-0006-72.png
9,281,1,1.44536E+12,1.44536E+12,891,259,0,0,0,1,2,1,12,0004-00-0006-03.png,0002-00-0003-97.png
9,282,1,1.44536E+12,1.44536E+12,917,368,0,0,0,5,4,1,54,0001-00-0002-42.png,0005-00-0006-17.png
9,283,0,1.44536E+12,1.44536E+12,376,320,0,0,0,5,4,1,54,0001-00-0001-65.png,0005-00-0005-55.png
9,284,0,1.44536E+12,1.44536E+12,457,259,0,0,0,1,2,1,12,0004-00-0008-99.png,0002-00-0005-06.png
9,285,1,1.44536E+12,1.44536E+12,1041,266,0,0,0,2,3,1,23,0002-00-0003-00.png,0003-00-0002-36.png
9,286,0,1.44536E+12,1.44536E+12,915,394,0,0,0,5,3,2,53,0001-00-0005-54.png,0003-00-0002-10.png
9,287,1,1.44536E+12,1.44536E+12,913,436,0,0,0,5,1,4,51,0001-00-0003-18.png,0004-00-0009-94.png
9,288,1,1.44536E+12,1.44536E+12,451,283,0,0,0,2,3,1,23,0002-00-0003-70.png,0003-00-0005-78.png
9,289,1,1.44536E+12,1.44536E+12,868,349,0,0,0,4,1,3,41,0005-00-0005-09.png,0004-00-0008-24.png
9,290,1,1.44536E+12,1.44536E+12,888,397,0,0,0,2,5,3,25,0002-00-0008-40.png,0001-00-0006-21.png
9,291,1,1.44536E+12,1.44536E+12,1091,310,0,0,0,3,4,1,34,0003-00-0007-26.png,0005-00-0007-76.png
9,292,1,1.44536E+12,1.44536E+12,899,410,0,0,0,3,1,2,31,0003-00-0003-23.png,0004-00-0008-12.png
9,293,1,1.44536E+12,1.44536E+12,959,442,0,0,0,2,1,1,21,0002-00-0006-01.png,0004-00-0007-31.png
9,294,1,1.44536E+12,1.44536E+12,878,384,0,0,0,1,3,2,13,0004-00-0009-38.png,0003-00-0008-66.png
9,295,1,1.44536E+12,1.44536E+12,460,312,0,0,0,1,4,3,14,0004-00-0008-52.png,0005-00-0001-29.png
9,296,1,1.44536E+12,1.44536E+12,1076,279,0,0,0,4,3,1,43,0005-00-0006-35.png,0003-00-0003-60.png
9,297,0,1.44536E+12,1.44536E+12,467,248,0,0,0,3,5,2,35,0003-00-0006-02.png,0001-00-0006-37.png
9,298,0,1.44536E+12,1.44536E+12,896,404,0,0,0,4,1,3,41,0005-00-0003-70.png,0004-00-0003-94.png
9,299,1,1.44536E+12,1.44536E+12,453,267,0,0,0,3,4,1,34,0003-00-0006-63.png,0005-00-0008-03.png
9,300,1,1.44536E+12,1.44536E+12,477,264,0,0,0,2,5,3,25,0002-00-0000-32.png,0001-00-0006-07.png
9,301,0,1.44536E+12,1.44536E+12,1077,248,0,0,0,1,2,1,12,0004-00-0001-00.png,0002-00-0003-95.png
9,302,0,1.44536E+12,1.44536E+12,928,292,0,0,0,3,5,2,35,0003-00-0006-72.png,0001-00-0007-56.png
9,303,1,1.44536E+12,1.44536E+12,867,381,0,0,0,2,1,1,21,0002-00-0009-83.png,0004-00-0005-50.png
9,304,1,1.44536E+12,1.44536E+12,886,283,0,0,0,5,1,4,51,0001-00-0008-96.png,0004-00-0005-32.png
9,305,0,1.44536E+12,1.44536E+12,942,332,0,0,0,3,5,2,35,0003-00-0000-31.png,0001-00-0001-73.png
9,306,1,1.44536E+12,1.44536E+12,915,411,0,0,0,4,1,3,41,0005-00-0006-18.png,0004-00-0002-68.png
9,307,0,1.44536E+12,1.44536E+12,1092,279,0,0,0,3,5,2,35,0003-00-0004-87.png,0001-00-0004-35.png
9,308,0,1.44536E+12,1.44536E+12,964,398,0,0,0,5,2,3,52,0001-00-0008-11.png,0002-00-0002-26.png
9,309,0,1.44536E+12,1.44536E+12,943,420,0,0,0,3,5,2,35,0003-00-0005-89.png,0001-00-0007-22.png
9,310,1,1.44536E+12,1.44536E+12,931,388,0,0,0,4,2,2,42,0005-00-0002-71.png,0002-00-0000-49.png
9,311,1,1.44536E+12,1.44536E+12,962,341,0,0,0,3,2,1,32,0003-00-0003-78.png,0002-00-0001-67.png
9,312,0,1.44536E+12,1.44536E+12,427,288,0,0,0,3,4,1,34,0003-00-0002-71.png,0005-00-0009-09.png
9,313,1,1.44536E+12,1.44536E+12,880,367,0,0,0,4,3,1,43,0005-00-0003-99.png,0003-00-0008-45.png
9,314,0,1.44536E+12,1.44536E+12,950,355,0,0,0,4,5,1,45,0005-00-0004-92.png,0001-00-0009-83.png
9,315,1,1.44536E+12,1.44536E+12,939,371,0,0,0,3,2,1,32,0003-00-0006-99.png,0002-00-0001-79.png
9,316,1,1.44536E+12,1.44536E+12,935,428,0,0,0,1,3,2,13,0004-00-0000-86.png,0003-00-0005-88.png
9,317,1,1.44536E+12,1.44536E+12,419,360,0,0,0,2,5,3,25,0002-00-0009-42.png,0001-00-0004-72.png
9,318,1,1.44536E+12,1.44536E+12,1092,244,0,0,0,2,4,2,24,0002-00-0009-47.png,0005-00-0007-21.png
9,319,1,1.44536E+12,1.44536E+12,476,265,0,0,0,2,3,1,23,0002-00-0003-28.png,0003-00-0008-85.png
9,320,1,1.44536E+12,1.44536E+12,1067,288,0,0,0,3,2,1,32,0003-00-0009-46.png,0002-00-0007-50.png
9,321,1,1.44536E+12,1.44536E+12,965,337,0,0,0,3,1,2,31,0003-00-0005-02.png,0004-00-0006-48.png
9,322,0,1.44536E+12,1.44536E+12,470,255,0,0,0,3,4,1,34,0003-00-0008-17.png,0005-00-0005-07.png
9,323,1,1.44536E+12,1.44536E+12,401,384,0,0,0,5,2,3,52,0001-00-0009-57.png,0002-00-0000-47.png
9,324,1,1.44536E+12,1.44536E+12,1067,267,0,0,0,3,2,1,32,0003-00-0000-46.png,0002-00-0008-42.png
9,325,0,1.44536E+12,1.44536E+12,998,399,0,0,0,1,2,1,12,0004-00-0003-07.png,0002-00-0003-82.png
9,326,1,1.44536E+12,1.44536E+12,933,393,0,0,0,4,5,1,45,0005-00-0006-04.png,0001-00-0004-92.png
9,327,0,1.44536E+12,1.44536E+12,888,433,0,0,0,4,5,1,45,0005-00-0000-51.png,0001-00-0001-30.png
9,328,1,1.44536E+12,1.44536E+12,467,318,0,0,0,4,1,3,41,0005-00-0002-60.png,0004-00-0009-91.png
9,329,0,1.44536E+12,1.44536E+12,407,432,0,0,0,2,3,1,23,0002-00-0003-50.png,0003-00-0002-56.png
9,330,1,1.44536E+12,1.44536E+12,881,388,0,0,0,3,4,1,34,0003-00-0000-02.png,0005-00-0002-97.png
9,331,1,1.44536E+12,1.44536E+12,913,358,0,0,0,3,2,1,32,0003-00-0000-76.png,0002-00-0009-12.png
9,332,0,1.44536E+12,1.44536E+12,452,306,0,0,0,2,3,1,23,0002-00-0006-19.png,0003-00-0003-14.png
9,333,1,1.44536E+12,1.44536E+12,386,396,0,0,0,4,2,2,42,0005-00-0004-25.png,0002-00-0008-08.png
9,334,1,1.44536E+12,1.44536E+12,1061,273,0,0,0,1,4,3,14,0004-00-0004-25.png,0005-00-0009-30.png
9,335,1,1.44536E+12,1.44536E+12,976,436,0,0,0,5,4,1,54,0001-00-0004-41.png,0005-00-0008-49.png
9,336,1,1.44536E+12,1.44536E+12,477,290,0,0,0,2,4,2,24,0002-00-0005-37.png,0005-00-0001-05.png
9,337,1,1.44536E+12,1.44536E+12,955,410,0,0,0,5,2,3,52,0001-00-0000-31.png,0002-00-0006-97.png
9,338,1,1.44536E+12,1.44536E+12,875,436,0,0,0,4,1,3,41,0005-00-0003-74.png,0004-00-0001-01.png
9,339,1,1.44536E+12,1.44536E+12,392,332,0,0,0,2,5,3,25,0002-00-0001-30.png,0001-00-0001-65.png
9,340,0,1.44536E+12,1.44536E+12,939,315,0,0,0,5,2,3,52,0001-00-0008-47.png,0002-00-0004-23.png
9,341,1,1.44536E+12,1.44536E+12,993,358,0,0,0,1,4,3,14,0004-00-0006-01.png,0005-00-0001-83.png
9,342,1,1.44536E+12,1.44536E+12,877,366,0,0,0,4,2,2,42,0005-00-0004-49.png,0002-00-0000-69.png
9,343,0,1.44536E+12,1.44536E+12,1027,493,0,0,0,3,4,1,34,0003-00-0007-74.png,0005-00-0008-64.png
9,344,0,1.44536E+12,1.44536E+12,382,408,0,0,0,5,4,1,54,0001-00-0009-64.png,0005-00-0009-78.png
9,345,0,1.44536E+12,1.44536E+12,964,343,0,0,0,2,5,3,25,0002-00-0000-82.png,0001-00-0001-53.png
9,346,0,1.44536E+12,1.44536E+12,469,286,0,0,0,1,5,4,15,0004-00-0000-70.png,0001-00-0009-77.png
9,347,1,1.44536E+12,1.44536E+12,897,355,0,0,0,2,5,3,25,0002-00-0007-05.png,0001-00-0003-32.png
9,348,0,1.44536E+12,1.44536E+12,894,374,0,0,0,5,3,2,53,0001-00-0004-57.png,0003-00-0003-75.png
9,349,1,1.44536E+12,1.44536E+12,859,381,0,0,0,2,5,3,25,0002-00-0006-98.png,0001-00-0003-88.png
9,350,1,1.44536E+12,1.44536E+12,1062,250,0,0,0,2,5,3,25,0002-00-0009-92.png,0001-00-0005-96.png
9,351,1,1.44536E+12,1.44536E+12,908,352,0,0,0,2,1,1,21,0002-00-0001-29.png,0004-00-0000-75.png
9,352,0,1.44536E+12,1.44536E+12,963,320,0,0,0,3,4,1,34,0003-00-0002-36.png,0005-00-0008-75.png
9,353,1,1.44536E+12,1.44536E+12,888,436,0,0,0,3,1,2,31,0003-00-0003-96.png,0004-00-0005-76.png
9,354,1,1.44536E+12,1.44536E+12,1060,273,0,0,0,5,2,3,52,0001-00-0005-93.png,0002-00-0000-69.png
9,355,0,1.44536E+12,1.44536E+12,964,384,0,0,0,4,5,1,45,0005-00-0005-63.png,0001-00-0004-20.png
9,356,0,1.44536E+12,1.44536E+12,967,317,0,0,0,3,4,1,34,0003-00-0001-43.png,0005-00-0002-61.png
9,357,1,1.44536E+12,1.44536E+12,950,410,0,0,0,1,2,1,12,0004-00-0005-59.png,0002-00-0005-24.png
9,358,1,1.44536E+12,1.44536E+12,939,359,0,0,0,3,1,2,31,0003-00-0004-58.png,0004-00-0002-66.png
9,359,1,1.44536E+12,1.44536E+12,492,251,0,0,0,5,4,1,54,0001-00-0007-69.png,0005-00-0009-31.png
9,360,1,1.44536E+12,1.44536E+12,956,312,0,0,0,5,2,3,52,0001-00-0007-28.png,0002-00-0004-79.png
9,361,0,1.44536E+12,1.44536E+12,901,346,0,0,0,1,5,4,15,0004-00-0000-72.png,0001-00-0003-44.png
9,362,1,1.44536E+12,1.44536E+12,911,365,0,0,0,2,4,2,24,0002-00-0005-70.png,0005-00-0005-61.png
9,363,1,1.44536E+12,1.44536E+12,474,256,0,0,0,2,5,3,25,0002-00-0001-35.png,0001-00-0009-86.png
9,364,1,1.44536E+12,1.44536E+12,964,318,0,0,0,1,5,4,15,0004-00-0005-65.png,0001-00-0007-25.png
9,365,1,1.44536E+12,1.44536E+12,927,391,0,0,0,4,2,2,42,0005-00-0000-47.png,0002-00-0001-79.png
9,366,0,1.44536E+12,1.44536E+12,1093,284,0,0,0,2,5,3,25,0002-00-0006-77.png,0001-00-0009-32.png
9,367,1,1.44536E+12,1.44536E+12,954,292,0,0,0,3,2,1,32,0003-00-0001-51.png,0002-00-0001-41.png
9,368,0,1.44536E+12,1.44536E+12,1099,297,0,0,0,4,5,1,45,0005-00-0005-88.png,0001-00-0005-80.png
9,369,0,1.44536E+12,1.44536E+12,964,436,0,0,0,4,3,1,43,0005-00-0001-98.png,0003-00-0002-28.png
9,370,1,1.44536E+12,1.44536E+12,942,350,0,0,0,3,2,1,32,0003-00-0009-25.png,0002-00-0008-69.png
9,371,1,1.44536E+12,1.44536E+12,958,377,0,0,0,5,2,3,52,0001-00-0006-43.png,0002-00-0007-45.png
9,372,0,1.44536E+12,1.44536E+12,990,384,0,0,0,3,4,1,34,0003-00-0005-17.png,0005-00-0006-40.png
9,373,1,1.44536E+12,1.44536E+12,1046,277,0,0,0,5,1,4,51,0001-00-0000-96.png,0004-00-0000-58.png
9,374,1,1.44536E+12,1.44536E+12,491,266,0,0,0,5,4,1,54,0001-00-0007-23.png,0005-00-0004-07.png
9,375,1,1.44536E+12,1.44536E+12,913,384,0,0,0,2,3,1,23,0002-00-0004-78.png,0003-00-0005-11.png
9,376,1,1.44536E+12,1.44536E+12,964,292,0,0,0,1,3,2,13,0004-00-0005-79.png,0003-00-0002-29.png
9,377,1,1.44536E+12,1.44536E+12,1094,302,0,0,0,1,3,2,13,0004-00-0008-63.png,0003-00-0002-46.png
9,378,1,1.44536E+12,1.44536E+12,957,412,0,0,0,2,1,1,21,0002-00-0000-20.png,0004-00-0000-30.png
9,379,0,1.44536E+12,1.44536E+12,1093,307,0,0,0,2,1,1,21,0002-00-0001-31.png,0004-00-0009-01.png
9,380,1,1.44536E+12,1.44536E+12,915,297,0,0,0,4,3,1,43,0005-00-0004-43.png,0003-00-0007-60.png
9,381,0,1.44536E+12,1.44536E+12,498,220,0,0,0,3,5,2,35,0003-00-0009-28.png,0001-00-0001-95.png
9,382,1,1.44536E+12,1.44536E+12,489,254,0,0,0,1,3,2,13,0004-00-0002-46.png,0003-00-0009-48.png
9,383,1,1.44536E+12,1.44536E+12,932,370,0,0,0,2,1,1,21,0002-00-0000-20.png,0004-00-0002-79.png
9,384,1,1.44536E+12,1.44536E+12,946,443,0,0,0,2,5,3,25,0002-00-0002-87.png,0001-00-0008-16.png
9,385,0,1.44536E+12,1.44536E+12,456,244,0,0,0,3,5,2,35,0003-00-0007-89.png,0001-00-0003-83.png
9,386,0,1.44536E+12,1.44536E+12,922,462,0,0,0,5,3,2,53,0001-00-0009-30.png,0003-00-0003-79.png
9,387,0,1.44536E+12,1.44536E+12,467,266,0,0,0,2,4,2,24,0002-00-0007-46.png,0005-00-0005-55.png
9,388,1,1.44536E+12,1.44536E+12,923,462,0,0,0,1,4,3,14,0004-00-0007-19.png,0005-00-0001-92.png
9,389,1,1.44536E+12,1.44536E+12,347,379,0,0,0,1,2,1,12,0004-00-0002-36.png,0002-00-0008-73.png
9,390,1,1.44536E+12,1.44536E+12,896,427,0,0,0,5,1,4,51,0001-00-0000-59.png,0004-00-0004-74.png
9,391,1,1.44536E+12,1.44536E+12,899,436,0,0,0,3,4,1,34,0003-00-0008-01.png,0005-00-0000-54.png
9,392,1,1.44536E+12,1.44536E+12,921,420,0,0,0,5,1,4,51,0001-00-0009-11.png,0004-00-0008-19.png
9,393,0,1.44536E+12,1.44536E+12,921,429,0,0,0,2,1,1,21,0002-00-0004-16.png,0004-00-0005-70.png
9,394,0,1.44536E+12,1.44536E+12,965,328,0,0,0,5,3,2,53,0001-00-0003-63.png,0003-00-0000-54.png
9,395,1,1.44536E+12,1.44536E+12,913,384,0,0,0,5,3,2,53,0001-00-0009-07.png,0003-00-0003-46.png
9,396,0,1.44536E+12,1.44536E+12,993,320,0,0,0,4,3,1,43,0005-00-0008-67.png,0003-00-0008-87.png
9,397,0,1.44536E+12,1.44536E+12,946,317,0,0,0,3,5,2,35,0003-00-0007-78.png,0001-00-0005-18.png
9,398,0,1.44536E+12,1.44536E+12,1092,269,0,0,0,2,1,1,21,0002-00-0007-08.png,0004-00-0009-05.png
9,399,0,1.44536E+12,1.44536E+12,926,436,0,0,0,1,4,3,14,0004-00-0000-70.png,0005-00-0001-73.png
9,400,0,1.44536E+12,1.44536E+12,913,401,0,0,0,1,2,1,12,0004-00-0002-63.png,0002-00-0000-63.png
9,401,1,1.44536E+12,1.44536E+12,1067,288,0,0,0,2,5,3,25,0002-00-0000-44.png,0001-00-0000-34.png
9,402,1,1.44536E+12,1.44536E+12,1011,454,0,0,0,1,2,1,12,0004-00-0009-20.png,0002-00-0007-75.png
9,403,0,1.44536E+12,1.44536E+12,940,384,0,0,0,1,3,2,13,0004-00-0008-18.png,0003-00-0002-35.png
9,404,0,1.44536E+12,1.44536E+12,923,410,0,0,0,1,4,3,14,0004-00-0006-71.png,0005-00-0003-61.png
9,405,1,1.44536E+12,1.44536E+12,390,344,0,0,0,3,5,2,35,0003-00-0008-06.png,0001-00-0005-35.png
9,406,0,1.44536E+12,1.44536E+12,924,446,0,0,0,3,4,1,34,0003-00-0006-07.png,0005-00-0007-41.png
9,407,0,1.44536E+12,1.44536E+12,939,422,0,0,0,2,3,1,23,0002-00-0008-74.png,0003-00-0007-27.png
9,408,0,1.44536E+12,1.44536E+12,480,281,0,0,0,5,3,2,53,0001-00-0009-95.png,0003-00-0000-71.png
9,409,0,1.44536E+12,1.44536E+12,896,454,0,0,0,2,4,2,24,0002-00-0005-34.png,0005-00-0008-72.png
9,410,1,1.44536E+12,1.44536E+12,913,423,0,0,0,5,2,3,52,0001-00-0002-13.png,0002-00-0003-94.png
9,411,1,1.44536E+12,1.44536E+12,926,436,0,0,0,3,1,2,31,0003-00-0002-17.png,0004-00-0007-69.png
9,412,1,1.44536E+12,1.44536E+12,515,256,0,0,0,5,2,3,52,0001-00-0004-65.png,0002-00-0007-30.png
9,413,0,1.44536E+12,1.44536E+12,885,462,0,0,0,4,1,3,41,0005-00-0001-75.png,0004-00-0002-09.png
9,414,0,1.44536E+12,1.44536E+12,927,354,0,0,0,4,5,1,45,0005-00-0002-34.png,0001-00-0007-51.png
9,415,0,1.44536E+12,1.44536E+12,457,250,0,0,0,2,4,2,24,0002-00-0008-62.png,0005-00-0002-98.png
9,416,0,1.44536E+12,1.44536E+12,882,397,0,0,0,4,5,1,45,0005-00-0001-15.png,0001-00-0009-85.png
9,417,1,1.44536E+12,1.44536E+12,913,418,0,0,0,3,2,1,32,0003-00-0009-02.png,0002-00-0000-20.png
9,418,1,1.44536E+12,1.44536E+12,919,400,0,0,0,2,5,3,25,0002-00-0002-87.png,0001-00-0005-19.png
9,419,1,1.44536E+12,1.44536E+12,910,413,0,0,0,4,3,1,43,0005-00-0009-31.png,0003-00-0008-21.png
9,420,1,1.44536E+12,1.44536E+12,913,401,0,0,0,3,1,2,31,0003-00-0000-37.png,0004-00-0000-86.png
9,421,0,1.44536E+12,1.44536E+12,502,267,0,0,0,4,5,1,45,0005-00-0001-98.png,0001-00-0003-90.png
9,422,1,1.44536E+12,1.44536E+12,477,265,0,0,0,5,1,4,51,0001-00-0008-52.png,0004-00-0006-20.png
9,423,0,1.44536E+12,1.44536E+12,862,419,0,0,0,1,5,4,15,0004-00-0001-64.png,0001-00-0001-03.png
9,424,0,1.44536E+12,1.44536E+12,913,452,0,0,0,1,5,4,15,0004-00-0008-40.png,0001-00-0008-20.png
9,425,0,1.44536E+12,1.44536E+12,395,385,0,0,0,3,5,2,35,0003-00-0009-80.png,0001-00-0000-64.png
9,426,0,1.44536E+12,1.44536E+12,894,424,0,0,0,1,3,2,13,0004-00-0000-25.png,0003-00-0000-26.png
9,427,0,1.44536E+12,1.44536E+12,985,353,0,0,0,2,4,2,24,0002-00-0006-21.png,0005-00-0009-38.png
9,428,1,1.44536E+12,1.44536E+12,964,462,0,0,0,5,1,4,51,0001-00-0005-37.png,0004-00-0000-26.png
9,429,1,1.44536E+12,1.44536E+12,925,410,0,0,0,2,1,1,21,0002-00-0007-78.png,0004-00-0008-18.png
9,430,1,1.44536E+12,1.44536E+12,1113,267,0,0,0,3,4,1,34,0003-00-0003-29.png,0005-00-0001-68.png
9,431,1,1.44536E+12,1.44536E+12,904,410,0,0,0,4,2,2,42,0005-00-0000-42.png,0002-00-0005-64.png
9,432,0,1.44536E+12,1.44536E+12,880,425,0,0,0,3,4,1,34,0003-00-0008-88.png,0005-00-0001-04.png
9,433,0,1.44536E+12,1.44536E+12,508,265,0,0,0,4,5,1,45,0005-00-0009-55.png,0001-00-0004-90.png
9,434,1,1.44536E+12,1.44536E+12,496,225,0,0,0,4,1,3,41,0005-00-0003-37.png,0004-00-0000-71.png
9,435,0,1.44536E+12,1.44536E+12,888,394,0,0,0,1,2,1,12,0004-00-0006-64.png,0002-00-0003-47.png
9,436,1,1.44536E+12,1.44536E+12,895,400,0,0,0,1,2,1,12,0004-00-0007-87.png,0002-00-0001-75.png
9,437,1,1.44536E+12,1.44536E+12,943,334,0,0,0,4,1,3,41,0005-00-0008-66.png,0004-00-0002-70.png
9,438,1,1.44536E+12,1.44536E+12,1067,271,0,0,0,2,1,1,21,0002-00-0009-40.png,0004-00-0009-21.png
9,439,1,1.44536E+12,1.44536E+12,908,358,0,0,0,5,3,2,53,0001-00-0004-24.png,0003-00-0008-80.png
9,440,1,1.44536E+12,1.44536E+12,886,400,0,0,0,4,2,2,42,0005-00-0006-90.png,0002-00-0005-08.png
9,441,1,1.44536E+12,1.44536E+12,457,275,0,0,0,3,2,1,32,0003-00-0009-35.png,0002-00-0003-93.png
9,442,1,1.44536E+12,1.44536E+12,1041,264,0,0,0,3,4,1,34,0003-00-0002-22.png,0005-00-0007-96.png
9,443,0,1.44536E+12,1.44536E+12,1031,270,0,0,0,2,5,3,25,0002-00-0007-59.png,0001-00-0006-76.png
9,444,1,1.44536E+12,1.44536E+12,951,410,0,0,0,5,4,1,54,0001-00-0002-45.png,0005-00-0003-38.png
9,445,0,1.44536E+12,1.44536E+12,941,330,0,0,0,1,2,1,12,0004-00-0006-45.png,0002-00-0009-24.png
9,446,1,1.44536E+12,1.44536E+12,898,416,0,0,0,1,3,2,13,0004-00-0009-61.png,0003-00-0004-75.png
9,447,1,1.44536E+12,1.44536E+12,888,395,0,0,0,1,5,4,15,0004-00-0004-54.png,0001-00-0001-51.png
9,448,0,1.44536E+12,1.44536E+12,503,279,0,0,0,1,5,4,15,0004-00-0001-18.png,0001-00-0002-83.png
9,449,1,1.44536E+12,1.44536E+12,962,400,0,0,0,2,1,1,21,0002-00-0007-96.png,0004-00-0009-09.png
9,450,0,1.44536E+12,1.44536E+12,450,295,0,0,0,5,4,1,54,0001-00-0002-94.png,0005-00-0007-59.png
9,451,1,1.44536E+12,1.44536E+12,913,410,0,0,0,5,2,3,52,0001-00-0003-11.png,0002-00-0006-12.png
9,452,0,1.44536E+12,1.44536E+12,913,446,0,0,0,4,5,1,45,0005-00-0008-12.png,0001-00-0004-04.png
9,453,1,1.44536E+12,1.44536E+12,931,455,0,0,0,3,2,1,32,0003-00-0004-51.png,0002-00-0006-94.png
9,454,1,1.44536E+12,1.44536E+12,888,395,0,0,0,3,1,2,31,0003-00-0008-78.png,0004-00-0009-12.png
9,455,1,1.44536E+12,1.44536E+12,422,329,0,0,0,5,2,3,52,0001-00-0005-43.png,0002-00-0001-91.png
9,456,1,1.44536E+12,1.44536E+12,880,436,0,0,0,5,3,2,53,0001-00-0003-34.png,0003-00-0002-96.png
9,457,1,1.44536E+12,1.44536E+12,480,269,0,0,0,5,2,3,52,0001-00-0002-53.png,0002-00-0009-08.png
9,458,1,1.44536E+12,1.44536E+12,1071,290,0,0,0,1,5,4,15,0004-00-0000-65.png,0001-00-0003-82.png
9,459,1,1.44536E+12,1.44536E+12,957,426,0,0,0,5,1,4,51,0001-00-0009-99.png,0004-00-0006-63.png
9,460,0,1.44536E+12,1.44536E+12,947,436,0,0,0,4,5,1,45,0005-00-0009-52.png,0001-00-0007-90.png
9,461,0,1.44536E+12,1.44536E+12,970,358,0,0,0,1,2,1,12,0004-00-0001-56.png,0002-00-0000-17.png
9,462,1,1.44536E+12,1.44536E+12,913,446,0,0,0,2,4,2,24,0002-00-0006-62.png,0005-00-0006-27.png
9,463,1,1.44536E+12,1.44536E+12,906,409,0,0,0,5,3,2,53,0001-00-0009-75.png,0003-00-0009-64.png
9,464,1,1.44536E+12,1.44536E+12,481,284,0,0,0,4,3,1,43,0005-00-0002-66.png,0003-00-0003-01.png
9,465,1,1.44536E+12,1.44536E+12,1075,306,0,0,0,2,1,1,21,0002-00-0000-59.png,0004-00-0004-79.png
9,466,1,1.44536E+12,1.44536E+12,914,434,0,0,0,5,3,2,53,0001-00-0004-04.png,0003-00-0002-05.png
9,467,1,1.44536E+12,1.44536E+12,504,289,0,0,0,3,1,2,31,0003-00-0007-41.png,0004-00-0007-00.png
9,468,1,1.44536E+12,1.44536E+12,913,436,0,0,0,4,2,2,42,0005-00-0002-00.png,0002-00-0007-62.png
9,469,1,1.44536E+12,1.44536E+12,862,341,0,0,0,5,1,4,51,0001-00-0003-08.png,0004-00-0000-96.png
9,470,0,1.44536E+12,1.44536E+12,501,250,0,0,0,1,4,3,14,0004-00-0001-96.png,0005-00-0008-65.png
9,471,1,1.44536E+12,1.44536E+12,1031,313,0,0,0,5,1,4,51,0001-00-0006-46.png,0004-00-0008-93.png
9,472,1,1.44536E+12,1.44536E+12,914,351,0,0,0,4,3,1,43,0005-00-0004-56.png,0003-00-0005-63.png
9,473,0,1.44536E+12,1.44536E+12,477,248,0,0,0,1,5,4,15,0004-00-0001-78.png,0001-00-0000-86.png
9,474,1,1.44536E+12,1.44536E+12,883,430,0,0,0,5,2,3,52,0001-00-0008-05.png,0002-00-0003-22.png
9,475,1,1.44536E+12,1.44536E+12,948,441,0,0,0,5,4,1,54,0001-00-0000-63.png,0005-00-0000-82.png
9,476,1,1.44536E+12,1.44536E+12,939,461,0,0,0,4,3,1,43,0005-00-0002-15.png,0003-00-0004-41.png
9,477,1,1.44536E+12,1.44536E+12,925,407,0,0,0,4,2,2,42,0005-00-0006-38.png,0002-00-0008-62.png
9,478,1,1.44536E+12,1.44536E+12,960,263,0,0,0,2,4,2,24,0002-00-0006-62.png,0005-00-0003-37.png
9,479,0,1.44536E+12,1.44536E+12,390,379,0,0,0,1,3,2,13,0004-00-0000-84.png,0003-00-0006-28.png
9,480,0,1.44536E+12,1.44536E+12,901,410,0,0,0,3,5,2,35,0003-00-0000-60.png,0001-00-0000-46.png
9,481,0,1.44536E+12,1.44536E+12,888,410,0,0,0,2,4,2,24,0002-00-0003-26.png,0005-00-0007-36.png
9,482,1,1.44536E+12,1.44536E+12,858,413,0,0,0,1,4,3,14,0004-00-0009-40.png,0005-00-0000-15.png
9,483,1,1.44536E+12,1.44536E+12,944,296,0,0,0,5,4,1,54,0001-00-0001-43.png,0005-00-0009-56.png
9,484,0,1.44536E+12,1.44536E+12,923,410,0,0,0,4,5,1,45,0005-00-0006-26.png,0001-00-0002-18.png
9,485,1,1.44536E+12,1.44536E+12,372,361,0,0,0,3,2,1,32,0003-00-0007-00.png,0002-00-0009-15.png
9,486,1,1.44536E+12,1.44536E+12,860,396,0,0,0,4,3,1,43,0005-00-0001-15.png,0003-00-0000-49.png
9,487,1,1.44536E+12,1.44536E+12,888,410,0,0,0,5,3,2,53,0001-00-0002-48.png,0003-00-0005-87.png
9,488,0,1.44536E+12,1.44536E+12,866,435,0,0,0,3,5,2,35,0003-00-0009-62.png,0001-00-0001-58.png
9,489,1,1.44536E+12,1.44536E+12,439,267,0,0,0,3,1,2,31,0003-00-0001-10.png,0004-00-0002-90.png
9,490,0,1.44536E+12,1.44536E+12,913,317,0,0,0,2,3,1,23,0002-00-0002-11.png,0003-00-0000-29.png
9,491,1,1.44536E+12,1.44536E+12,892,353,0,0,0,3,2,1,32,0003-00-0006-04.png,0002-00-0002-25.png
9,492,0,1.44536E+12,1.44536E+12,862,436,0,0,0,4,5,1,45,0005-00-0002-59.png,0001-00-0008-53.png
9,493,0,1.44536E+12,1.44536E+12,394,360,0,0,0,5,4,1,54,0001-00-0004-96.png,0005-00-0006-07.png
9,494,1,1.44536E+12,1.44536E+12,928,306,0,0,0,5,3,2,53,0001-00-0003-45.png,0003-00-0008-60.png
9,495,0,1.44536E+12,1.44536E+12,913,448,0,0,0,3,5,2,35,0003-00-0000-42.png,0001-00-0001-41.png
9,496,0,1.44536E+12,1.44536E+12,1092,293,0,0,0,3,5,2,35,0003-00-0006-53.png,0001-00-0003-03.png
9,497,1,1.44536E+12,1.44536E+12,1074,270,0,0,0,5,4,1,54,0001-00-0005-88.png,0005-00-0004-71.png
9,498,0,1.44536E+12,1.44536E+12,912,408,0,0,0,2,1,1,21,0002-00-0005-84.png,0004-00-0006-52.png
9,499,0,1.44536E+12,1.44536E+12,900,384,0,0,0,5,3,2,53,0001-00-0005-49.png,0003-00-0007-38.png
9,500,0,1.44536E+12,1.44536E+12,392,376,0,0,0,3,5,2,35,0003-00-0007-96.png,0001-00-0001-89.png
9,501,1,1.44536E+12,1.44536E+12,883,426,0,0,0,2,4,2,24,0002-00-0000-67.png,0005-00-0004-76.png
9,502,1,1.44536E+12,1.44536E+12,921,428,0,0,0,3,2,1,32,0003-00-0006-39.png,0002-00-0009-77.png
9,503,0,1.44536E+12,1.44536E+12,939,332,0,0,0,4,5,1,45,0005-00-0005-54.png,0001-00-0005-35.png
9,504,0,1.44536E+12,1.44536E+12,438,364,0,0,0,4,5,1,45,0005-00-0009-12.png,0001-00-0001-50.png
9,505,1,1.44536E+12,1.44536E+12,862,408,0,0,0,4,2,2,42,0005-00-0004-61.png,0002-00-0006-82.png
9,506,0,1.44536E+12,1.44536E+12,1092,279,0,0,0,3,4,1,34,0003-00-0001-09.png,0005-00-0009-64.png
9,507,1,1.44536E+12,1.44536E+12,893,425,0,0,0,1,4,3,14,0004-00-0004-54.png,0005-00-0001-04.png
9,508,0,1.44536E+12,1.44536E+12,456,270,0,0,0,2,1,1,21,0002-00-0006-23.png,0004-00-0003-21.png
9,509,1,1.44536E+12,1.44536E+12,875,410,0,0,0,2,5,3,25,0002-00-0002-09.png,0001-00-0005-47.png
9,510,0,1.44536E+12,1.44536E+12,888,394,0,0,0,2,5,3,25,0002-00-0008-90.png,0001-00-0003-79.png
9,511,1,1.44536E+12,1.44536E+12,401,345,0,0,0,1,3,2,13,0004-00-0002-01.png,0003-00-0000-21.png
9,512,1,1.44536E+12,1.44536E+12,879,370,0,0,0,3,5,2,35,0003-00-0003-02.png,0001-00-0007-75.png
9,513,1,1.44536E+12,1.44536E+12,436,430,0,0,0,4,3,1,43,0005-00-0000-88.png,0003-00-0001-97.png
9,514,0,1.44536E+12,1.44536E+12,1084,277,0,0,0,1,3,2,13,0004-00-0001-58.png,0003-00-0008-87.png
9,515,0,1.44536E+12,1.44536E+12,963,311,0,0,0,1,3,2,13,0004-00-0002-37.png,0003-00-0002-96.png
9,516,1,1.44536E+12,1.44536E+12,871,462,0,0,0,5,4,1,54,0001-00-0006-73.png,0005-00-0008-40.png
9,517,1,1.44536E+12,1.44536E+12,434,431,0,0,0,4,1,3,41,0005-00-0005-86.png,0004-00-0005-06.png
9,518,1,1.44536E+12,1.44536E+12,1041,269,0,0,0,3,2,1,32,0003-00-0009-84.png,0002-00-0007-73.png
9,519,1,1.44536E+12,1.44536E+12,911,408,0,0,0,1,2,1,12,0004-00-0009-63.png,0002-00-0006-39.png
9,520,0,1.44536E+12,1.44536E+12,1081,319,0,0,0,3,5,2,35,0003-00-0008-74.png,0001-00-0006-96.png
9,521,0,1.44536E+12,1.44536E+12,1067,290,0,0,0,3,4,1,34,0003-00-0005-93.png,0005-00-0007-41.png
9,522,0,1.44536E+12,1.44536E+12,966,382,0,0,0,1,4,3,14,0004-00-0001-71.png,0005-00-0003-58.png
9,523,1,1.44536E+12,1.44536E+12,896,462,0,0,0,3,2,1,32,0003-00-0009-49.png,0002-00-0005-27.png
9,524,1,1.44536E+12,1.44536E+12,1004,317,0,0,0,4,1,3,41,0005-00-0005-62.png,0004-00-0007-29.png
9,525,1,1.44536E+12,1.44536E+12,943,447,0,0,0,2,1,1,21,0002-00-0002-95.png,0004-00-0009-50.png
9,526,0,1.44536E+12,1.44536E+12,964,371,0,0,0,3,2,1,32,0003-00-0007-42.png,0002-00-0006-13.png
9,527,1,1.44536E+12,1.44536E+12,912,436,0,0,0,5,4,1,54,0001-00-0009-97.png,0005-00-0009-99.png
9,528,0,1.44536E+12,1.44536E+12,975,325,0,0,0,3,5,2,35,0003-00-0007-06.png,0001-00-0001-44.png
9,529,1,1.44536E+12,1.44536E+12,1041,279,0,0,0,2,5,3,25,0002-00-0007-07.png,0001-00-0004-30.png
9,530,1,1.44536E+12,1.44536E+12,446,280,0,0,0,3,2,1,32,0003-00-0002-60.png,0002-00-0001-73.png
9,531,1,1.44536E+12,1.44536E+12,888,394,0,0,0,2,3,1,23,0002-00-0009-65.png,0003-00-0007-54.png
9,532,0,1.44536E+12,1.44536E+12,915,412,0,0,0,1,5,4,15,0004-00-0000-72.png,0001-00-0005-80.png
9,533,1,1.44536E+12,1.44536E+12,488,263,0,0,0,4,3,1,43,0005-00-0001-21.png,0003-00-0009-62.png
9,534,1,1.44536E+12,1.44536E+12,463,257,0,0,0,4,1,3,41,0005-00-0005-17.png,0004-00-0006-83.png
9,535,0,1.44536E+12,1.44536E+12,880,388,0,0,0,3,5,2,35,0003-00-0002-17.png,0001-00-0008-17.png
9,536,1,1.44536E+12,1.44536E+12,925,436,0,0,0,5,4,1,54,0001-00-0002-55.png,0005-00-0007-57.png
9,537,1,1.44536E+12,1.44536E+12,913,462,0,0,0,3,2,1,32,0003-00-0006-00.png,0002-00-0008-77.png
9,538,1,1.44536E+12,1.44536E+12,510,265,0,0,0,5,1,4,51,0001-00-0005-05.png,0004-00-0008-58.png
9,539,1,1.44536E+12,1.44536E+12,1053,306,0,0,0,4,3,1,43,0005-00-0008-83.png,0003-00-0007-31.png
9,540,0,1.44536E+12,1.44536E+12,894,420,0,0,0,2,5,3,25,0002-00-0004-36.png,0001-00-0005-69.png
9,541,1,1.44536E+12,1.44536E+12,929,447,0,0,0,5,3,2,53,0001-00-0006-48.png,0003-00-0008-15.png
9,542,0,1.44536E+12,1.44536E+12,913,446,0,0,0,2,5,3,25,0002-00-0003-52.png,0001-00-0000-09.png
9,543,1,1.44536E+12,1.44536E+12,913,440,0,0,0,1,4,3,14,0004-00-0007-63.png,0005-00-0008-25.png
9,544,1,1.44536E+12,1.44536E+12,477,270,0,0,0,2,1,1,21,0002-00-0003-51.png,0004-00-0001-32.png
9,545,0,1.44536E+12,1.44536E+12,888,384,0,0,0,2,3,1,23,0002-00-0000-38.png,0003-00-0005-52.png
9,546,1,1.44536E+12,1.44536E+12,501,293,0,0,0,2,4,2,24,0002-00-0000-70.png,0005-00-0008-81.png
9,547,1,1.44536E+12,1.44536E+12,1049,312,0,0,0,2,5,3,25,0002-00-0004-05.png,0001-00-0006-69.png
9,548,0,1.44536E+12,1.44536E+12,934,326,0,0,0,3,5,2,35,0003-00-0009-24.png,0001-00-0003-36.png
9,549,0,1.44536E+12,1.44536E+12,949,462,0,0,0,2,4,2,24,0002-00-0006-92.png,0005-00-0008-04.png
9,550,0,1.44536E+12,1.44536E+12,1086,251,0,0,0,4,3,1,43,0005-00-0003-38.png,0003-00-0002-77.png
9,551,0,1.44536E+12,1.44536E+12,416,358,0,0,0,1,4,3,14,0004-00-0007-31.png,0005-00-0005-83.png
9,552,1,1.44536E+12,1.44536E+12,857,432,0,0,0,4,1,3,41,0005-00-0007-84.png,0004-00-0000-73.png
9,553,1,1.44536E+12,1.44536E+12,1092,253,0,0,0,4,2,2,42,0005-00-0004-78.png,0002-00-0004-06.png
9,554,1,1.44536E+12,1.44536E+12,884,466,0,0,0,5,1,4,51,0001-00-0005-77.png,0004-00-0001-42.png
9,555,0,1.44536E+12,1.44536E+12,872,436,0,0,0,1,4,3,14,0004-00-0006-64.png,0005-00-0002-62.png
9,556,1,1.44536E+12,1.44536E+12,899,428,0,0,0,5,3,2,53,0001-00-0000-94.png,0003-00-0001-37.png
9,557,0,1.44536E+12,1.44536E+12,932,339,0,0,0,3,5,2,35,0003-00-0003-88.png,0001-00-0002-12.png
9,558,0,1.44536E+12,1.44536E+12,387,405,0,0,0,1,2,1,12,0004-00-0000-08.png,0002-00-0003-73.png
9,559,1,1.44536E+12,1.44536E+12,475,243,0,0,0,5,2,3,52,0001-00-0005-60.png,0002-00-0003-38.png
9,560,1,1.44536E+12,1.44536E+12,888,397,0,0,0,5,3,2,53,0001-00-0002-97.png,0003-00-0007-19.png
9,561,1,1.44536E+12,1.44536E+12,910,384,0,0,0,1,3,2,13,0004-00-0004-02.png,0003-00-0004-52.png
9,562,0,1.44536E+12,1.44536E+12,421,390,0,0,0,1,2,1,12,0004-00-0002-33.png,0002-00-0007-38.png
9,563,1,1.44536E+12,1.44536E+12,862,384,0,0,0,4,2,2,42,0005-00-0006-99.png,0002-00-0004-96.png
9,564,1,1.44536E+12,1.44536E+12,869,402,0,0,0,1,3,2,13,0004-00-0000-45.png,0003-00-0009-29.png
9,565,0,1.44536E+12,1.44536E+12,905,389,0,0,0,2,3,1,23,0002-00-0005-84.png,0003-00-0008-01.png
9,566,1,1.44536E+12,1.44536E+12,924,445,0,0,0,1,5,4,15,0004-00-0009-66.png,0001-00-0001-74.png
9,567,1,1.44536E+12,1.44536E+12,939,418,0,0,0,3,2,1,32,0003-00-0009-92.png,0002-00-0008-61.png
9,568,1,1.44536E+12,1.44536E+12,858,438,0,0,0,5,1,4,51,0001-00-0005-12.png,0004-00-0000-68.png
9,569,1,1.44536E+12,1.44536E+12,413,371,0,0,0,5,4,1,54,0001-00-0006-64.png,0005-00-0008-39.png
9,570,1,1.44536E+12,1.44536E+12,871,459,0,0,0,2,4,2,24,0002-00-0005-69.png,0005-00-0002-04.png
9,571,1,1.44536E+12,1.44536E+12,477,252,0,0,0,3,1,2,31,0003-00-0001-88.png,0004-00-0006-54.png
9,572,0,1.44536E+12,1.44536E+12,924,508,0,0,0,1,2,1,12,0004-00-0007-29.png,0002-00-0004-53.png
9,573,1,1.44536E+12,1.44536E+12,870,404,0,0,0,4,3,1,43,0005-00-0008-83.png,0003-00-0003-85.png
9,574,1,1.44536E+12,1.44536E+12,862,436,0,0,0,2,3,1,23,0002-00-0009-05.png,0003-00-0001-00.png
9,575,1,1.44536E+12,1.44536E+12,1075,289,0,0,0,4,2,2,42,0005-00-0006-91.png,0002-00-0004-26.png
9,576,1,1.44536E+12,1.44536E+12,1052,306,0,0,0,5,1,4,51,0001-00-0003-66.png,0004-00-0003-87.png
9,577,0,1.44536E+12,1.44536E+12,961,369,0,0,0,2,3,1,23,0002-00-0004-16.png,0003-00-0008-66.png
9,578,1,1.44536E+12,1.44536E+12,922,410,0,0,0,4,5,1,45,0005-00-0003-24.png,0001-00-0004-98.png
9,579,0,1.44536E+12,1.44536E+12,450,380,0,0,0,1,3,2,13,0004-00-0007-42.png,0003-00-0007-26.png
9,580,1,1.44536E+12,1.44536E+12,864,437,0,0,0,3,2,1,32,0003-00-0008-10.png,0002-00-0002-84.png
9,581,1,1.44536E+12,1.44536E+12,913,384,0,0,0,5,2,3,52,0001-00-0004-12.png,0002-00-0003-57.png
9,582,0,1.44536E+12,1.44536E+12,453,279,0,0,0,1,5,4,15,0004-00-0004-67.png,0001-00-0008-40.png
9,583,1,1.44536E+12,1.44536E+12,862,488,0,0,0,1,4,3,14,0004-00-0005-24.png,0005-00-0007-10.png
9,584,1,1.44536E+12,1.44536E+12,1067,306,0,0,0,5,2,3,52,0001-00-0007-58.png,0002-00-0004-84.png
9,585,0,1.44536E+12,1.44536E+12,1075,279,0,0,0,2,5,3,25,0002-00-0004-64.png,0001-00-0004-11.png
9,586,0,1.44536E+12,1.44536E+12,902,462,0,0,0,1,4,3,14,0004-00-0009-16.png,0005-00-0001-90.png
9,587,1,1.44536E+12,1.44536E+12,964,396,0,0,0,2,3,1,23,0002-00-0002-84.png,0003-00-0006-62.png
9,588,0,1.44536E+12,1.44536E+12,452,226,0,0,0,3,5,2,35,0003-00-0004-22.png,0001-00-0008-57.png
9,589,0,1.44536E+12,1.44536E+12,911,434,0,0,0,2,4,2,24,0002-00-0000-38.png,0005-00-0000-12.png
9,590,0,1.44536E+12,1.44536E+12,915,433,0,0,0,1,2,1,12,0004-00-0004-45.png,0002-00-0004-09.png
9,591,1,1.44536E+12,1.44536E+12,943,335,0,0,0,4,2,2,42,0005-00-0008-69.png,0002-00-0006-66.png
9,592,0,1.44536E+12,1.44536E+12,1082,253,0,0,0,3,5,2,35,0003-00-0001-84.png,0001-00-0003-67.png
9,593,1,1.44536E+12,1.44536E+12,863,459,0,0,0,3,2,1,32,0003-00-0005-02.png,0002-00-0000-89.png
9,594,0,1.44536E+12,1.44536E+12,888,462,0,0,0,3,4,1,34,0003-00-0008-03.png,0005-00-0007-63.png
9,595,0,1.44536E+12,1.44536E+12,447,271,0,0,0,1,5,4,15,0004-00-0003-17.png,0001-00-0001-33.png
9,596,1,1.44536E+12,1.44536E+12,888,462,0,0,0,4,2,2,42,0005-00-0005-30.png,0002-00-0007-24.png
9,597,1,1.44536E+12,1.44536E+12,975,301,0,0,0,1,5,4,15,0004-00-0001-08.png,0001-00-0001-51.png
9,598,1,1.44536E+12,1.44536E+12,957,422,0,0,0,3,1,2,31,0003-00-0001-51.png,0004-00-0009-39.png
9,599,1,1.44536E+12,1.44536E+12,945,385,0,0,0,4,3,1,43,0005-00-0006-84.png,0003-00-0006-76.png
9,600,1,1.44536E+12,1.44536E+12,903,436,0,0,0,2,3,1,23,0002-00-0000-88.png,0003-00-0000-40.png
9,601,1,1.44536E+12,1.44536E+12,931,360,0,0,0,3,5,2,35,0003-00-0004-42.png,0001-00-0005-11.png
9,602,0,1.44536E+12,1.44536E+12,924,347,0,0,0,1,2,1,12,0004-00-0003-37.png,0002-00-0001-24.png
9,603,0,1.44536E+12,1.44536E+12,1089,332,0,0,0,2,3,1,23,0002-00-0004-77.png,0003-00-0003-87.png
9,604,1,1.44536E+12,1.44536E+12,498,242,0,0,0,5,1,4,51,0001-00-0009-98.png,0004-00-0008-62.png
9,605,1,1.44536E+12,1.44536E+12,863,423,0,0,0,3,1,2,31,0003-00-0001-85.png,0004-00-0003-28.png
9,606,0,1.44536E+12,1.44536E+12,939,397,0,0,0,1,4,3,14,0004-00-0002-19.png,0005-00-0007-76.png
9,607,1,1.44536E+12,1.44536E+12,910,416,0,0,0,1,3,2,13,0004-00-0004-04.png,0003-00-0005-80.png
9,608,1,1.44536E+12,1.44536E+12,486,278,0,0,0,4,1,3,41,0005-00-0004-49.png,0004-00-0005-14.png
9,609,1,1.44536E+12,1.44536E+12,478,243,0,0,0,4,1,3,41,0005-00-0008-68.png,0004-00-0008-24.png
9,610,1,1.44536E+12,1.44536E+12,884,390,0,0,0,4,3,1,43,0005-00-0004-69.png,0003-00-0006-83.png
9,611,1,1.44536E+12,1.44536E+12,1028,294,0,0,0,5,4,1,54,0001-00-0000-55.png,0005-00-0005-58.png
9,612,0,1.44536E+12,1.44536E+12,958,423,0,0,0,1,4,3,14,0004-00-0001-55.png,0005-00-0001-15.png
9,613,0,1.44536E+12,1.44536E+12,915,431,0,0,0,3,4,1,34,0003-00-0004-60.png,0005-00-0001-40.png
9,614,1,1.44536E+12,1.44536E+12,1068,278,0,0,0,1,2,1,12,0004-00-0005-99.png,0002-00-0009-11.png
9,615,0,1.44536E+12,1.44536E+12,889,439,0,0,0,2,5,3,25,0002-00-0002-67.png,0001-00-0006-18.png
9,616,0,1.44536E+12,1.44536E+12,416,361,0,0,0,3,4,1,34,0003-00-0008-75.png,0005-00-0001-18.png
9,617,0,1.44536E+12,1.44536E+12,465,247,0,0,0,3,4,1,34,0003-00-0009-30.png,0005-00-0001-68.png
9,618,1,1.44536E+12,1.44536E+12,865,389,0,0,0,2,1,1,21,0002-00-0003-40.png,0004-00-0004-07.png
9,619,1,1.44536E+12,1.44536E+12,499,279,0,0,0,3,2,1,32,0003-00-0006-59.png,0002-00-0001-64.png
9,620,0,1.44536E+12,1.44536E+12,939,390,0,0,0,3,4,1,34,0003-00-0000-41.png,0005-00-0001-78.png
9,621,1,1.44536E+12,1.44536E+12,931,444,0,0,0,3,2,1,32,0003-00-0000-93.png,0002-00-0006-27.png
9,622,1,1.44536E+12,1.44536E+12,915,409,0,0,0,3,1,2,31,0003-00-0000-68.png,0004-00-0008-58.png
9,623,0,1.44536E+12,1.44536E+12,930,495,0,0,0,1,5,4,15,0004-00-0008-14.png,0001-00-0000-72.png
9,624,0,1.44536E+12,1.44536E+12,1084,275,0,0,0,4,5,1,45,0005-00-0001-13.png,0001-00-0002-39.png
9,625,0,1.44536E+12,1.44536E+12,481,257,0,0,0,2,1,1,21,0002-00-0004-42.png,0004-00-0008-79.png
9,626,1,1.44536E+12,1.44536E+12,862,436,0,0,0,5,4,1,54,0001-00-0005-74.png,0005-00-0003-18.png
9,627,0,1.44536E+12,1.44536E+12,386,352,0,0,0,2,1,1,21,0002-00-0008-55.png,0004-00-0003-44.png
9,628,0,1.44536E+12,1.44536E+12,978,384,0,0,0,2,5,3,25,0002-00-0005-15.png,0001-00-0006-47.png
9,629,0,1.44536E+12,1.44536E+12,479,245,0,0,0,1,4,3,14,0004-00-0009-02.png,0005-00-0009-49.png
9,630,1,1.44536E+12,1.44536E+12,896,488,0,0,0,2,5,3,25,0002-00-0001-21.png,0001-00-0004-52.png
9,631,1,1.44536E+12,1.44536E+12,881,393,0,0,0,5,2,3,52,0001-00-0009-25.png,0002-00-0007-10.png
9,632,1,1.44536E+12,1.44536E+12,498,253,0,0,0,5,3,2,53,0001-00-0000-09.png,0003-00-0008-39.png
9,633,1,1.44536E+12,1.44536E+12,916,459,0,0,0,4,1,3,41,0005-00-0008-30.png,0004-00-0002-22.png
9,634,1,1.44536E+12,1.44536E+12,918,409,0,0,0,3,2,1,32,0003-00-0006-61.png,0002-00-0009-83.png
9,635,1,1.44536E+12,1.44536E+12,960,336,0,0,0,4,3,1,43,0005-00-0006-07.png,0003-00-0009-89.png
9,636,0,1.44536E+12,1.44536E+12,862,398,0,0,0,2,4,2,24,0002-00-0005-06.png,0005-00-0007-62.png
9,637,1,1.44536E+12,1.44536E+12,946,342,0,0,0,5,2,3,52,0001-00-0004-35.png,0002-00-0006-73.png
9,638,1,1.44536E+12,1.44536E+12,908,463,0,0,0,1,5,4,15,0004-00-0009-74.png,0001-00-0006-16.png
9,639,0,1.44536E+12,1.44536E+12,913,474,0,0,0,2,1,1,21,0002-00-0007-18.png,0004-00-0004-74.png
9,640,1,1.44536E+12,1.44536E+12,934,310,0,0,0,4,1,3,41,0005-00-0003-29.png,0004-00-0006-98.png
9,641,1,1.44536E+12,1.44536E+12,964,348,0,0,0,3,2,1,32,0003-00-0006-15.png,0002-00-0005-30.png
9,642,1,1.44536E+12,1.44536E+12,482,284,0,0,0,2,1,1,21,0002-00-0006-35.png,0004-00-0005-38.png
9,643,0,1.44536E+12,1.44536E+12,913,462,0,0,0,4,5,1,45,0005-00-0008-10.png,0001-00-0001-95.png
9,644,0,1.44536E+12,1.44536E+12,471,293,0,0,0,3,4,1,34,0003-00-0000-10.png,0005-00-0001-31.png
9,645,1,1.44536E+12,1.44536E+12,1043,302,0,0,0,1,2,1,12,0004-00-0001-23.png,0002-00-0002-65.png
9,646,1,1.44536E+12,1.44536E+12,888,462,0,0,0,3,5,2,35,0003-00-0006-96.png,0001-00-0009-36.png
9,647,1,1.44536E+12,1.44536E+12,873,464,0,0,0,4,5,1,45,0005-00-0000-02.png,0001-00-0003-88.png
9,648,1,1.44536E+12,1.44536E+12,1097,326,0,0,0,5,1,4,51,0001-00-0006-03.png,0004-00-0007-97.png
9,649,0,1.44536E+12,1.44536E+12,480,246,0,0,0,1,2,1,12,0004-00-0006-26.png,0002-00-0001-90.png
9,650,0,1.44536E+12,1.44536E+12,1063,316,0,0,0,1,3,2,13,0004-00-0009-15.png,0003-00-0008-55.png
9,651,0,1.44536E+12,1.44536E+12,873,358,0,0,0,5,3,2,53,0001-00-0008-36.png,0003-00-0001-88.png
9,652,1,1.44536E+12,1.44536E+12,933,396,0,0,0,3,1,2,31,0003-00-0001-59.png,0004-00-0000-73.png
9,653,1,1.44536E+12,1.44536E+12,886,464,0,0,0,5,4,1,54,0001-00-0005-57.png,0005-00-0008-64.png
9,654,1,1.44536E+12,1.44536E+12,899,404,0,0,0,2,1,1,21,0002-00-0003-49.png,0004-00-0003-94.png
9,655,1,1.44536E+12,1.44536E+12,1065,290,0,0,0,4,1,3,41,0005-00-0006-59.png,0004-00-0000-98.png
9,656,0,1.44536E+12,1.44536E+12,495,261,0,0,0,1,2,1,12,0004-00-0007-35.png,0002-00-0005-30.png
9,657,0,1.44536E+12,1.44536E+12,892,385,0,0,0,3,5,2,35,0003-00-0003-27.png,0001-00-0009-10.png
9,658,1,1.44536E+12,1.44536E+12,939,447,0,0,0,4,1,3,41,0005-00-0008-48.png,0004-00-0009-50.png
9,659,1,1.44536E+12,1.44536E+12,960,340,0,0,0,5,1,4,51,0001-00-0005-31.png,0004-00-0007-84.png
9,660,1,1.44536E+12,1.44536E+12,864,466,0,0,0,5,4,1,54,0001-00-0001-63.png,0005-00-0006-90.png
9,661,1,1.44536E+12,1.44536E+12,897,410,0,0,0,3,1,2,31,0003-00-0005-14.png,0004-00-0009-94.png
9,662,1,1.44536E+12,1.44536E+12,478,266,0,0,0,3,4,1,34,0003-00-0002-81.png,0005-00-0008-25.png
9,663,0,1.44536E+12,1.44536E+12,896,452,0,0,0,3,4,1,34,0003-00-0008-70.png,0005-00-0008-75.png
9,664,1,1.44536E+12,1.44536E+12,1041,340,0,0,0,5,3,2,53,0001-00-0007-74.png,0003-00-0008-12.png
9,665,1,1.44536E+12,1.44536E+12,471,273,0,0,0,4,1,3,41,0005-00-0009-44.png,0004-00-0007-11.png
9,666,0,1.44536E+12,1.44536E+12,924,514,0,0,0,1,3,2,13,0004-00-0004-10.png,0003-00-0000-61.png
9,667,1,1.44536E+12,1.44536E+12,913,436,0,0,0,4,2,2,42,0005-00-0002-05.png,0002-00-0001-42.png
9,668,0,1.44536E+12,1.44536E+12,932,342,0,0,0,3,4,1,34,0003-00-0007-18.png,0005-00-0006-88.png
9,669,0,1.44536E+12,1.44536E+12,437,258,0,0,0,1,5,4,15,0004-00-0007-36.png,0001-00-0003-64.png
9,670,1,1.44536E+12,1.44536E+12,985,340,0,0,0,1,2,1,12,0004-00-0001-42.png,0002-00-0006-34.png
9,671,1,1.44536E+12,1.44536E+12,489,254,0,0,0,1,3,2,13,0004-00-0006-98.png,0003-00-0009-20.png
9,672,1,1.44536E+12,1.44536E+12,490,265,0,0,0,2,5,3,25,0002-00-0006-89.png,0001-00-0006-10.png
9,673,1,1.44536E+12,1.44536E+12,913,462,0,0,0,5,1,4,51,0001-00-0001-90.png,0004-00-0009-46.png
9,674,0,1.44536E+12,1.44536E+12,1067,279,0,0,0,2,3,1,23,0002-00-0003-63.png,0003-00-0003-91.png
9,675,1,1.44536E+12,1.44536E+12,485,261,0,0,0,3,4,1,34,0003-00-0003-40.png,0005-00-0007-83.png
9,676,0,1.44536E+12,1.44536E+12,913,446,0,0,0,2,3,1,23,0002-00-0008-13.png,0003-00-0000-49.png
9,677,0,1.44536E+12,1.44536E+12,914,360,0,0,0,1,2,1,12,0004-00-0007-19.png,0002-00-0008-64.png
9,678,1,1.44536E+12,1.44536E+12,888,500,0,0,0,5,1,4,51,0001-00-0006-90.png,0004-00-0009-81.png
9,679,0,1.44536E+12,1.44536E+12,927,410,0,0,0,3,4,1,34,0003-00-0000-95.png,0005-00-0001-19.png
9,680,1,1.44536E+12,1.44536E+12,918,355,0,0,0,5,2,3,52,0001-00-0000-37.png,0002-00-0005-26.png
9,681,0,1.44536E+12,1.44536E+12,888,488,0,0,0,2,4,2,24,0002-00-0003-11.png,0005-00-0003-92.png
9,682,1,1.44536E+12,1.44536E+12,920,455,0,0,0,2,3,1,23,0002-00-0007-00.png,0003-00-0005-32.png
9,683,1,1.44536E+12,1.44536E+12,480,287,0,0,0,4,2,2,42,0005-00-0007-06.png,0002-00-0001-07.png
9,684,1,1.44536E+12,1.44536E+12,884,439,0,0,0,5,3,2,53,0001-00-0000-26.png,0003-00-0002-80.png
9,685,1,1.44536E+12,1.44536E+12,889,432,0,0,0,3,5,2,35,0003-00-0002-14.png,0001-00-0001-61.png
9,686,1,1.44536E+12,1.44536E+12,888,396,0,0,0,4,3,1,43,0005-00-0007-98.png,0003-00-0002-60.png
9,687,1,1.44536E+12,1.44536E+12,907,467,0,0,0,1,3,2,13,0004-00-0004-65.png,0003-00-0005-88.png
9,688,1,1.44536E+12,1.44536E+12,906,361,0,0,0,1,4,3,14,0004-00-0005-16.png,0005-00-0007-54.png
9,689,0,1.44536E+12,1.44536E+12,991,303,0,0,0,2,1,1,21,0002-00-0006-09.png,0004-00-0001-93.png
9,690,1,1.44536E+12,1.44536E+12,1074,273,0,0,0,3,2,1,32,0003-00-0009-26.png,0002-00-0003-32.png
9,691,1,1.44536E+12,1.44536E+12,478,276,0,0,0,4,2,2,42,0005-00-0002-64.png,0002-00-0004-23.png
9,692,0,1.44536E+12,1.44536E+12,871,406,0,0,0,1,4,3,14,0004-00-0001-60.png,0005-00-0006-31.png
9,693,1,1.44536E+12,1.44536E+12,946,401,0,0,0,4,2,2,42,0005-00-0005-79.png,0002-00-0001-63.png
9,694,1,1.44536E+12,1.44536E+12,939,395,0,0,0,2,1,1,21,0002-00-0001-82.png,0004-00-0000-61.png
9,695,0,1.44536E+12,1.44536E+12,388,343,0,0,0,2,3,1,23,0002-00-0008-38.png,0003-00-0002-07.png
9,696,1,1.44536E+12,1.44536E+12,897,512,0,0,0,1,5,4,15,0004-00-0007-03.png,0001-00-0000-13.png
9,697,1,1.44536E+12,1.44536E+12,488,371,0,0,0,5,2,3,52,0001-00-0004-30.png,0002-00-0006-40.png
9,698,0,1.44536E+12,1.44536E+12,937,342,0,0,0,1,5,4,15,0004-00-0008-38.png,0001-00-0002-32.png
9,699,1,1.44536E+12,1.44536E+12,913,453,0,0,0,2,3,1,23,0002-00-0001-03.png,0003-00-0003-23.png
9,700,1,1.44536E+12,1.44536E+12,964,410,0,0,0,4,1,3,41,0005-00-0005-26.png,0004-00-0007-98.png
9,701,1,1.44536E+12,1.44536E+12,1077,253,0,0,0,1,3,2,13,0004-00-0001-27.png,0003-00-0008-98.png
9,702,1,1.44536E+12,1.44536E+12,939,446,0,0,0,2,5,3,25,0002-00-0009-41.png,0001-00-0007-16.png
9,703,1,1.44536E+12,1.44536E+12,388,331,0,0,0,5,1,4,51,0001-00-0004-91.png,0004-00-0009-37.png
9,704,1,1.44536E+12,1.44536E+12,879,410,0,0,0,5,4,1,54,0001-00-0007-95.png,0005-00-0001-66.png
9,705,1,1.44536E+12,1.44536E+12,975,436,0,0,0,4,1,3,41,0005-00-0003-73.png,0004-00-0004-63.png
9,706,0,1.44536E+12,1.44536E+12,407,349,0,0,0,2,4,2,24,0002-00-0007-55.png,0005-00-0007-99.png
9,707,1,1.44536E+12,1.44536E+12,964,405,0,0,0,1,4,3,14,0004-00-0002-98.png,0005-00-0005-54.png
9,708,1,1.44536E+12,1.44536E+12,925,488,0,0,0,4,3,1,43,0005-00-0004-35.png,0003-00-0003-29.png
9,709,0,1.44536E+12,1.44536E+12,487,310,0,0,0,4,5,1,45,0005-00-0008-88.png,0001-00-0006-82.png
9,710,1,1.44536E+12,1.44536E+12,1067,265,0,0,0,3,1,2,31,0003-00-0008-45.png,0004-00-0005-77.png
9,711,0,1.44536E+12,1.44536E+12,904,410,0,0,0,4,2,2,42,0005-00-0005-81.png,0002-00-0005-64.png
9,712,0,1.44536E+12,1.44536E+12,955,434,0,0,0,2,3,1,23,0002-00-0007-41.png,0003-00-0002-24.png
9,713,1,1.44536E+12,1.44536E+12,478,423,0,0,0,2,4,2,24,0002-00-0009-14.png,0005-00-0009-55.png
9,714,1,1.44536E+12,1.44536E+12,497,285,0,0,0,4,2,2,42,0005-00-0000-35.png,0002-00-0006-95.png
9,715,1,1.44536E+12,1.44536E+12,892,385,0,0,0,4,3,1,43,0005-00-0006-04.png,0003-00-0000-01.png
9,716,1,1.44536E+12,1.44536E+12,915,410,0,0,0,1,4,3,14,0004-00-0008-23.png,0005-00-0009-06.png
9,717,1,1.44536E+12,1.44536E+12,453,422,0,0,0,5,4,1,54,0001-00-0002-00.png,0005-00-0001-32.png
9,718,1,1.44536E+12,1.44536E+12,944,375,0,0,0,5,2,3,52,0001-00-0005-57.png,0002-00-0006-42.png
9,719,0,1.44536E+12,1.44536E+12,1016,410,0,0,0,2,3,1,23,0002-00-0000-02.png,0003-00-0005-56.png
9,720,1,1.44536E+12,1.44536E+12,964,373,0,0,0,3,1,2,31,0003-00-0008-32.png,0004-00-0003-10.png
9,721,0,1.44536E+12,1.44536E+12,888,356,0,0,0,2,3,1,23,0002-00-0002-49.png,0003-00-0008-14.png
9,722,1,1.44536E+12,1.44536E+12,1067,289,0,0,0,1,4,3,14,0004-00-0001-28.png,0005-00-0001-90.png
9,723,1,1.44536E+12,1.44536E+12,885,459,0,0,0,2,3,1,23,0002-00-0008-68.png,0003-00-0008-43.png
9,724,1,1.44536E+12,1.44536E+12,427,436,0,0,0,5,2,3,52,0001-00-0004-88.png,0002-00-0005-22.png
9,725,1,1.44536E+12,1.44536E+12,497,237,0,0,0,2,1,1,21,0002-00-0007-70.png,0004-00-0004-26.png
9,726,0,1.44536E+12,1.44536E+12,911,408,0,0,0,2,1,1,21,0002-00-0000-29.png,0004-00-0005-60.png
9,727,1,1.44536E+12,1.44536E+12,955,488,0,0,0,4,2,2,42,0005-00-0002-91.png,0002-00-0007-65.png
9,728,1,1.44536E+12,1.44536E+12,502,309,0,0,0,5,2,3,52,0001-00-0005-71.png,0002-00-0009-64.png
9,729,1,1.44536E+12,1.44536E+12,912,446,0,0,0,3,1,2,31,0003-00-0007-22.png,0004-00-0002-26.png
9,730,1,1.44536E+12,1.44536E+12,971,351,0,0,0,4,2,2,42,0005-00-0003-22.png,0002-00-0008-34.png
9,731,1,1.44536E+12,1.44536E+12,1083,289,0,0,0,2,5,3,25,0002-00-0007-35.png,0001-00-0000-83.png
9,732,1,1.44536E+12,1.44536E+12,967,308,0,0,0,5,3,2,53,0001-00-0006-13.png,0003-00-0004-48.png
9,733,0,1.44536E+12,1.44536E+12,456,286,0,0,0,5,3,2,53,0001-00-0004-44.png,0003-00-0007-24.png
9,734,1,1.44536E+12,1.44536E+12,880,469,0,0,0,5,1,4,51,0001-00-0009-99.png,0004-00-0004-86.png
9,735,1,1.44536E+12,1.44536E+12,888,462,0,0,0,2,5,3,25,0002-00-0001-44.png,0001-00-0004-85.png
9,736,0,1.44536E+12,1.44536E+12,949,401,0,0,0,1,3,2,13,0004-00-0005-04.png,0003-00-0007-75.png
9,737,1,1.44536E+12,1.44536E+12,1060,293,0,0,0,2,4,2,24,0002-00-0001-60.png,0005-00-0002-00.png
9,738,1,1.44536E+12,1.44536E+12,902,410,0,0,0,5,4,1,54,0001-00-0001-28.png,0005-00-0006-61.png
9,739,0,1.44536E+12,1.44536E+12,898,462,0,0,0,5,3,2,53,0001-00-0007-13.png,0003-00-0001-75.png
9,740,1,1.44536E+12,1.44536E+12,956,309,0,0,0,5,1,4,51,0001-00-0001-16.png,0004-00-0005-88.png
9,741,1,1.44536E+12,1.44536E+12,858,463,0,0,0,2,5,3,25,0002-00-0002-48.png,0001-00-0000-15.png
9,742,1,1.44536E+12,1.44536E+12,1118,279,0,0,0,4,5,1,45,0005-00-0005-07.png,0001-00-0009-28.png
9,743,0,1.44536E+12,1.44536E+12,494,233,0,0,0,1,3,2,13,0004-00-0006-66.png,0003-00-0006-82.png
9,744,1,1.44536E+12,1.44536E+12,866,459,0,0,0,1,4,3,14,0004-00-0004-00.png,0005-00-0008-70.png
9,745,1,1.44536E+12,1.44536E+12,928,404,0,0,0,3,5,2,35,0003-00-0008-20.png,0001-00-0003-59.png
9,746,1,1.44536E+12,1.44536E+12,386,384,0,0,0,4,3,1,43,0005-00-0004-24.png,0003-00-0003-86.png
9,747,1,1.44536E+12,1.44536E+12,1041,279,0,0,0,5,3,2,53,0001-00-0004-07.png,0003-00-0004-69.png
9,748,1,1.44536E+12,1.44536E+12,888,421,0,0,0,4,3,1,43,0005-00-0004-52.png,0003-00-0008-67.png
9,749,1,1.44536E+12,1.44536E+12,903,470,0,0,0,5,4,1,54,0001-00-0000-62.png,0005-00-0003-48.png
9,750,1,1.44536E+12,1.44536E+12,920,481,0,0,0,3,1,2,31,0003-00-0002-52.png,0004-00-0004-57.png
9,751,0,1.44536E+12,1.44536E+12,947,321,0,0,0,1,4,3,14,0004-00-0002-53.png,0005-00-0009-18.png
9,752,1,1.44536E+12,1.44536E+12,386,345,0,0,0,3,1,2,31,0003-00-0006-84.png,0004-00-0003-06.png
9,753,1,1.44536E+12,1.44536E+12,868,453,0,0,0,1,2,1,12,0004-00-0006-38.png,0002-00-0007-08.png
9,754,1,1.44536E+12,1.44536E+12,895,458,0,0,0,5,1,4,51,0001-00-0008-10.png,0004-00-0001-06.png
9,755,1,1.44536E+12,1.44536E+12,480,289,0,0,0,3,1,2,31,0003-00-0007-13.png,0004-00-0008-72.png
9,756,1,1.44536E+12,1.44536E+12,1015,493,0,0,0,5,2,3,52,0001-00-0008-30.png,0002-00-0005-74.png
9,757,0,1.44536E+12,1.44536E+12,946,404,0,0,0,4,5,1,45,0005-00-0001-34.png,0001-00-0005-23.png
9,758,0,1.44536E+12,1.44536E+12,422,358,0,0,0,3,4,1,34,0003-00-0005-80.png,0005-00-0004-95.png
9,759,1,1.44536E+12,1.44536E+12,920,441,0,0,0,5,4,1,54,0001-00-0001-85.png,0005-00-0008-30.png
9,760,0,1.44536E+12,1.44536E+12,955,331,0,0,0,1,3,2,13,0004-00-0004-96.png,0003-00-0006-00.png
9,761,1,1.44536E+12,1.44536E+12,924,436,0,0,0,4,3,1,43,0005-00-0009-44.png,0003-00-0000-47.png
9,762,0,1.44536E+12,1.44536E+12,1067,279,0,0,0,2,5,3,25,0002-00-0001-80.png,0001-00-0001-81.png
9,763,1,1.44536E+12,1.44536E+12,909,516,0,0,0,2,4,2,24,0002-00-0007-23.png,0005-00-0004-52.png
9,764,1,1.44536E+12,1.44536E+12,935,336,0,0,0,3,1,2,31,0003-00-0006-85.png,0004-00-0005-27.png
9,765,1,1.44536E+12,1.44536E+12,949,322,0,0,0,5,1,4,51,0001-00-0006-02.png,0004-00-0008-79.png
9,766,1,1.44536E+12,1.44536E+12,946,402,0,0,0,5,2,3,52,0001-00-0005-27.png,0002-00-0001-91.png
9,767,1,1.44536E+12,1.44536E+12,965,333,0,0,0,1,3,2,13,0004-00-0008-26.png,0003-00-0003-50.png
9,768,1,1.44536E+12,1.44536E+12,938,359,0,0,0,5,4,1,54,0001-00-0009-14.png,0005-00-0000-80.png
9,769,0,1.44536E+12,1.44536E+12,1081,279,0,0,0,4,5,1,45,0005-00-0006-40.png,0001-00-0004-08.png
9,770,0,1.44536E+12,1.44536E+12,491,279,0,0,0,2,5,3,25,0002-00-0008-88.png,0001-00-0005-26.png
9,771,1,1.44536E+12,1.44536E+12,489,266,0,0,0,4,1,3,41,0005-00-0003-40.png,0004-00-0008-88.png
9,772,1,1.44536E+12,1.44536E+12,1067,317,0,0,0,1,5,4,15,0004-00-0008-87.png,0001-00-0004-61.png
9,773,1,1.44536E+12,1.44536E+12,453,306,0,0,0,4,1,3,41,0005-00-0005-44.png,0004-00-0005-31.png
9,774,0,1.44536E+12,1.44536E+12,453,306,0,0,0,2,4,2,24,0002-00-0003-50.png,0005-00-0000-35.png
9,775,1,1.44536E+12,1.44536E+12,484,250,0,0,0,2,1,1,21,0002-00-0008-36.png,0004-00-0007-26.png
9,776,1,1.44536E+12,1.44536E+12,924,349,0,0,0,2,3,1,23,0002-00-0006-89.png,0003-00-0003-12.png
9,777,0,1.44536E+12,1.44536E+12,1001,462,0,0,0,1,2,1,12,0004-00-0004-41.png,0002-00-0001-90.png
9,778,1,1.44536E+12,1.44536E+12,403,355,0,0,0,3,2,1,32,0003-00-0005-91.png,0002-00-0009-69.png
9,779,0,1.44536E+12,1.44536E+12,1037,318,0,0,0,4,5,1,45,0005-00-0003-87.png,0001-00-0005-09.png
9,780,1,1.44536E+12,1.44536E+12,955,488,0,0,0,5,3,2,53,0001-00-0002-51.png,0003-00-0006-06.png
9,781,1,1.44536E+12,1.44536E+12,1058,299,0,0,0,4,3,1,43,0005-00-0007-33.png,0003-00-0001-13.png
9,782,1,1.44536E+12,1.44536E+12,946,333,0,0,0,4,1,3,41,0005-00-0004-20.png,0004-00-0008-56.png
9,783,0,1.44536E+12,1.44536E+12,1056,306,0,0,0,2,4,2,24,0002-00-0003-27.png,0005-00-0002-28.png
9,784,0,1.44536E+12,1.44536E+12,901,441,0,0,0,1,5,4,15,0004-00-0005-68.png,0001-00-0008-15.png
9,785,1,1.44536E+12,1.44536E+12,921,436,0,0,0,4,1,3,41,0005-00-0003-27.png,0004-00-0007-40.png
9,786,1,1.44536E+12,1.44536E+12,913,358,0,0,0,3,1,2,31,0003-00-0001-89.png,0004-00-0003-14.png
9,787,0,1.44536E+12,1.44536E+12,888,488,0,0,0,1,5,4,15,0004-00-0003-74.png,0001-00-0006-31.png
9,788,1,1.44536E+12,1.44536E+12,889,413,0,0,0,4,2,2,42,0005-00-0005-35.png,0002-00-0002-63.png
9,789,1,1.44536E+12,1.44536E+12,862,393,0,0,0,5,2,3,52,0001-00-0006-35.png,0002-00-0006-25.png
9,790,1,1.44536E+12,1.44536E+12,914,328,0,0,0,5,2,3,52,0001-00-0003-30.png,0002-00-0008-55.png
9,791,1,1.44536E+12,1.44536E+12,483,252,0,0,0,1,2,1,12,0004-00-0000-24.png,0002-00-0009-87.png
9,792,1,1.44536E+12,1.44536E+12,940,449,0,0,0,5,1,4,51,0001-00-0008-40.png,0004-00-0003-72.png
9,793,0,1.44536E+12,1.44536E+12,486,309,0,0,0,3,4,1,34,0003-00-0007-88.png,0005-00-0001-15.png
9,794,1,1.44536E+12,1.44536E+12,401,436,0,0,0,4,2,2,42,0005-00-0002-70.png,0002-00-0003-67.png
9,795,1,1.44536E+12,1.44536E+12,1054,313,0,0,0,2,1,1,21,0002-00-0001-51.png,0004-00-0007-96.png
9,796,0,1.44536E+12,1.44536E+12,964,398,0,0,0,2,4,2,24,0002-00-0000-65.png,0005-00-0003-78.png
9,797,0,1.44536E+12,1.44536E+12,913,394,0,0,0,3,4,1,34,0003-00-0004-80.png,0005-00-0004-19.png
9,798,1,1.44536E+12,1.44536E+12,974,303,0,0,0,3,1,2,31,0003-00-0002-02.png,0004-00-0001-36.png
9,799,0,1.44536E+12,1.44536E+12,913,436,0,0,0,4,5,1,45,0005-00-0000-45.png,0001-00-0004-42.png
9,800,1,1.44536E+12,1.44536E+12,939,323,0,0,0,1,5,4,15,0004-00-0000-52.png,0001-00-0005-01.png
9,801,1,1.44536E+12,1.44536E+12,888,488,0,0,0,3,4,1,34,0003-00-0000-70.png,0005-00-0008-82.png
9,802,0,1.44536E+12,1.44536E+12,914,409,0,0,0,4,3,1,43,0005-00-0006-85.png,0003-00-0003-32.png
9,803,0,1.44536E+12,1.44536E+12,916,443,0,0,0,1,5,4,15,0004-00-0003-75.png,0001-00-0008-43.png
9,804,1,1.44536E+12,1.44536E+12,956,332,0,0,0,3,1,2,31,0003-00-0004-02.png,0004-00-0008-63.png
9,805,1,1.44536E+12,1.44536E+12,907,486,0,0,0,4,5,1,45,0005-00-0001-63.png,0001-00-0006-13.png
9,806,0,1.44536E+12,1.44536E+12,888,488,0,0,0,3,4,1,34,0003-00-0008-00.png,0005-00-0001-28.png
9,807,1,1.44536E+12,1.44536E+12,427,332,0,0,0,3,1,2,31,0003-00-0002-30.png,0004-00-0008-81.png
9,808,1,1.44536E+12,1.44536E+12,862,410,0,0,0,4,2,2,42,0005-00-0005-13.png,0002-00-0006-37.png
9,809,1,1.44536E+12,1.44536E+12,871,429,0,0,0,5,1,4,51,0001-00-0008-42.png,0004-00-0007-91.png
9,810,0,1.44536E+12,1.44536E+12,913,462,0,0,0,2,4,2,24,0002-00-0003-09.png,0005-00-0001-61.png
9,811,1,1.44536E+12,1.44536E+12,440,436,0,0,0,1,4,3,14,0004-00-0004-65.png,0005-00-0008-41.png
9,812,1,1.44536E+12,1.44536E+12,886,502,0,0,0,5,2,3,52,0001-00-0003-50.png,0002-00-0000-89.png
9,813,1,1.44536E+12,1.44536E+12,913,436,0,0,0,3,2,1,32,0003-00-0003-96.png,0002-00-0003-55.png
9,814,1,1.44536E+12,1.44536E+12,939,462,0,0,0,1,2,1,12,0004-00-0006-41.png,0002-00-0003-54.png
9,815,1,1.44536E+12,1.44536E+12,465,278,0,0,0,4,3,1,43,0005-00-0000-79.png,0003-00-0002-73.png
9,816,1,1.44536E+12,1.44536E+12,879,514,0,0,0,3,5,2,35,0003-00-0000-62.png,0001-00-0001-38.png
9,817,1,1.44536E+12,1.44536E+12,904,436,0,0,0,1,4,3,14,0004-00-0004-51.png,0005-00-0005-50.png
9,818,1,1.44536E+12,1.44536E+12,1110,288,0,0,0,5,3,2,53,0001-00-0003-32.png,0003-00-0007-41.png
9,819,1,1.44536E+12,1.44536E+12,919,276,0,0,0,3,1,2,31,0003-00-0000-83.png,0004-00-0006-67.png
9,820,0,1.44536E+12,1.44536E+12,964,373,0,0,0,3,4,1,34,0003-00-0006-18.png,0005-00-0006-87.png
9,821,0,1.44536E+12,1.44536E+12,919,369,0,0,0,2,3,1,23,0002-00-0008-73.png,0003-00-0001-13.png
9,822,1,1.44536E+12,1.44536E+12,936,320,0,0,0,3,1,2,31,0003-00-0004-40.png,0004-00-0007-82.png
9,823,1,1.44536E+12,1.44536E+12,1024,311,0,0,0,5,3,2,53,0001-00-0003-35.png,0003-00-0007-30.png
9,824,1,1.44536E+12,1.44536E+12,981,359,0,0,0,4,1,3,41,0005-00-0008-76.png,0004-00-0002-05.png
9,825,1,1.44536E+12,1.44536E+12,909,356,0,0,0,4,3,1,43,0005-00-0009-71.png,0003-00-0008-08.png
9,826,0,1.44536E+12,1.44536E+12,964,425,0,0,0,4,5,1,45,0005-00-0002-30.png,0001-00-0000-92.png
9,827,0,1.44536E+12,1.44536E+12,964,348,0,0,0,1,5,4,15,0004-00-0000-33.png,0001-00-0002-98.png
9,828,0,1.44536E+12,1.44536E+12,948,341,0,0,0,2,3,1,23,0002-00-0000-29.png,0003-00-0008-02.png
9,829,1,1.44536E+12,1.44536E+12,384,375,0,0,0,2,4,2,24,0002-00-0005-43.png,0005-00-0006-11.png
9,830,1,1.44536E+12,1.44536E+12,973,363,0,0,0,5,4,1,54,0001-00-0001-07.png,0005-00-0006-64.png
9,831,1,1.44536E+12,1.44536E+12,1073,296,0,0,0,5,2,3,52,0001-00-0001-92.png,0002-00-0007-23.png
9,832,0,1.44536E+12,1.44536E+12,1056,279,0,0,0,5,4,1,54,0001-00-0006-33.png,0005-00-0001-03.png
9,833,0,1.44536E+12,1.44536E+12,964,427,0,0,0,5,4,1,54,0001-00-0009-13.png,0005-00-0003-16.png
9,834,0,1.44536E+12,1.44536E+12,887,331,0,0,0,5,4,1,54,0001-00-0005-97.png,0005-00-0003-65.png
9,835,1,1.44536E+12,1.44536E+12,866,486,0,0,0,4,1,3,41,0005-00-0001-01.png,0004-00-0003-60.png
9,836,1,1.44536E+12,1.44536E+12,920,354,0,0,0,5,4,1,54,0001-00-0006-67.png,0005-00-0009-90.png
9,837,0,1.44536E+12,1.44536E+12,1067,292,0,0,0,3,5,2,35,0003-00-0004-80.png,0001-00-0008-61.png
9,838,1,1.44536E+12,1.44536E+12,469,260,0,0,0,4,2,2,42,0005-00-0006-97.png,0002-00-0009-07.png
9,839,1,1.44536E+12,1.44536E+12,915,475,0,0,0,5,1,4,51,0001-00-0005-87.png,0004-00-0009-49.png
9,840,1,1.44536E+12,1.44536E+12,939,328,0,0,0,5,1,4,51,0001-00-0000-49.png,0004-00-0009-99.png
9,841,0,1.44536E+12,1.44536E+12,490,267,0,0,0,2,4,2,24,0002-00-0003-56.png,0005-00-0003-39.png
9,842,0,1.44536E+12,1.44536E+12,964,488,0,0,0,1,4,3,14,0004-00-0005-57.png,0005-00-0003-33.png
9,843,1,1.44536E+12,1.44536E+12,1057,292,0,0,0,1,3,2,13,0004-00-0006-72.png,0003-00-0001-14.png
9,844,1,1.44536E+12,1.44536E+12,1057,288,0,0,0,5,2,3,52,0001-00-0007-86.png,0002-00-0002-36.png
9,845,1,1.44536E+12,1.44536E+12,954,417,0,0,0,2,1,1,21,0002-00-0005-86.png,0004-00-0003-76.png
9,846,0,1.44536E+12,1.44536E+12,939,488,0,0,0,2,5,3,25,0002-00-0006-40.png,0001-00-0002-73.png
9,847,1,1.44536E+12,1.44536E+12,973,452,0,0,0,3,1,2,31,0003-00-0004-44.png,0004-00-0003-91.png
9,848,1,1.44536E+12,1.44536E+12,868,386,0,0,0,4,1,3,41,0005-00-0008-33.png,0004-00-0005-25.png
9,849,1,1.44536E+12,1.44536E+12,387,358,0,0,0,2,4,2,24,0002-00-0007-24.png,0005-00-0004-24.png
9,850,1,1.44536E+12,1.44536E+12,517,242,0,0,0,3,2,1,32,0003-00-0007-98.png,0002-00-0003-64.png
9,851,0,1.44536E+12,1.44536E+12,888,462,0,0,0,2,1,1,21,0002-00-0003-62.png,0004-00-0003-62.png
9,852,1,1.44536E+12,1.44536E+12,917,342,0,0,0,5,1,4,51,0001-00-0004-33.png,0004-00-0008-09.png
9,853,1,1.44536E+12,1.44536E+12,963,301,0,0,0,4,2,2,42,0005-00-0008-51.png,0002-00-0000-60.png
9,854,1,1.44536E+12,1.44536E+12,891,411,0,0,0,3,2,1,32,0003-00-0006-76.png,0002-00-0004-14.png
9,855,0,1.44536E+12,1.44536E+12,889,431,0,0,0,1,3,2,13,0004-00-0000-41.png,0003-00-0006-23.png
9,856,1,1.44536E+12,1.44536E+12,886,444,0,0,0,1,4,3,14,0004-00-0003-12.png,0005-00-0000-56.png
9,857,1,1.44536E+12,1.44536E+12,912,469,0,0,0,2,1,1,21,0002-00-0001-51.png,0004-00-0003-56.png
9,858,1,1.44536E+12,1.44536E+12,937,462,0,0,0,5,3,2,53,0001-00-0008-33.png,0003-00-0000-63.png
9,859,1,1.44536E+12,1.44536E+12,903,307,0,0,0,5,3,2,53,0001-00-0001-14.png,0003-00-0001-42.png
9,860,0,1.44536E+12,1.44536E+12,944,332,0,0,0,2,3,1,23,0002-00-0001-65.png,0003-00-0009-21.png
9,861,1,1.44536E+12,1.44536E+12,863,466,0,0,0,5,1,4,51,0001-00-0003-87.png,0004-00-0009-53.png
9,862,0,1.44536E+12,1.44536E+12,913,436,0,0,0,2,3,1,23,0002-00-0001-57.png,0003-00-0006-41.png
9,863,0,1.44536E+12,1.44536E+12,888,410,0,0,0,4,5,1,45,0005-00-0000-06.png,0001-00-0003-17.png
9,864,1,1.44536E+12,1.44536E+12,410,266,0,0,0,4,2,2,42,0005-00-0006-80.png,0002-00-0003-10.png
9,865,1,1.44536E+12,1.44536E+12,1027,279,0,0,0,2,1,1,21,0002-00-0008-49.png,0004-00-0000-99.png
9,866,1,1.44536E+12,1.44536E+12,478,270,0,0,0,2,3,1,23,0002-00-0000-91.png,0003-00-0005-54.png
9,867,1,1.44536E+12,1.44536E+12,889,414,0,0,0,2,4,2,24,0002-00-0004-25.png,0005-00-0007-67.png
9,868,1,1.44536E+12,1.44536E+12,939,436,0,0,0,4,1,3,41,0005-00-0006-47.png,0004-00-0002-23.png
9,869,1,1.44536E+12,1.44536E+12,413,358,0,0,0,2,4,2,24,0002-00-0009-42.png,0005-00-0003-20.png
9,870,0,1.44536E+12,1.44536E+12,504,269,0,0,0,3,4,1,34,0003-00-0009-11.png,0005-00-0003-83.png
9,871,1,1.44536E+12,1.44536E+12,902,454,0,0,0,4,5,1,45,0005-00-0002-08.png,0001-00-0003-17.png
9,872,1,1.44536E+12,1.44536E+12,970,426,0,0,0,5,3,2,53,0001-00-0006-11.png,0003-00-0001-10.png
9,873,1,1.44536E+12,1.44536E+12,1073,322,0,0,0,4,2,2,42,0005-00-0008-68.png,0002-00-0008-78.png
9,874,1,1.44536E+12,1.44536E+12,515,247,0,0,0,4,2,2,42,0005-00-0009-12.png,0002-00-0007-99.png
9,875,1,1.44536E+12,1.44536E+12,908,506,0,0,0,5,1,4,51,0001-00-0006-09.png,0004-00-0002-40.png
9,876,0,1.44536E+12,1.44536E+12,1052,295,0,0,0,2,5,3,25,0002-00-0003-61.png,0001-00-0009-68.png
9,877,0,1.44536E+12,1.44536E+12,1035,262,0,0,0,4,5,1,45,0005-00-0004-25.png,0001-00-0009-11.png
9,878,1,1.44536E+12,1.44536E+12,1081,279,0,0,0,3,1,2,31,0003-00-0006-75.png,0004-00-0001-31.png
9,879,1,1.44536E+12,1.44536E+12,888,525,0,0,0,1,5,4,15,0004-00-0002-88.png,0001-00-0006-16.png
9,880,0,1.44536E+12,1.44536E+12,888,436,0,0,0,4,5,1,45,0005-00-0009-15.png,0001-00-0000-85.png
9,881,1,1.44536E+12,1.44536E+12,476,300,0,0,0,5,2,3,52,0001-00-0003-36.png,0002-00-0000-70.png
9,882,0,1.44536E+12,1.44536E+12,873,462,0,0,0,3,5,2,35,0003-00-0006-45.png,0001-00-0005-75.png
9,883,1,1.44536E+12,1.44536E+12,925,332,0,0,0,4,1,3,41,0005-00-0001-91.png,0004-00-0004-32.png
9,884,0,1.44536E+12,1.44536E+12,487,258,0,0,0,4,5,1,45,0005-00-0006-90.png,0001-00-0007-84.png
9,885,0,1.44536E+12,1.44536E+12,913,410,0,0,0,1,2,1,12,0004-00-0008-78.png,0002-00-0008-02.png
9,886,1,1.44536E+12,1.44536E+12,923,462,0,0,0,3,2,1,32,0003-00-0005-95.png,0002-00-0006-97.png
9,887,1,1.44536E+12,1.44536E+12,948,462,0,0,0,3,1,2,31,0003-00-0003-06.png,0004-00-0007-48.png
9,888,1,1.44536E+12,1.44536E+12,939,472,0,0,0,4,2,2,42,0005-00-0004-16.png,0002-00-0007-61.png
9,889,1,1.44536E+12,1.44536E+12,945,317,0,0,0,1,3,2,13,0004-00-0007-81.png,0003-00-0002-34.png
9,890,0,1.44536E+12,1.44536E+12,884,454,0,0,0,1,2,1,12,0004-00-0003-61.png,0002-00-0007-07.png
9,891,1,1.44536E+12,1.44536E+12,440,454,0,0,0,5,3,2,53,0001-00-0009-44.png,0003-00-0002-85.png
9,892,0,1.44536E+12,1.44536E+12,1054,296,0,0,0,1,2,1,12,0004-00-0001-19.png,0002-00-0000-98.png
9,893,1,1.44536E+12,1.44536E+12,393,340,0,0,0,4,1,3,41,0005-00-0000-25.png,0004-00-0002-32.png
9,894,1,1.44536E+12,1.44536E+12,903,521,0,0,0,1,3,2,13,0004-00-0007-12.png,0003-00-0001-92.png
9,895,0,1.44536E+12,1.44536E+12,883,335,0,0,0,3,5,2,35,0003-00-0008-44.png,0001-00-0001-88.png
9,896,1,1.44536E+12,1.44536E+12,975,382,0,0,0,3,2,1,32,0003-00-0006-14.png,0002-00-0008-58.png
9,897,0,1.44536E+12,1.44536E+12,1056,270,0,0,0,2,3,1,23,0002-00-0000-19.png,0003-00-0003-32.png
9,898,0,1.44536E+12,1.44536E+12,913,446,0,0,0,1,4,3,14,0004-00-0003-57.png,0005-00-0006-58.png
9,899,0,1.44536E+12,1.44536E+12,494,286,0,0,0,2,5,3,25,0002-00-0007-94.png,0001-00-0005-03.png
9,900,1,1.44536E+12,1.44536E+12,872,410,0,0,0,4,2,2,42,0005-00-0003-30.png,0002-00-0007-37.png
9,901,1,1.44536E+12,1.44536E+12,899,436,0,0,0,5,2,3,52,0001-00-0005-12.png,0002-00-0004-20.png
9,902,1,1.44536E+12,1.44536E+12,1086,320,0,0,0,3,2,1,32,0003-00-0003-28.png,0002-00-0002-20.png
9,903,1,1.44536E+12,1.44536E+12,896,530,0,0,0,4,3,1,43,0005-00-0001-09.png,0003-00-0009-44.png
9,904,0,1.44536E+12,1.44536E+12,913,448,0,0,0,1,2,1,12,0004-00-0006-38.png,0002-00-0004-10.png
9,905,1,1.44536E+12,1.44536E+12,495,287,0,0,0,1,4,3,14,0004-00-0001-35.png,0005-00-0005-43.png
9,906,1,1.44536E+12,1.44536E+12,1027,311,0,0,0,4,2,2,42,0005-00-0009-98.png,0002-00-0002-24.png
9,907,1,1.44536E+12,1.44536E+12,913,423,0,0,0,1,5,4,15,0004-00-0003-02.png,0001-00-0005-64.png
9,908,1,1.44536E+12,1.44536E+12,478,279,0,0,0,2,1,1,21,0002-00-0008-16.png,0004-00-0003-11.png
9,909,0,1.44536E+12,1.44536E+12,956,327,0,0,0,3,5,2,35,0003-00-0007-23.png,0001-00-0008-86.png
9,910,1,1.44536E+12,1.44536E+12,878,358,0,0,0,5,1,4,51,0001-00-0002-44.png,0004-00-0005-47.png
9,911,1,1.44536E+12,1.44536E+12,475,310,0,0,0,1,3,2,13,0004-00-0007-32.png,0003-00-0001-78.png
9,912,0,1.44536E+12,1.44536E+12,963,403,0,0,0,1,4,3,14,0004-00-0001-41.png,0005-00-0004-01.png
9,913,1,1.44536E+12,1.44536E+12,942,517,0,0,0,1,2,1,12,0004-00-0002-17.png,0002-00-0007-07.png
9,914,0,1.44536E+12,1.44536E+12,968,346,0,0,0,3,4,1,34,0003-00-0001-07.png,0005-00-0000-87.png
9,915,1,1.44536E+12,1.44536E+12,1050,312,0,0,0,2,3,1,23,0002-00-0001-20.png,0003-00-0001-18.png
9,916,0,1.44536E+12,1.44536E+12,974,514,0,0,0,2,5,3,25,0002-00-0005-15.png,0001-00-0008-68.png
9,917,1,1.44536E+12,1.44536E+12,862,397,0,0,0,1,5,4,15,0004-00-0000-63.png,0001-00-0009-64.png
9,918,1,1.44536E+12,1.44536E+12,888,462,0,0,0,3,1,2,31,0003-00-0005-89.png,0004-00-0003-73.png
9,919,0,1.44536E+12,1.44536E+12,862,410,0,0,0,1,3,2,13,0004-00-0008-39.png,0003-00-0001-86.png
9,920,0,1.44536E+12,1.44536E+12,384,349,0,0,0,3,4,1,34,0003-00-0001-16.png,0005-00-0003-63.png
9,921,0,1.44536E+12,1.44536E+12,479,266,0,0,0,2,1,1,21,0002-00-0006-14.png,0004-00-0000-86.png
9,922,0,1.44536E+12,1.44536E+12,868,452,0,0,0,1,5,4,15,0004-00-0000-70.png,0001-00-0006-72.png
9,923,1,1.44536E+12,1.44536E+12,401,358,0,0,0,3,1,2,31,0003-00-0008-55.png,0004-00-0006-68.png
9,924,1,1.44536E+12,1.44536E+12,492,242,0,0,0,5,4,1,54,0001-00-0007-46.png,0005-00-0008-00.png
9,925,0,1.44536E+12,1.44536E+12,888,436,0,0,0,4,3,1,43,0005-00-0008-02.png,0003-00-0003-58.png
9,926,1,1.44536E+12,1.44536E+12,939,436,0,0,0,2,1,1,21,0002-00-0009-38.png,0004-00-0004-26.png
9,927,1,1.44536E+12,1.44536E+12,1067,279,0,0,0,5,1,4,51,0001-00-0000-48.png,0004-00-0002-12.png
9,928,1,1.44536E+12,1.44536E+12,1079,272,0,0,0,1,3,2,13,0004-00-0002-54.png,0003-00-0007-74.png
9,929,0,1.44536E+12,1.44536E+12,968,442,0,0,0,3,4,1,34,0003-00-0003-81.png,0005-00-0001-41.png
9,930,1,1.44536E+12,1.44536E+12,915,558,0,0,0,3,2,1,32,0003-00-0006-56.png,0002-00-0007-28.png
9,931,1,1.44536E+12,1.44536E+12,957,446,0,0,0,5,3,2,53,0001-00-0000-43.png,0003-00-0000-78.png
9,932,1,1.44536E+12,1.44536E+12,1080,291,0,0,0,4,3,1,43,0005-00-0002-52.png,0003-00-0006-85.png
9,933,0,1.44536E+12,1.44536E+12,511,265,0,0,0,4,5,1,45,0005-00-0001-95.png,0001-00-0007-01.png
9,934,1,1.44536E+12,1.44536E+12,920,496,0,0,0,1,2,1,12,0004-00-0006-07.png,0002-00-0004-09.png
9,935,0,1.44536E+12,1.44536E+12,912,493,0,0,0,1,5,4,15,0004-00-0001-04.png,0001-00-0006-89.png
9,936,0,1.44536E+12,1.44536E+12,881,409,0,0,0,1,3,2,13,0004-00-0008-59.png,0003-00-0008-56.png
9,937,0,1.44536E+12,1.44536E+12,900,358,0,0,0,3,5,2,35,0003-00-0009-60.png,0001-00-0009-91.png
9,938,0,1.44536E+12,1.44536E+12,506,293,0,0,0,1,3,2,13,0004-00-0009-60.png,0003-00-0008-48.png
9,939,1,1.44536E+12,1.44536E+12,921,493,0,0,0,5,4,1,54,0001-00-0001-14.png,0005-00-0001-14.png
9,940,0,1.44536E+12,1.44536E+12,1077,280,0,0,0,1,4,3,14,0004-00-0004-43.png,0005-00-0009-24.png
9,941,0,1.44536E+12,1.44536E+12,478,254,0,0,0,1,2,1,12,0004-00-0006-23.png,0002-00-0004-29.png
9,942,1,1.44536E+12,1.44536E+12,893,467,0,0,0,1,4,3,14,0004-00-0005-31.png,0005-00-0008-53.png
9,943,0,1.44536E+12,1.44536E+12,936,434,0,0,0,1,2,1,12,0004-00-0001-68.png,0002-00-0004-60.png
9,944,1,1.44536E+12,1.44536E+12,902,468,0,0,0,5,3,2,53,0001-00-0004-67.png,0003-00-0006-35.png
9,945,1,1.44536E+12,1.44536E+12,923,492,0,0,0,4,2,2,42,0005-00-0000-55.png,0002-00-0002-61.png
9,946,1,1.44536E+12,1.44536E+12,913,477,0,0,0,5,4,1,54,0001-00-0009-82.png,0005-00-0002-91.png
9,947,0,1.44536E+12,1.44536E+12,920,485,0,0,0,2,1,1,21,0002-00-0001-03.png,0004-00-0001-62.png
9,948,1,1.44536E+12,1.44536E+12,940,325,0,0,0,1,2,1,12,0004-00-0005-09.png,0002-00-0002-56.png
9,949,1,1.44536E+12,1.44536E+12,436,401,0,0,0,5,4,1,54,0001-00-0006-36.png,0005-00-0001-92.png
9,950,1,1.44536E+12,1.44536E+12,892,410,0,0,0,4,1,3,41,0005-00-0001-29.png,0004-00-0007-89.png
9,951,1,1.44536E+12,1.44536E+12,893,433,0,0,0,5,3,2,53,0001-00-0009-27.png,0003-00-0003-58.png
9,952,0,1.44536E+12,1.44536E+12,471,395,0,0,0,2,5,3,25,0002-00-0009-61.png,0001-00-0007-69.png
9,953,0,1.44536E+12,1.44536E+12,509,262,0,0,0,5,2,3,52,0001-00-0002-28.png,0002-00-0009-87.png
9,954,1,1.44536E+12,1.44536E+12,934,333,0,0,0,1,4,3,14,0004-00-0006-27.png,0005-00-0007-47.png
9,955,1,1.44536E+12,1.44536E+12,864,411,0,0,0,5,3,2,53,0001-00-0000-31.png,0003-00-0000-42.png
9,956,1,1.44536E+12,1.44536E+12,496,285,0,0,0,4,3,1,43,0005-00-0008-55.png,0003-00-0000-73.png
9,957,1,1.44536E+12,1.44536E+12,1052,282,0,0,0,5,1,4,51,0001-00-0009-48.png,0004-00-0000-36.png
9,958,0,1.44536E+12,1.44536E+12,959,447,0,0,0,3,5,2,35,0003-00-0008-52.png,0001-00-0006-94.png
9,959,1,1.44536E+12,1.44536E+12,1067,279,0,0,0,2,5,3,25,0002-00-0002-64.png,0001-00-0002-09.png
9,960,0,1.44536E+12,1.44536E+12,1056,266,0,0,0,2,4,2,24,0002-00-0009-91.png,0005-00-0005-40.png
9,961,1,1.44536E+12,1.44536E+12,888,436,0,0,0,5,1,4,51,0001-00-0009-02.png,0004-00-0005-38.png
9,962,0,1.44536E+12,1.44536E+12,1086,296,0,0,0,4,3,1,43,0005-00-0008-73.png,0003-00-0006-47.png
9,963,0,1.44536E+12,1.44536E+12,1035,269,0,0,0,1,5,4,15,0004-00-0008-38.png,0001-00-0007-94.png
9,964,1,1.44536E+12,1.44536E+12,333,384,0,0,0,3,5,2,35,0003-00-0002-10.png,0001-00-0001-23.png
9,965,1,1.44536E+12,1.44536E+12,897,462,0,0,0,2,5,3,25,0002-00-0001-55.png,0001-00-0007-68.png
9,966,0,1.44536E+12,1.44536E+12,347,372,0,0,0,2,3,1,23,0002-00-0005-98.png,0003-00-0001-76.png
9,967,0,1.44536E+12,1.44536E+12,905,444,0,0,0,4,5,1,45,0005-00-0008-55.png,0001-00-0000-95.png
9,968,0,1.44536E+12,1.44536E+12,1113,286,0,0,0,2,5,3,25,0002-00-0000-86.png,0001-00-0006-10.png
9,969,1,1.44536E+12,1.44536E+12,913,410,0,0,0,2,3,1,23,0002-00-0002-53.png,0003-00-0008-45.png
9,970,1,1.44536E+12,1.44536E+12,473,294,0,0,0,4,1,3,41,0005-00-0001-53.png,0004-00-0009-23.png
9,971,0,1.44536E+12,1.44536E+12,511,278,0,0,0,1,5,4,15,0004-00-0007-45.png,0001-00-0000-10.png
9,972,0,1.44536E+12,1.44536E+12,1092,289,0,0,0,2,4,2,24,0002-00-0009-95.png,0005-00-0001-17.png
9,973,1,1.44536E+12,1.44536E+12,935,336,0,0,0,4,5,1,45,0005-00-0009-96.png,0001-00-0006-02.png
9,974,0,1.44536E+12,1.44536E+12,520,239,0,0,0,1,3,2,13,0004-00-0004-36.png,0003-00-0003-70.png
9,975,1,1.44536E+12,1.44536E+12,939,491,0,0,0,3,2,1,32,0003-00-0001-10.png,0002-00-0000-29.png
9,976,0,1.44536E+12,1.44536E+12,958,424,0,0,0,3,4,1,34,0003-00-0007-21.png,0005-00-0005-71.png
9,977,0,1.44536E+12,1.44536E+12,910,423,0,0,0,3,5,2,35,0003-00-0002-88.png,0001-00-0003-41.png
9,978,1,1.44536E+12,1.44536E+12,919,325,0,0,0,3,5,2,35,0003-00-0007-14.png,0001-00-0000-94.png
9,979,1,1.44536E+12,1.44536E+12,467,294,0,0,0,5,2,3,52,0001-00-0003-62.png,0002-00-0005-44.png
9,980,1,1.44536E+12,1.44536E+12,913,447,0,0,0,2,5,3,25,0002-00-0007-01.png,0001-00-0007-88.png
9,981,1,1.44536E+12,1.44536E+12,913,436,0,0,0,2,1,1,21,0002-00-0009-85.png,0004-00-0005-08.png
9,982,1,1.44536E+12,1.44536E+12,943,427,0,0,0,2,1,1,21,0002-00-0005-53.png,0004-00-0008-46.png
9,983,1,1.44536E+12,1.44536E+12,948,326,0,0,0,4,1,3,41,0005-00-0007-01.png,0004-00-0006-52.png
9,984,0,1.44536E+12,1.44536E+12,910,411,0,0,0,2,4,2,24,0002-00-0007-21.png,0005-00-0007-66.png
9,985,1,1.44536E+12,1.44536E+12,1074,297,0,0,0,3,2,1,32,0003-00-0004-32.png,0002-00-0001-51.png
9,986,1,1.44536E+12,1.44536E+12,427,255,0,0,0,5,2,3,52,0001-00-0009-18.png,0002-00-0007-33.png
9,987,1,1.44536E+12,1.44536E+12,495,338,0,0,0,4,1,3,41,0005-00-0006-38.png,0004-00-0007-05.png
9,988,1,1.44536E+12,1.44536E+12,888,384,0,0,0,5,4,1,54,0001-00-0004-49.png,0005-00-0001-05.png
9,989,0,1.44536E+12,1.44536E+12,508,258,0,0,0,3,4,1,34,0003-00-0002-02.png,0005-00-0008-96.png
9,990,1,1.44536E+12,1.44536E+12,933,425,0,0,0,5,2,3,52,0001-00-0008-11.png,0002-00-0002-57.png
9,991,1,1.44536E+12,1.44536E+12,1086,296,0,0,0,5,2,3,52,0001-00-0008-38.png,0002-00-0004-72.png
9,992,0,1.44536E+12,1.44536E+12,895,552,0,0,0,2,3,1,23,0002-00-0002-24.png,0003-00-0009-66.png
9,993,1,1.44536E+12,1.44536E+12,1041,266,0,0,0,2,4,2,24,0002-00-0001-64.png,0005-00-0007-41.png
9,994,0,1.44536E+12,1.44536E+12,942,525,0,0,0,1,5,4,15,0004-00-0006-08.png,0001-00-0004-06.png
9,995,1,1.44536E+12,1.44536E+12,862,423,0,0,0,3,1,2,31,0003-00-0001-41.png,0004-00-0005-67.png
9,996,1,1.44536E+12,1.44536E+12,913,488,0,0,0,3,2,1,32,0003-00-0003-72.png,0002-00-0004-68.png
9,997,1,1.44536E+12,1.44536E+12,913,410,0,0,0,4,3,1,43,0005-00-0005-67.png,0003-00-0003-08.png
9,998,1,1.44536E+12,1.44536E+12,381,320,0,0,0,4,3,1,43,0005-00-0006-00.png,0003-00-0006-80.png
9,999,0,1.44536E+12,1.44536E+12,923,462,0,0,0,3,4,1,34,0003-00-0001-92.png,0005-00-0003-50.png
9,1000,0,1.44536E+12,1.44536E+12,876,436,0,0,0,2,5,3,25,0002-00-0005-21.png,0001-00-0007-67.png