subject_id,trial,correct_response,stim_time,response_time,x_coord,y_coord,trial_timeout,timeout_time,interTrial_timeout,left_rank,right_rank,distance,joint_rank,left_image,right_image
00000014,1,0,1445264508155,1445264509159,400,440,0,0,0,4,1,3,41,0005-00-0005-21.png,0004-00-0001-11.png
00000014,2,0,1445264512055,1445264512470,237,470,0,0,0,5,3,2,53,0001-00-0009-72.png,0003-00-0002-63.png
00000014,3,1,1445264515673,1445264516077,395,337,0,0,0,1,3,2,13,0004-00-0005-83.png,0003-00-0009-98.png
00000014,4,1,1445264517172,1445264517583,362,394,0,0,0,1,2,1,12,0004-00-0006-07.png,0002-00-0009-72.png
00000014,5,1,1445264518638,1445264519112,906,505,0,0,0,5,4,1,54,0001-00-0008-10.png,0005-00-0007-92.png
00000014,6,1,1445264520109,1445264520612,977,423,0,0,0,2,1,1,21,0002-00-0000-60.png,0004-00-0004-27.png
00000014,7,1,1445264521568,1445264521988,348,390,0,0,0,1,5,4,15,0004-00-0004-48.png,0001-00-0003-94.png
00000014,8,0,1445264522903,1445264523379,927,435,0,0,0,4,5,1,45,0005-00-0003-97.png,0001-00-0007-52.png
00000014,9,0,1445264526322,1445264526724,389,396,0,0,0,5,1,4,51,0001-00-0009-58.png,0004-00-0004-90.png
00000014,10,1,1445264529841,1445264530285,931,452,0,0,0,4,2,2,42,0005-00-0002-01.png,0002-00-0004-74.png
00000014,11,1,1445264531202,1445264531676,899,501,0,0,0,4,3,1,43,0005-00-0004-88.png,0003-00-0003-52.png
00000014,12,1,1445264532641,1445264533076,315,400,0,0,0,2,5,3,25,0002-00-0001-11.png,0001-00-0002-45.png
00000014,13,1,1445264534054,1445264534469,354,393,0,0,0,2,3,1,23,0002-00-0000-40.png,0003-00-0001-76.png
00000014,14,1,1445264535346,1445264535808,372,428,0,0,0,3,4,1,34,0003-00-0001-73.png,0005-00-0004-95.png
00000014,15,1,1445264536788,1445264537244,398,392,0,0,0,1,4,3,14,0004-00-0003-27.png,0005-00-0001-27.png
00000014,16,1,1445264538206,1445264538654,927,409,0,0,0,3,1,2,31,0003-00-0001-64.png,0004-00-0001-38.png
00000014,17,0,1445264539791,1445264540243,370,488,0,0,0,5,2,3,52,0001-00-0009-20.png,0002-00-0002-03.png
00000014,18,0,1445264543146,1445264543563,895,367,0,0,0,3,5,2,35,0003-00-0004-33.png,0001-00-0001-74.png
00000014,19,1,1445264546578,1445264547009,932,429,0,0,0,3,2,1,32,0003-00-0003-56.png,0002-00-0006-38.png
00000014,20,1,1445264547989,1445264548404,329,392,0,0,0,2,4,2,24,0002-00-0000-06.png,0005-00-0008-44.png
00000014,21,1,1445264549530,1445264549950,309,431,0,0,0,1,2,1,12,0004-00-0000-37.png,0002-00-0005-55.png
00000014,22,1,1445264550933,1445264551454,925,410,0,0,0,5,3,2,53,0001-00-0002-09.png,0003-00-0001-47.png
00000014,23,1,1445264552553,1445264553043,953,416,0,0,0,4,1,3,41,0005-00-0003-50.png,0004-00-0007-10.png
00000014,24,1,1445264554094,1445264554499,299,410,0,0,0,2,3,1,23,0002-00-0006-21.png,0003-00-0007-05.png
00000014,25,1,1445264555725,1445264556677,962,398,0,0,0,3,2,1,32,0003-00-0000-42.png,0002-00-0000-48.png
00000014,26,1,1445264557759,1445264558219,390,529,0,0,0,4,5,1,45,0005-00-0008-56.png,0001-00-0007-15.png
00000014,27,1,1445264559453,1445264559897,401,410,0,0,0,1,5,4,15,0004-00-0008-05.png,0001-00-0005-07.png
00000014,28,0,1445264560922,1445264561403,896,394,0,0,0,2,4,2,24,0002-00-0009-63.png,0005-00-0007-30.png
00000014,29,1,1445264565101,1445264565528,928,425,0,0,0,4,3,1,43,0005-00-0008-23.png,0003-00-0001-15.png
00000014,30,1,1445264566575,1445264567067,926,359,0,0,0,5,4,1,54,0001-00-0007-41.png,0005-00-0002-69.png
00000014,31,1,1445264568057,1445264568556,888,490,0,0,0,5,2,3,52,0001-00-0008-69.png,0002-00-0002-91.png
00000014,32,1,1445264569531,1445264570041,927,384,0,0,0,3,1,2,31,0003-00-0001-46.png,0004-00-0008-39.png
00000014,33,1,1445264571061,1445264571541,930,480,0,0,0,2,1,1,21,0002-00-0009-88.png,0004-00-0001-34.png
00000014,34,1,1445264572723,1445264573176,358,445,0,0,0,1,3,2,13,0004-00-0007-53.png,0003-00-0001-92.png
00000014,35,1,1445264574242,1445264574702,929,364,0,0,0,4,2,2,42,0005-00-0006-19.png,0002-00-0004-18.png
00000014,36,0,1445264575870,1445264576317,333,428,0,0,0,5,1,4,51,0001-00-0007-96.png,0004-00-0008-86.png
00000014,37,1,1445264579371,1445264579784,401,398,0,0,0,1,4,3,14,0004-00-0009-96.png,0005-00-0004-21.png
00000014,38,0,1445264580712,1445264581311,893,355,0,0,0,3,5,2,35,0003-00-0006-99.png,0001-00-0002-15.png
00000014,39,1,1445264584149,1445264584644,385,485,0,0,0,3,4,1,34,0003-00-0008-43.png,0005-00-0004-03.png
00000014,40,0,1445264585562,1445264586086,930,401,0,0,0,2,5,3,25,0002-00-0000-00.png,0001-00-0003-74.png
00000014,41,1,1445264589211,1445264589660,325,448,0,0,0,2,4,2,24,0002-00-0001-54.png,0005-00-0007-17.png
00000014,42,1,1445264590572,1445264591025,931,402,0,0,0,3,2,1,32,0003-00-0006-96.png,0002-00-0006-07.png
00000014,43,1,1445264592291,1445264592723,923,509,0,0,0,5,4,1,54,0001-00-0006-17.png,0005-00-0002-32.png
00000014,44,1,1445264593773,1445264594252,949,378,0,0,0,3,1,2,31,0003-00-0001-68.png,0004-00-0000-24.png
00000014,45,1,1445264595392,1445264595878,939,396,0,0,0,2,1,1,21,0002-00-0000-02.png,0004-00-0003-64.png
00000014,46,1,1445264597077,1445264597525,929,391,0,0,0,4,2,2,42,0005-00-0008-65.png,0002-00-0000-13.png
00000014,47,1,1445264598613,1445264599107,876,502,0,0,0,4,3,1,43,0005-00-0008-16.png,0003-00-0005-05.png
00000014,48,1,1445264600198,1445264600670,375,534,0,0,0,2,5,3,25,0002-00-0003-13.png,0001-00-0004-91.png
00000014,49,1,1445264601724,1445264602148,337,422,0,0,0,1,5,4,15,0004-00-0008-93.png,0001-00-0002-08.png
00000014,50,0,1445264603475,1445264603916,886,481,0,0,0,3,5,2,35,0003-00-0002-93.png,0001-00-0001-45.png
00000014,51,1,1445264606924,1445264607434,350,429,0,0,0,1,3,2,13,0004-00-0004-63.png,0003-00-0008-41.png
00000014,52,1,1445264608414,1445264608866,321,420,0,0,0,2,3,1,23,0002-00-0003-79.png,0003-00-0006-11.png
00000014,53,1,1445264609866,1445264610317,342,406,0,0,0,1,2,1,12,0004-00-0001-44.png,0002-00-0001-74.png
00000014,54,0,1445264611385,1445264611878,876,398,0,0,0,1,4,3,14,0004-00-0003-58.png,0005-00-0006-95.png
00000014,55,1,1445264614950,1445264615387,928,415,0,0,0,5,1,4,51,0001-00-0004-39.png,0004-00-0006-89.png
00000014,56,0,1445264616365,1445264616848,905,428,0,0,0,3,4,1,34,0003-00-0008-48.png,0005-00-0006-12.png
00000014,57,1,1445264619982,1445264620432,431,442,0,0,0,4,5,1,45,0005-00-0007-77.png,0001-00-0000-27.png
00000014,58,0,1445264621483,1445264621928,366,403,0,0,0,5,2,3,52,0001-00-0001-51.png,0002-00-0001-13.png
00000014,59,1,1445264625062,1445264625541,914,393,0,0,0,4,1,3,41,0005-00-0000-62.png,0004-00-0004-59.png
00000014,60,1,1445264626462,1445264626955,873,474,0,0,0,5,3,2,53,0001-00-0000-07.png,0003-00-0005-50.png
00000014,61,1,1445264627993,1445264628444,376,426,0,0,0,3,4,1,34,0003-00-0003-36.png,0005-00-0008-32.png
00000014,62,1,1445264629486,1445264629977,872,382,0,0,0,4,1,3,41,0005-00-0006-13.png,0004-00-0005-29.png
00000014,63,1,1445264630946,1445264631445,904,480,0,0,0,3,2,1,32,0003-00-0001-79.png,0002-00-0006-90.png
00000014,64,0,1445264632576,1445264633161,372,505,0,0,0,2,1,1,21,0002-00-0002-35.png,0004-00-0000-50.png
00000014,65,1,1445264636306,1445264636770,335,346,0,0,0,2,3,1,23,0002-00-0006-25.png,0003-00-0008-00.png
00000014,66,0,1445264637680,1445264638155,944,406,0,0,0,4,5,1,45,0005-00-0003-40.png,0001-00-0006-60.png
00000014,67,0,1445264641265,1445264641705,925,442,0,0,0,2,5,3,25,0002-00-0008-85.png,0001-00-0005-51.png
00000014,68,0,1445264644839,1445264645275,886,476,0,0,0,3,5,2,35,0003-00-0008-02.png,0001-00-0006-61.png
00000014,69,0,1445264648730,1445264649170,323,450,0,0,0,5,3,2,53,0001-00-0008-85.png,0003-00-0000-42.png
00000014,70,1,1445264652255,1445264652640,927,384,0,0,0,4,2,2,42,0005-00-0003-37.png,0002-00-0005-13.png
00000014,71,1,1445264653473,1445264654022,879,349,0,0,0,5,4,1,54,0001-00-0004-06.png,0005-00-0004-57.png
00000014,72,1,1445264655127,1445264655600,977,382,0,0,0,5,1,4,51,0001-00-0002-87.png,0004-00-0005-57.png
00000014,73,1,1445264656667,1445264657281,325,370,0,0,0,1,4,3,14,0004-00-0003-47.png,0005-00-0005-74.png
00000014,74,0,1445264658268,1445264658774,926,385,0,0,0,1,2,1,12,0004-00-0008-37.png,0002-00-0000-61.png
00000014,75,0,1445264661755,1445264662194,875,356,0,0,0,1,3,2,13,0004-00-0005-25.png,0003-00-0000-87.png
00000014,76,1,1445264665114,1445264665470,952,383,0,0,0,5,2,3,52,0001-00-0007-54.png,0002-00-0006-50.png
00000014,77,0,1445264666366,1445264666842,900,462,0,0,0,2,4,2,24,0002-00-0009-04.png,0005-00-0008-98.png
00000014,78,0,1445264670050,1445264670433,929,402,0,0,0,1,5,4,15,0004-00-0004-44.png,0001-00-0009-71.png
00000014,79,1,1445264673363,1445264673853,923,434,0,0,0,4,3,1,43,0005-00-0009-03.png,0003-00-0002-07.png
00000014,80,1,1445264674711,1445264675196,924,361,0,0,0,3,1,2,31,0003-00-0000-03.png,0004-00-0002-46.png
00000014,81,1,1445264676227,1445264676617,385,392,0,0,0,2,4,2,24,0002-00-0000-14.png,0005-00-0000-09.png
00000014,82,1,1445264677617,1445264678121,904,349,0,0,0,2,1,1,21,0002-00-0000-15.png,0004-00-0005-18.png
00000014,83,1,1445264679199,1445264679675,325,423,0,0,0,1,2,1,12,0004-00-0004-93.png,0002-00-0003-38.png
00000014,84,1,1445264680709,1445264681169,389,422,0,0,0,1,5,4,15,0004-00-0002-30.png,0001-00-0008-21.png
00000014,85,1,1445264682169,1445264682655,919,502,0,0,0,3,1,2,31,0003-00-0001-56.png,0004-00-0000-86.png
00000014,86,1,1445264683711,1445264684202,945,389,0,0,0,4,2,2,42,0005-00-0005-86.png,0002-00-0006-78.png
00000014,87,1,1445264685192,1445264685765,908,401,0,0,0,5,3,2,53,0001-00-0009-48.png,0003-00-0004-70.png
00000014,88,1,1445264686792,1445264687245,337,396,0,0,0,1,4,3,14,0004-00-0003-79.png,0005-00-0004-49.png
00000014,89,1,1445264688492,1445264688973,364,437,0,0,0,4,5,1,45,0005-00-0001-09.png,0001-00-0003-04.png
00000014,90,1,1445264690039,1445264690542,918,398,0,0,0,4,3,1,43,0005-00-0008-97.png,0003-00-0008-15.png
00000014,91,1,1445264691583,1445264692130,886,474,0,0,0,4,1,3,41,0005-00-0000-15.png,0004-00-0007-36.png
00000014,92,0,1445264693151,1445264693679,905,401,0,0,0,3,4,1,34,0003-00-0006-54.png,0005-00-0008-69.png
00000014,93,1,1445264696627,1445264697081,369,375,0,0,0,1,3,2,13,0004-00-0007-23.png,0003-00-0008-80.png
00000014,94,1,1445264698114,1445264698589,899,463,0,0,0,5,2,3,52,0001-00-0006-77.png,0002-00-0002-14.png
00000014,95,0,1445264699638,1445264700168,917,402,0,0,0,3,5,2,35,0003-00-0001-19.png,0001-00-0006-63.png
00000014,96,1,1445264703152,1445264703629,338,366,0,0,0,2,5,3,25,0002-00-0002-07.png,0001-00-0001-79.png
00000014,97,1,1445264704624,1445264705072,901,383,0,0,0,3,2,1,32,0003-00-0008-02.png,0002-00-0003-01.png
00000014,98,0,1445264706084,1445264706569,391,441,0,0,0,5,4,1,54,0001-00-0005-84.png,0005-00-0003-04.png
00000014,99,1,1445264709643,1445264710075,382,384,0,0,0,2,3,1,23,0002-00-0000-84.png,0003-00-0000-02.png
00000014,100,1,1445264711004,1445264711503,964,384,0,0,0,5,1,4,51,0001-00-0003-63.png,0004-00-0002-49.png
00000014,101,0,1445264712674,1445264713213,299,396,0,0,0,4,3,1,43,0005-00-0000-78.png,0003-00-0009-48.png
00000014,102,0,1445264716252,1445264716709,913,398,0,0,0,3,5,2,35,0003-00-0005-23.png,0001-00-0009-54.png
00000014,103,1,1445264719650,1445264720142,930,415,0,0,0,4,2,2,42,0005-00-0006-18.png,0002-00-0004-61.png
00000014,104,1,1445264721071,1445264721557,875,476,0,0,0,5,2,3,52,0001-00-0003-47.png,0002-00-0001-31.png
00000014,105,0,1445264722572,1445264723058,394,453,0,0,0,5,4,1,54,0001-00-0008-86.png,0005-00-0004-09.png
00000014,106,1,1445264726191,1445264726624,927,425,0,0,0,2,1,1,21,0002-00-0009-05.png,0004-00-0003-70.png
00000014,107,1,1445264727570,1445264728006,357,394,0,0,0,1,5,4,15,0004-00-0004-20.png,0001-00-0002-66.png
00000014,108,1,1445264729039,1445264729541,925,384,0,0,0,5,1,4,51,0001-00-0009-82.png,0004-00-0006-26.png
00000014,109,0,1445264730619,1445264731121,901,398,0,0,0,4,5,1,45,0005-00-0009-70.png,0001-00-0007-98.png
00000014,110,0,1445264734262,1445264734753,408,323,0,0,0,5,3,2,53,0001-00-0004-58.png,0003-00-0004-63.png
00000014,111,1,1445264737850,1445264738295,951,405,0,0,0,4,1,3,41,0005-00-0001-10.png,0004-00-0001-37.png
00000014,112,1,1445264739633,1445264740089,320,384,0,0,0,2,4,2,24,0002-00-0004-44.png,0005-00-0008-85.png
00000014,113,1,1445264741059,1445264741575,321,419,0,0,0,1,3,2,13,0004-00-0003-11.png,0003-00-0000-49.png
00000014,114,1,1445264742580,1445264743058,385,522,0,0,0,2,3,1,23,0002-00-0003-99.png,0003-00-0000-06.png
00000014,115,1,1445264744110,1445264744616,896,472,0,0,0,3,2,1,32,0003-00-0006-85.png,0002-00-0004-87.png
00000014,116,0,1445264745661,1445264746136,863,344,0,0,0,1,4,3,14,0004-00-0007-27.png,0005-00-0001-57.png
00000014,117,1,1445264749211,1445264749639,926,398,0,0,0,3,1,2,31,0003-00-0002-43.png,0004-00-0008-04.png
00000014,118,0,1445264750591,1445264751103,926,397,0,0,0,2,5,3,25,0002-00-0005-49.png,0001-00-0007-04.png
00000014,119,1,1445264754031,1445264754515,355,389,0,0,0,1,2,1,12,0004-00-0001-77.png,0002-00-0009-69.png
00000014,120,0,1445264755452,1445264755994,900,463,0,0,0,3,4,1,34,0003-00-0002-40.png,0005-00-0008-10.png
00000014,121,1,1445264758991,1445264759467,294,399,0,0,0,1,3,2,13,0004-00-0006-27.png,0003-00-0004-12.png
00000014,122,0,1445264760446,1445264760974,307,438,0,0,0,3,1,2,31,0003-00-0004-20.png,0004-00-0009-11.png
00000014,123,1,1445264763960,1445264764448,897,514,0,0,0,2,1,1,21,0002-00-0004-79.png,0004-00-0007-26.png
00000014,124,0,1445264765361,1445264765886,899,491,0,0,0,4,5,1,45,0005-00-0007-34.png,0001-00-0008-81.png
00000014,125,0,1445264769848,1445264770353,376,370,0,0,0,5,4,1,54,0001-00-0002-35.png,0005-00-0004-65.png
00000014,126,1,1445264773807,1445264774228,441,441,0,0,0,2,5,3,25,0002-00-0008-35.png,0001-00-0003-03.png
00000014,127,1,1445264775136,1445264775670,952,382,0,0,0,5,1,4,51,0001-00-0004-03.png,0004-00-0007-11.png
00000014,128,1,1445264776730,1445264777181,390,526,0,0,0,3,4,1,34,0003-00-0006-86.png,0005-00-0004-24.png
00000014,129,0,1445264778220,1445264778728,891,486,0,0,0,1,4,3,14,0004-00-0002-09.png,0005-00-0007-14.png
00000014,130,0,1445264781948,1445264782425,326,445,0,0,0,4,3,1,43,0005-00-0006-50.png,0003-00-0008-03.png
00000014,131,1,1445264785446,1445264785938,301,329,0,0,0,2,4,2,24,0002-00-0002-02.png,0005-00-0001-15.png
00000014,132,1,1445264786938,1445264787442,913,373,0,0,0,3,2,1,32,0003-00-0003-33.png,0002-00-0007-49.png
00000014,133,1,1445264788468,1445264788932,336,397,0,0,0,1,2,1,12,0004-00-0004-98.png,0002-00-0004-19.png
00000014,134,1,1445264789959,1445264790403,876,467,0,0,0,4,1,3,41,0005-00-0002-01.png,0004-00-0009-64.png
00000014,135,1,1445264791559,1445264791995,931,375,0,0,0,4,2,2,42,0005-00-0008-14.png,0002-00-0003-26.png
00000014,136,1,1445264793055,1445264793537,937,398,0,0,0,5,3,2,53,0001-00-0000-19.png,0003-00-0006-11.png
00000014,137,1,1445264794552,1445264794980,427,424,0,0,0,2,3,1,23,0002-00-0008-47.png,0003-00-0003-93.png
00000014,138,1,1445264795972,1445264796447,947,394,0,0,0,5,2,3,52,0001-00-0009-98.png,0002-00-0005-34.png
00000014,139,1,1445264797551,1445264797989,336,396,0,0,0,3,5,2,35,0003-00-0004-13.png,0001-00-0007-29.png
00000014,140,0,1445264799173,1445264799604,940,371,0,0,0,1,5,4,15,0004-00-0001-16.png,0001-00-0004-44.png
00000014,141,1,1445264802730,1445264803143,329,341,0,0,0,1,4,3,14,0004-00-0007-02.png,0005-00-0005-20.png
00000014,142,0,1445264804073,1445264804554,401,425,0,0,0,5,3,2,53,0001-00-0003-89.png,0003-00-0004-74.png
00000014,143,0,1445264807519,1445264807998,336,379,0,0,0,5,4,1,54,0001-00-0000-84.png,0005-00-0006-48.png
00000014,144,0,1445264810836,1445264811354,877,464,0,0,0,1,5,4,15,0004-00-0002-11.png,0001-00-0004-39.png
00000014,145,1,1445264814329,1445264814790,875,475,0,0,0,3,1,2,31,0003-00-0009-68.png,0004-00-0006-90.png
00000014,146,1,1445264815694,1445264816154,312,383,0,0,0,2,3,1,23,0002-00-0001-20.png,0003-00-0006-33.png
00000014,147,1,1445264817110,1445264817636,350,424,0,0,0,2,5,3,25,0002-00-0001-83.png,0001-00-0002-46.png
00000014,148,0,1445264818731,1445264819295,937,372,0,0,0,1,2,1,12,0004-00-0002-29.png,0002-00-0007-45.png
00000014,149,1,1445264822169,1445264822643,911,372,0,0,0,4,3,1,43,0005-00-0008-15.png,0003-00-0009-61.png
00000014,150,0,1445264823600,1445264824073,312,423,0,0,0,2,1,1,21,0002-00-0000-26.png,0004-00-0008-48.png
00000014,151,1,1445264827218,1445264827595,901,359,0,0,0,3,2,1,32,0003-00-0003-11.png,0002-00-0003-05.png
00000014,152,1,1445264828509,1445264829039,901,410,0,0,0,4,2,2,42,0005-00-0000-55.png,0002-00-0009-68.png
00000014,153,1,1445264829991,1445264830477,923,379,0,0,0,4,1,3,41,0005-00-0003-85.png,0004-00-0003-70.png
00000014,154,0,1445264831471,1445264831973,901,410,0,0,0,3,4,1,34,0003-00-0001-34.png,0005-00-0001-06.png
00000014,155,0,1445264835042,1445264835493,918,438,0,0,0,4,5,1,45,0005-00-0001-80.png,0001-00-0009-55.png
00000014,156,0,1445264838378,1445264838803,341,336,0,0,0,5,2,3,52,0001-00-0008-26.png,0002-00-0005-61.png
00000014,157,1,1445264841677,1445264842142,356,467,0,0,0,2,4,2,24,0002-00-0008-04.png,0005-00-0007-30.png
00000014,158,1,1445264843019,1445264843525,929,400,0,0,0,5,1,4,51,0001-00-0009-72.png,0004-00-0001-76.png
00000014,159,1,1445264844450,1445264844895,366,414,0,0,0,1,3,2,13,0004-00-0003-33.png,0003-00-0003-34.png
00000014,160,1,1445264845993,1445264846475,344,400,0,0,0,3,5,2,35,0003-00-0003-64.png,0001-00-0009-92.png
00000014,161,1,1445264847542,1445264848009,951,384,0,0,0,5,3,2,53,0001-00-0008-22.png,0003-00-0006-14.png
00000014,162,1,1445264849012,1445264849444,350,384,0,0,0,1,2,1,12,0004-00-0004-94.png,0002-00-0003-96.png
00000014,163,1,1445264850502,1445264851003,892,487,0,0,0,5,2,3,52,0001-00-0008-61.png,0002-00-0009-20.png
00000014,164,0,1445264851983,1445264852490,911,398,0,0,0,4,5,1,45,0005-00-0009-57.png,0001-00-0002-35.png
00000014,165,0,1445264855511,1445264855920,357,393,0,0,0,4,3,1,43,0005-00-0005-95.png,0003-00-0006-89.png
00000014,166,1,1445264858982,1445264859414,363,450,0,0,0,1,3,2,13,0004-00-0006-23.png,0003-00-0004-43.png
00000014,167,1,1445264860312,1445264860842,883,474,0,0,0,5,4,1,54,0001-00-0001-63.png,0005-00-0008-84.png
00000014,168,1,1445264861821,1445264862288,892,482,0,0,0,3,2,1,32,0003-00-0001-54.png,0002-00-0005-01.png
00000014,169,1,1445264863529,1445264864027,899,464,0,0,0,4,2,2,42,0005-00-0000-29.png,0002-00-0003-53.png
00000014,170,0,1445264865056,1445264865491,318,401,0,0,0,2,1,1,21,0002-00-0002-21.png,0004-00-0002-70.png
00000014,171,0,1445264868481,1445264868896,926,384,0,0,0,2,5,3,25,0002-00-0006-68.png,0001-00-0007-67.png
00000014,172,1,1445264871800,1445264872224,945,389,0,0,0,3,1,2,31,0003-00-0003-22.png,0004-00-0009-31.png
00000014,173,0,1445264873111,1445264873565,888,332,0,0,0,3,5,2,35,0003-00-0002-62.png,0001-00-0000-96.png
00000014,174,1,1445264876591,1445264877063,376,384,0,0,0,3,4,1,34,0003-00-0002-46.png,0005-00-0009-86.png
00000014,175,1,1445264877974,1445264878426,294,385,0,0,0,2,3,1,23,0002-00-0001-01.png,0003-00-0001-60.png
00000014,176,1,1445264879592,1445264880069,916,413,0,0,0,5,1,4,51,0001-00-0009-08.png,0004-00-0008-62.png
00000014,177,1,1445264881083,1445264881542,311,423,0,0,0,1,4,3,14,0004-00-0003-89.png,0005-00-0002-00.png
00000014,178,1,1445264882565,1445264883008,325,408,0,0,0,2,4,2,24,0002-00-0003-32.png,0005-00-0000-10.png
00000014,179,1,1445264884105,1445264884582,926,377,0,0,0,4,1,3,41,0005-00-0007-76.png,0004-00-0007-48.png
00000014,180,0,1445264885585,1445264886118,905,375,0,0,0,1,5,4,15,0004-00-0001-38.png,0001-00-0001-06.png
00000014,181,1,1445264889064,1445264889449,950,386,0,0,0,5,2,3,52,0001-00-0008-33.png,0002-00-0003-02.png
00000014,182,1,1445264890466,1445264890897,273,423,0,0,0,2,4,2,24,0002-00-0004-67.png,0005-00-0003-75.png
00000014,183,1,1445264891935,1445264892383,315,415,0,0,0,1,5,4,15,0004-00-0004-64.png,0001-00-0000-14.png
00000014,184,0,1445264893426,1445264893891,906,401,0,0,0,2,3,1,23,0002-00-0003-22.png,0003-00-0005-69.png
00000014,185,1,1445264896905,1445264897349,376,397,0,0,0,2,5,3,25,0002-00-0000-09.png,0001-00-0001-95.png
00000014,186,0,1445264898317,1445264898811,928,391,0,0,0,1,4,3,14,0004-00-0003-88.png,0005-00-0002-19.png
00000014,187,1,1445264901836,1445264902194,391,390,0,0,0,4,5,1,45,0005-00-0000-73.png,0001-00-0007-89.png
00000014,188,1,1445264903158,1445264903606,915,393,0,0,0,4,1,3,41,0005-00-0003-72.png,0004-00-0004-35.png
00000014,189,0,1445264904698,1445264905200,359,465,0,0,0,4,3,1,43,0005-00-0009-93.png,0003-00-0001-84.png
00000014,190,1,1445264908247,1445264908708,937,398,0,0,0,4,2,2,42,0005-00-0000-50.png,0002-00-0004-73.png
00000014,191,1,1445264909602,1445264910121,941,387,0,0,0,2,1,1,21,0002-00-0006-79.png,0004-00-0008-36.png
00000014,192,0,1445264911130,1445264911635,924,404,0,0,0,3,5,2,35,0003-00-0004-99.png,0001-00-0001-90.png
00000014,193,1,1445264914634,1445264915079,899,456,0,0,0,3,2,1,32,0003-00-0008-72.png,0002-00-0000-04.png
00000014,194,1,1445264916056,1445264916570,901,398,0,0,0,5,4,1,54,0001-00-0007-55.png,0005-00-0006-12.png
00000014,195,1,1445264917518,1445264917945,391,506,0,0,0,1,3,2,13,0004-00-0009-12.png,0003-00-0007-47.png
00000014,196,1,1445264918909,1445264919543,304,402,0,0,0,1,2,1,12,0004-00-0001-23.png,0002-00-0005-71.png
00000014,197,1,1445264920629,1445264921010,388,423,0,0,0,3,4,1,34,0003-00-0008-43.png,0005-00-0002-03.png
00000014,198,1,1445264922020,1445264922529,926,411,0,0,0,3,1,2,31,0003-00-0007-53.png,0004-00-0008-18.png
00000014,199,1,1445264923599,1445264924116,945,407,0,0,0,5,1,4,51,0001-00-0000-50.png,0004-00-0009-74.png
00000014,200,0,1445264925221,1445264925660,418,426,0,0,0,5,3,2,53,0001-00-0000-85.png,0003-00-0001-55.png
00000014,201,0,1445264928760,1445264929189,392,376,0,0,0,5,4,1,54,0001-00-0006-81.png,0005-00-0004-19.png
00000014,202,0,1445264932255,1445264932688,923,388,0,0,0,4,5,1,45,0005-00-0008-18.png,0001-00-0000-95.png
00000014,203,0,1445264935764,1445264936131,925,384,0,0,0,3,4,1,34,0003-00-0007-98.png,0005-00-0003-22.png
00000014,204,1,1445264939255,1445264939659,898,466,0,0,0,4,2,2,42,0005-00-0003-21.png,0002-00-0007-25.png
00000014,205,1,1445264940635,1445264941152,900,461,0,0,0,4,1,3,41,0005-00-0005-19.png,0004-00-0009-97.png
00000014,206,1,1445264942065,1445264942571,925,386,0,0,0,5,2,3,52,0001-00-0000-31.png,0002-00-0004-54.png
00000014,207,1,1445264943556,1445264944022,353,403,0,0,0,1,3,2,13,0004-00-0003-76.png,0003-00-0006-41.png
00000014,208,1,1445264945126,1445264945601,903,391,0,0,0,4,3,1,43,0005-00-0003-98.png,0003-00-0006-85.png
00000014,209,0,1445264946588,1445264947104,913,423,0,0,0,2,3,1,23,0002-00-0003-80.png,0003-00-0006-38.png
00000014,210,1,1445264950265,1445264950749,329,397,0,0,0,2,4,2,24,0002-00-0006-26.png,0005-00-0009-63.png
00000014,211,1,1445264951706,1445264952181,900,385,0,0,0,5,1,4,51,0001-00-0008-69.png,0004-00-0001-42.png
00000014,212,0,1445264953146,1445264953640,921,394,0,0,0,3,5,2,35,0003-00-0000-83.png,0001-00-0006-59.png
00000014,213,1,1445264956585,1445264957104,385,450,0,0,0,1,2,1,12,0004-00-0002-57.png,0002-00-0009-30.png
00000014,214,1,1445264958056,1445264958520,315,403,0,0,0,1,4,3,14,0004-00-0001-29.png,0005-00-0009-52.png
00000014,215,1,1445264959527,1445264960019,872,485,0,0,0,3,2,1,32,0003-00-0006-27.png,0002-00-0001-64.png
00000014,216,0,1445264961066,1445264961541,427,435,0,0,0,2,1,1,21,0002-00-0000-12.png,0004-00-0008-06.png
00000014,217,1,1445264964633,1445264965042,881,474,0,0,0,5,3,2,53,0001-00-0004-69.png,0003-00-0007-74.png
00000014,218,1,1445264965986,1445264966456,923,378,0,0,0,3,1,2,31,0003-00-0005-13.png,0004-00-0005-25.png
00000014,219,1,1445264967416,1445264967883,350,439,0,0,0,1,5,4,15,0004-00-0008-77.png,0001-00-0009-77.png
00000014,220,1,1445264968979,1445264969466,337,441,0,0,0,2,5,3,25,0002-00-0002-65.png,0001-00-0006-93.png
00000014,221,1,1445264970588,1445264971044,905,401,0,0,0,3,2,1,32,0003-00-0001-72.png,0002-00-0000-76.png
00000014,222,1,1445264972148,1445264972654,400,486,0,0,0,3,5,2,35,0003-00-0000-62.png,0001-00-0002-16.png
00000014,223,1,1445264973816,1445264974309,902,434,0,0,0,4,2,2,42,0005-00-0007-70.png,0002-00-0007-73.png
00000014,224,1,1445264975370,1445264975864,860,503,0,0,0,5,4,1,54,0001-00-0007-15.png,0005-00-0008-03.png
00000014,225,1,1445264976928,1445264977491,876,436,0,0,0,4,1,3,41,0005-00-0005-24.png,0004-00-0009-97.png
00000014,226,1,1445264978606,1445264979123,926,398,0,0,0,5,3,2,53,0001-00-0004-68.png,0003-00-0002-82.png
00000014,227,0,1445264980176,1445264980685,888,422,0,0,0,1,5,4,15,0004-00-0009-23.png,0001-00-0002-23.png
00000014,228,0,1445264983768,1445264984242,870,524,0,0,0,1,2,1,12,0004-00-0001-41.png,0002-00-0008-25.png
00000014,229,0,1445264987393,1445264987938,360,468,0,0,0,5,2,3,52,0001-00-0005-68.png,0002-00-0006-81.png
00000014,230,0,1445264990983,1445264991446,928,390,0,0,0,2,5,3,25,0002-00-0001-93.png,0001-00-0005-38.png
00000014,231,0,1445264994318,1445264994630,871,425,0,0,0,1,4,3,14,0004-00-0007-00.png,0005-00-0007-62.png
00000014,232,1,1445264997701,1445264998170,339,472,0,0,0,2,4,2,24,0002-00-0008-57.png,0005-00-0002-42.png
00000014,233,0,1445264999082,1445264999645,913,397,0,0,0,2,3,1,23,0002-00-0004-36.png,0003-00-0000-74.png
00000014,234,0,1445265002740,1445265003284,909,460,0,0,0,1,3,2,13,0004-00-0003-78.png,0003-00-0001-44.png
00000014,235,1,1445265006143,1445265006629,325,413,0,0,0,4,5,1,45,0005-00-0009-45.png,0001-00-0007-01.png
00000014,236,1,1445265007564,1445265008071,902,467,0,0,0,2,1,1,21,0002-00-0008-29.png,0004-00-0006-58.png
00000014,237,1,1445265009041,1445265009571,896,498,0,0,0,3,1,2,31,0003-00-0002-06.png,0004-00-0003-01.png
00000014,238,1,1445265010521,1445265010976,415,423,0,0,0,3,4,1,34,0003-00-0007-54.png,0005-00-0002-35.png
00000014,239,1,1445265012061,1445265012555,913,388,0,0,0,5,1,4,51,0001-00-0007-53.png,0004-00-0001-08.png
00000014,240,1,1445265013502,1445265013974,905,375,0,0,0,4,3,1,43,0005-00-0006-48.png,0003-00-0008-14.png
00000014,241,0,1445265015059,1445265015493,336,422,0,0,0,5,3,2,53,0001-00-0000-30.png,0003-00-0007-12.png
00000014,242,1,1445265018482,1445265018966,399,414,0,0,0,2,5,3,25,0002-00-0002-24.png,0001-00-0005-55.png
00000014,243,1,1445265019840,1445265020356,947,394,0,0,0,4,2,2,42,0005-00-0003-60.png,0002-00-0008-81.png
00000014,244,1,1445265021308,1445265021776,901,434,0,0,0,4,1,3,41,0005-00-0005-36.png,0004-00-0007-12.png
00000014,245,0,1445265022714,1445265023197,401,462,0,0,0,2,1,1,21,0002-00-0004-16.png,0004-00-0005-12.png
00000014,246,1,1445265026253,1445265026703,933,401,0,0,0,5,1,4,51,0001-00-0009-61.png,0004-00-0001-93.png
00000014,247,1,1445265027612,1445265028137,283,397,0,0,0,1,2,1,12,0004-00-0009-27.png,0002-00-0000-33.png
00000014,248,0,1445265029133,1445265029572,299,410,0,0,0,5,4,1,54,0001-00-0001-06.png,0005-00-0000-63.png
00000014,249,1,1445265032691,1445265033134,390,409,0,0,0,1,4,3,14,0004-00-0000-04.png,0005-00-0004-11.png
00000014,250,0,1445265034093,1445265034587,885,499,0,0,0,4,5,1,45,0005-00-0009-33.png,0001-00-0001-90.png
00000014,251,1,1445265037870,1445265038288,874,502,0,0,0,3,2,1,32,0003-00-0000-99.png,0002-00-0008-79.png
00000014,252,1,1445265039240,1445265039678,310,418,0,0,0,1,5,4,15,0004-00-0007-53.png,0001-00-0003-94.png
00000014,253,1,1445265040601,1445265041087,338,435,0,0,0,1,3,2,13,0004-00-0008-14.png,0003-00-0004-17.png
00000014,254,1,1445265042054,1445265042486,364,417,0,0,0,3,4,1,34,0003-00-0004-97.png,0005-00-0001-89.png
00000014,255,1,1445265043484,1445265044000,944,441,0,0,0,5,2,3,52,0001-00-0009-16.png,0002-00-0002-09.png
00000014,256,1,1445265045015,1445265045473,445,435,0,0,0,2,3,1,23,0002-00-0007-99.png,0003-00-0000-54.png
00000014,257,1,1445265046486,1445265047001,907,421,0,0,0,4,3,1,43,0005-00-0001-65.png,0003-00-0009-07.png
00000014,258,1,1445265048005,1445265048517,880,427,0,0,0,3,1,2,31,0003-00-0009-60.png,0004-00-0006-47.png
00000014,259,0,1445265049794,1445265050312,862,489,0,0,0,3,5,2,35,0003-00-0009-56.png,0001-00-0001-87.png
00000014,260,1,1445265053572,1445265054014,318,425,0,0,0,2,4,2,24,0002-00-0007-15.png,0005-00-0004-98.png
00000014,261,0,1445265054984,1445265055428,329,405,0,0,0,2,1,1,21,0002-00-0007-89.png,0004-00-0003-16.png
00000014,262,1,1445265058260,1445265058673,414,398,0,0,0,2,3,1,23,0002-00-0004-96.png,0003-00-0006-89.png
00000014,263,1,1445265059634,1445265060167,920,416,0,0,0,4,2,2,42,0005-00-0000-29.png,0002-00-0005-28.png
00000014,264,1,1445265061174,1445265061669,354,468,0,0,0,4,5,1,45,0005-00-0004-29.png,0001-00-0004-24.png
00000014,265,1,1445265062715,1445265063139,418,428,0,0,0,1,5,4,15,0004-00-0003-36.png,0001-00-0004-03.png
00000014,266,1,1445265064236,1445265064656,414,436,0,0,0,1,4,3,14,0004-00-0005-79.png,0005-00-0009-46.png
00000014,267,1,1445265065707,1445265066233,912,424,0,0,0,3,1,2,31,0003-00-0005-58.png,0004-00-0003-22.png
00000014,268,1,1445265067217,1445265067616,395,427,0,0,0,2,4,2,24,0002-00-0003-99.png,0005-00-0006-35.png
00000014,269,1,1445265068828,1445265069344,927,435,0,0,0,3,2,1,32,0003-00-0009-65.png,0002-00-0008-75.png
00000014,270,0,1445265070378,1445265070973,888,449,0,0,0,3,4,1,34,0003-00-0002-90.png,0005-00-0008-04.png
00000014,271,0,1445265073829,1445265074275,395,514,0,0,0,5,3,2,53,0001-00-0004-37.png,0003-00-0007-75.png
00000014,272,1,1445265077375,1445265077770,963,398,0,0,0,5,1,4,51,0001-00-0004-12.png,0004-00-0002-41.png
00000014,273,1,1445265078745,1445265079220,372,443,0,0,0,1,3,2,13,0004-00-0003-19.png,0003-00-0005-73.png
00000014,274,1,1445265080186,1445265080681,316,468,0,0,0,3,5,2,35,0003-00-0000-60.png,0001-00-0000-47.png
00000014,275,1,1445265081648,1445265082196,875,514,0,0,0,5,4,1,54,0001-00-0007-34.png,0005-00-0000-72.png
00000014,276,0,1445265083197,1445265083775,868,451,0,0,0,2,5,3,25,0002-00-0007-37.png,0001-00-0007-35.png
00000014,277,1,1445265086676,1445265087120,898,509,0,0,0,5,2,3,52,0001-00-0009-82.png,0002-00-0008-96.png
00000014,278,1,1445265088056,1445265088572,862,374,0,0,0,4,1,3,41,0005-00-0005-09.png,0004-00-0008-31.png
00000014,279,1,1445265089628,1445265090151,401,410,0,0,0,1,2,1,12,0004-00-0004-23.png,0002-00-0001-31.png
00000014,280,0,1445265091088,1445265091620,395,414,0,0,0,4,3,1,43,0005-00-0000-53.png,0003-00-0007-29.png
00000014,281,0,1445265094663,1445265095082,427,462,0,0,0,4,1,3,41,0005-00-0003-40.png,0004-00-0003-16.png
00000014,282,0,1445265097922,1445265098404,908,445,0,0,0,3,5,2,35,0003-00-0004-62.png,0001-00-0009-56.png
00000014,283,0,1445265101393,1445265101886,436,510,0,0,0,4,3,1,43,0005-00-0009-38.png,0003-00-0002-47.png
00000014,284,0,1445265104992,1445265105444,905,419,0,0,0,2,5,3,25,0002-00-0002-43.png,0001-00-0004-82.png
00000014,285,1,1445265108600,1445265109070,343,461,0,0,0,2,4,2,24,0002-00-0009-30.png,0005-00-0006-72.png
00000014,286,1,1445265110051,1445265110557,883,489,0,0,0,5,2,3,52,0001-00-0002-70.png,0002-00-0004-94.png
00000014,287,1,1445265111451,1445265111957,926,413,0,0,0,3,2,1,32,0003-00-0003-25.png,0002-00-0000-72.png
00000014,288,1,1445265113053,1445265114049,921,490,0,0,0,3,1,2,31,0003-00-0008-58.png,0004-00-0007-92.png
00000014,289,0,1445265115120,1445265115512,409,427,0,0,0,5,3,2,53,0001-00-0007-04.png,0003-00-0001-72.png
00000014,290,0,1445265118639,1445265119028,926,411,0,0,0,1,4,3,14,0004-00-0001-54.png,0005-00-0004-11.png
00000014,291,1,1445265122039,1445265122452,325,346,0,0,0,2,3,1,23,0002-00-0007-44.png,0003-00-0004-16.png
00000014,292,0,1445265123385,1445265123895,870,472,0,0,0,1,2,1,12,0004-00-0008-28.png,0002-00-0007-63.png
00000014,293,1,1445265126916,1445265127347,401,436,0,0,0,1,5,4,15,0004-00-0002-67.png,0001-00-0004-33.png
00000014,294,0,1445265128237,1445265128720,926,397,0,0,0,4,5,1,45,0005-00-0001-66.png,0001-00-0008-15.png
00000014,295,0,1445265131657,1445265132179,318,410,0,0,0,5,1,4,51,0001-00-0007-92.png,0004-00-0005-07.png
00000014,296,1,1445265135254,1445265135739,901,358,0,0,0,4,2,2,42,0005-00-0002-33.png,0002-00-0004-44.png
00000014,297,1,1445265136655,1445265137151,926,385,0,0,0,2,1,1,21,0002-00-0009-36.png,0004-00-0005-58.png
00000014,298,0,1445265138075,1445265138573,905,401,0,0,0,3,4,1,34,0003-00-0002-36.png,0005-00-0003-72.png
00000014,299,1,1445265141663,1445265142162,350,332,0,0,0,1,3,2,13,0004-00-0008-74.png,0003-00-0003-41.png
00000014,300,0,1445265143146,1445265143688,312,361,0,0,0,5,4,1,54,0001-00-0009-24.png,0005-00-0005-64.png
00000014,301,1,1445265146734,1445265147224,315,391,0,0,0,1,5,4,15,0004-00-0000-22.png,0001-00-0005-44.png
00000014,302,1,1445265148175,1445265148586,391,397,0,0,0,4,5,1,45,0005-00-0004-79.png,0001-00-0007-39.png
00000014,303,0,1445265149596,1445265150118,427,410,0,0,0,4,3,1,43,0005-00-0009-21.png,0003-00-0009-84.png
00000014,304,1,1445265153103,1445265153583,266,401,0,0,0,2,4,2,24,0002-00-0008-18.png,0005-00-0002-17.png
00000014,305,0,1445265154463,1445265155008,895,441,0,0,0,3,5,2,35,0003-00-0000-29.png,0001-00-0001-52.png
00000014,306,1,1445265158142,1445265158538,909,474,0,0,0,4,1,3,41,0005-00-0008-33.png,0004-00-0006-27.png
00000014,307,1,1445265159404,1445265159845,893,482,0,0,0,3,1,2,31,0003-00-0009-20.png,0004-00-0006-23.png
00000014,308,1,1445265161112,1445265161686,364,476,0,0,0,2,5,3,25,0002-00-0004-89.png,0001-00-0006-31.png
00000014,309,0,1445265162693,1445265163198,925,411,0,0,0,1,2,1,12,0004-00-0000-02.png,0002-00-0007-46.png
00000014,310,1,1445265166233,1445265166724,376,436,0,0,0,3,4,1,34,0003-00-0000-44.png,0005-00-0006-87.png
00000014,311,1,1445265167673,1445265168166,923,418,0,0,0,4,2,2,42,0005-00-0000-99.png,0002-00-0007-21.png
00000014,312,1,1445265169154,1445265169649,873,507,0,0,0,5,2,3,52,0001-00-0009-45.png,0002-00-0000-26.png
00000014,313,1,1445265170716,1445265171171,307,444,0,0,0,2,3,1,23,0002-00-0001-32.png,0003-00-0001-40.png
00000014,314,0,1445265172234,1445265172670,299,449,0,0,0,5,1,4,51,0001-00-0003-82.png,0004-00-0008-01.png
00000014,315,1,1445265175540,1445265176031,875,488,0,0,0,5,4,1,54,0001-00-0004-30.png,0005-00-0003-49.png
00000014,316,1,1445265176893,1445265177376,911,451,0,0,0,2,1,1,21,0002-00-0003-42.png,0004-00-0002-96.png
00000014,317,1,1445265178513,1445265178950,299,436,0,0,0,1,4,3,14,0004-00-0008-21.png,0005-00-0003-29.png
00000014,318,1,1445265179947,1445265180489,876,435,0,0,0,5,3,2,53,0001-00-0009-35.png,0003-00-0009-91.png
00000014,319,1,1445265181445,1445265181897,363,410,0,0,0,1,3,2,13,0004-00-0005-70.png,0003-00-0008-86.png
00000014,320,0,1445265183016,1445265183445,376,410,0,0,0,3,2,1,32,0003-00-0003-85.png,0002-00-0008-30.png
00000014,321,1,1445265186544,1445265187081,324,384,0,0,0,3,5,2,35,0003-00-0000-20.png,0001-00-0004-59.png
00000014,322,1,1445265188140,1445265188600,381,441,0,0,0,2,4,2,24,0002-00-0009-90.png,0005-00-0005-98.png
00000014,323,1,1445265189754,1445265190195,315,440,0,0,0,1,4,3,14,0004-00-0001-15.png,0005-00-0006-77.png
00000014,324,1,1445265191157,1445265191620,901,424,0,0,0,3,2,1,32,0003-00-0004-20.png,0002-00-0000-77.png
00000014,325,1,1445265192648,1445265193146,896,524,0,0,0,5,1,4,51,0001-00-0005-43.png,0004-00-0000-13.png
00000014,326,1,1445265194207,1445265194694,876,519,0,0,0,5,2,3,52,0001-00-0002-73.png,0002-00-0002-47.png
00000014,327,1,1445265195689,1445265196202,399,460,0,0,0,1,5,4,15,0004-00-0007-22.png,0001-00-0003-87.png
00000014,328,0,1445265197311,1445265197863,443,389,0,0,0,4,3,1,43,0005-00-0009-19.png,0003-00-0006-52.png
00000014,329,1,1445265200736,1445265201159,381,420,0,0,0,2,3,1,23,0002-00-0007-01.png,0003-00-0008-08.png
00000014,330,1,1445265202127,1445265202550,319,437,0,0,0,4,5,1,45,0005-00-0005-41.png,0001-00-0008-37.png
00000014,331,1,1445265203562,1445265204054,911,424,0,0,0,2,1,1,21,0002-00-0008-39.png,0004-00-0008-13.png
00000014,332,1,1445265205170,1445265205648,343,452,0,0,0,2,5,3,25,0002-00-0003-00.png,0001-00-0008-70.png
00000014,333,0,1445265206721,1445265207184,900,437,0,0,0,1,2,1,12,0004-00-0002-57.png,0002-00-0003-86.png
00000014,334,0,1445265210128,1445265210172,504,413,0,0,0,4,2,2,42,0005-00-0002-17.png,0002-00-0003-50.png
00000014,335,0,1445265213569,1445265214032,902,442,0,0,0,3,4,1,34,0003-00-0007-90.png,0005-00-0003-94.png
00000014,336,1,1445265217066,1445265217588,324,341,0,0,0,1,3,2,13,0004-00-0008-92.png,0003-00-0003-63.png
00000014,337,1,1445265218547,1445265219145,900,383,0,0,0,5,4,1,54,0001-00-0005-02.png,0005-00-0008-70.png
00000014,338,0,1445265220148,1445265220590,356,436,0,0,0,5,3,2,53,0001-00-0005-07.png,0003-00-0006-38.png
00000014,339,1,1445265223654,1445265224108,877,495,0,0,0,4,1,3,41,0005-00-0002-77.png,0004-00-0005-86.png
00000014,340,1,1445265224974,1445265225474,926,409,0,0,0,3,1,2,31,0003-00-0009-13.png,0004-00-0002-17.png
00000014,341,1,1445265226466,1445265226921,372,461,0,0,0,2,5,3,25,0002-00-0005-59.png,0001-00-0004-75.png
00000014,342,1,1445265228023,1445265228562,900,426,0,0,0,4,3,1,43,0005-00-0005-07.png,0003-00-0009-03.png
00000014,343,0,1445265229547,1445265230033,401,448,0,0,0,5,4,1,54,0001-00-0003-90.png,0005-00-0004-81.png
00000014,344,0,1445265233176,1445265233641,883,500,0,0,0,1,2,1,12,0004-00-0005-36.png,0002-00-0005-79.png
00000014,345,1,1445265236653,1445265237190,363,502,0,0,0,1,5,4,15,0004-00-0002-86.png,0001-00-0009-36.png
00000014,346,1,1445265238084,1445265238567,926,386,0,0,0,4,1,3,41,0005-00-0001-99.png,0004-00-0002-43.png
00000014,347,1,1445265239556,1445265240018,912,398,0,0,0,4,2,2,42,0005-00-0001-00.png,0002-00-0001-74.png
00000014,348,1,1445265241031,1445265241633,871,394,0,0,0,5,1,4,51,0001-00-0001-14.png,0004-00-0005-60.png
00000014,349,1,1445265242625,1445265243130,916,411,0,0,0,3,2,1,32,0003-00-0001-06.png,0002-00-0005-65.png
00000014,350,1,1445265244144,1445265244521,376,423,0,0,0,1,3,2,13,0004-00-0006-23.png,0003-00-0007-53.png
00000014,351,1,1445265245645,1445265246649,952,414,0,0,0,2,1,1,21,0002-00-0009-75.png,0004-00-0000-20.png
00000014,352,1,1445265247792,1445265248309,901,424,0,0,0,3,1,2,31,0003-00-0009-79.png,0004-00-0004-89.png
00000014,353,0,1445265249340,1445265249858,900,435,0,0,0,3,5,2,35,0003-00-0007-23.png,0001-00-0007-84.png
00000014,354,0,1445265252961,1445265253416,901,435,0,0,0,2,3,1,23,0002-00-0002-28.png,0003-00-0003-80.png
00000014,355,0,1445265256498,1445265256883,928,412,0,0,0,3,4,1,34,0003-00-0000-81.png,0005-00-0000-78.png
00000014,356,1,1445265259787,1445265260282,317,394,0,0,0,1,4,3,14,0004-00-0009-72.png,0005-00-0001-45.png
00000014,357,1,1445265261196,1445265261679,368,452,0,0,0,2,4,2,24,0002-00-0002-73.png,0005-00-0009-09.png
00000014,358,1,1445265262639,1445265263164,899,438,0,0,0,5,2,3,52,0001-00-0009-17.png,0002-00-0001-31.png
00000014,359,1,1445265264566,1445265264993,895,427,0,0,0,5,3,2,53,0001-00-0006-25.png,0003-00-0003-70.png
00000014,360,0,1445265266008,1445265266492,892,444,0,0,0,4,5,1,45,0005-00-0006-49.png,0001-00-0002-58.png
00000014,361,1,1445265269487,1445265270013,884,498,0,0,0,5,2,3,52,0001-00-0007-83.png,0002-00-0005-35.png
00000014,362,1,1445265270967,1445265271415,408,420,0,0,0,1,3,2,13,0004-00-0005-14.png,0003-00-0004-24.png
00000014,363,1,1445265272359,1445265272887,890,426,0,0,0,3,2,1,32,0003-00-0007-17.png,0002-00-0002-81.png
00000014,364,1,1445265273959,1445265274454,916,415,0,0,0,4,2,2,42,0005-00-0009-28.png,0002-00-0009-79.png
00000014,365,1,1445265275471,1445265275880,335,410,0,0,0,1,2,1,12,0004-00-0007-41.png,0002-00-0002-81.png
00000014,366,1,1445265277140,1445265277631,901,398,0,0,0,4,1,3,41,0005-00-0003-45.png,0004-00-0004-34.png
00000014,367,1,1445265278649,1445265279213,872,456,0,0,0,4,3,1,43,0005-00-0002-55.png,0003-00-0002-37.png
00000014,368,1,1445265280229,1445265280728,919,405,0,0,0,2,1,1,21,0002-00-0008-23.png,0004-00-0009-62.png
00000014,369,1,1445265281761,1445265282326,350,449,0,0,0,3,4,1,34,0003-00-0005-03.png,0005-00-0001-74.png
00000014,370,1,1445265283450,1445265283891,401,436,0,0,0,1,5,4,15,0004-00-0004-81.png,0001-00-0008-72.png
00000014,371,1,1445265284871,1445265285368,869,455,0,0,0,5,3,2,53,0001-00-0009-48.png,0003-00-0006-55.png
00000014,372,1,1445265286548,1445265286955,401,449,0,0,0,3,5,2,35,0003-00-0005-34.png,0001-00-0005-16.png
00000014,373,0,1445265287963,1445265288420,438,429,0,0,0,5,4,1,54,0001-00-0006-02.png,0005-00-0002-01.png
00000014,374,1,1445265291655,1445265292127,283,431,0,0,0,1,4,3,14,0004-00-0002-48.png,0005-00-0002-71.png
00000014,375,1,1445265293136,1445265293615,343,481,0,0,0,4,5,1,45,0005-00-0003-53.png,0001-00-0005-63.png
00000014,376,1,1445265294623,1445265295154,877,439,0,0,0,3,1,2,31,0003-00-0000-00.png,0004-00-0004-01.png
00000014,377,1,1445265296183,1445265296621,338,449,0,0,0,2,5,3,25,0002-00-0003-48.png,0001-00-0005-26.png
00000014,378,1,1445265297644,1445265298060,367,441,0,0,0,2,4,2,24,0002-00-0000-20.png,0005-00-0009-70.png
00000014,379,1,1445265299335,1445265299862,900,422,0,0,0,5,1,4,51,0001-00-0005-10.png,0004-00-0003-27.png
00000014,380,1,1445265300936,1445265301341,325,423,0,0,0,2,3,1,23,0002-00-0005-76.png,0003-00-0000-83.png
00000014,381,1,1445265302497,1445265302971,413,398,0,0,0,1,2,1,12,0004-00-0007-30.png,0002-00-0006-54.png
00000014,382,1,1445265304196,1445265304671,294,434,0,0,0,1,5,4,15,0004-00-0008-42.png,0001-00-0007-33.png
00000014,383,0,1445265305687,1445265306389,398,365,0,0,0,5,3,2,53,0001-00-0000-13.png,0003-00-0004-64.png
00000014,384,1,1445265309450,1445265309882,376,384,0,0,0,2,5,3,25,0002-00-0003-33.png,0001-00-0008-87.png
00000014,385,1,1445265310967,1445265311456,401,422,0,0,0,2,4,2,24,0002-00-0004-91.png,0005-00-0004-10.png
00000014,386,1,1445265312483,1445265312945,371,430,0,0,0,2,3,1,23,0002-00-0002-25.png,0003-00-0001-53.png
00000014,387,1,1445265313976,1445265314475,901,410,0,0,0,5,2,3,52,0001-00-0006-25.png,0002-00-0002-53.png
00000014,388,1,1445265315556,1445265316025,394,463,0,0,0,1,4,3,14,0004-00-0009-89.png,0005-00-0007-98.png
00000014,389,0,1445265317214,1445265317654,388,446,0,0,0,5,1,4,51,0001-00-0009-71.png,0004-00-0002-27.png
00000014,390,0,1445265320806,1445265321273,312,423,0,0,0,5,4,1,54,0001-00-0009-45.png,0005-00-0007-19.png
00000014,391,1,1445265324111,1445265324549,899,480,0,0,0,3,1,2,31,0003-00-0006-10.png,0004-00-0008-74.png
00000014,392,0,1445265325473,1445265326003,903,445,0,0,0,4,5,1,45,0005-00-0005-17.png,0001-00-0003-21.png
00000014,393,0,1445265328921,1445265329386,444,444,0,0,0,4,3,1,43,0005-00-0000-95.png,0003-00-0007-17.png
00000014,394,0,1445265332517,1445265332977,343,388,0,0,0,4,1,3,41,0005-00-0004-28.png,0004-00-0008-95.png
00000014,395,1,1445265336055,1445265336480,362,346,0,0,0,1,3,2,13,0004-00-0004-79.png,0003-00-0004-44.png
00000014,396,1,1445265337346,1445265337864,925,387,0,0,0,2,1,1,21,0002-00-0006-30.png,0004-00-0009-48.png
00000014,397,0,1445265338926,1445265339392,902,414,0,0,0,3,5,2,35,0003-00-0001-72.png,0001-00-0009-34.png
00000014,398,1,1445265342556,1445265342954,926,411,0,0,0,3,2,1,32,0003-00-0009-20.png,0002-00-0007-93.png
00000014,399,1,1445265343878,1445265344377,927,417,0,0,0,4,2,2,42,0005-00-0007-61.png,0002-00-0004-69.png
00000014,400,0,1445265345346,1445265345844,867,417,0,0,0,3,4,1,34,0003-00-0000-53.png,0005-00-0003-40.png
00000014,401,0,1445265348937,1445265349448,897,463,0,0,0,3,5,2,35,0003-00-0000-50.png,0001-00-0001-93.png
00000014,402,0,1445265352283,1445265352723,925,389,0,0,0,3,4,1,34,0003-00-0002-47.png,0005-00-0007-75.png
00000014,403,1,1445265355582,1445265356081,385,468,0,0,0,1,5,4,15,0004-00-0002-13.png,0001-00-0006-48.png
00000014,404,1,1445265356993,1445265357429,319,447,0,0,0,1,4,3,14,0004-00-0001-25.png,0005-00-0006-72.png
00000014,405,1,1445265358396,1445265358842,350,423,0,0,0,2,3,1,23,0002-00-0003-07.png,0003-00-0003-50.png
00000014,406,0,1445265359799,1445265360347,875,410,0,0,0,2,4,2,24,0002-00-0007-83.png,0005-00-0008-41.png
00000014,407,1,1445265363176,1445265363643,951,360,0,0,0,3,1,2,31,0003-00-0009-61.png,0004-00-0002-25.png
00000014,408,1,1445265364605,1445265365049,901,409,0,0,0,4,2,2,42,0005-00-0004-85.png,0002-00-0000-15.png
00000014,409,1,1445265366058,1445265366583,925,411,0,0,0,5,2,3,52,0001-00-0001-55.png,0002-00-0006-46.png
00000014,410,1,1445265367668,1445265368150,900,436,0,0,0,4,3,1,43,0005-00-0001-27.png,0003-00-0007-18.png
00000014,411,1,1445265369140,1445265369654,904,418,0,0,0,4,1,3,41,0005-00-0009-36.png,0004-00-0005-19.png
00000014,412,0,1445265370740,1445265371201,393,454,0,0,0,5,4,1,54,0001-00-0006-97.png,0005-00-0009-61.png
00000014,413,0,1445265374139,1445265374606,951,385,0,0,0,1,2,1,12,0004-00-0002-78.png,0002-00-0008-48.png
00000014,414,1,1445265377697,1445265378110,930,401,0,0,0,3,2,1,32,0003-00-0003-53.png,0002-00-0006-32.png
00000014,415,0,1445265379107,1445265379574,335,465,0,0,0,5,3,2,53,0001-00-0001-77.png,0003-00-0002-15.png
00000014,416,0,1445265382587,1445265383031,310,394,0,0,0,2,1,1,21,0002-00-0007-93.png,0004-00-0008-07.png
00000014,417,1,1445265386880,1445265387362,366,518,0,0,0,1,3,2,13,0004-00-0000-12.png,0003-00-0002-97.png
00000014,418,1,1445265388271,1445265388844,329,357,0,0,0,2,5,3,25,0002-00-0002-90.png,0001-00-0007-17.png
00000014,419,0,1445265389872,1445265390268,401,464,0,0,0,5,1,4,51,0001-00-0005-11.png,0004-00-0003-16.png
00000014,420,0,1445265393369,1445265393771,906,410,0,0,0,4,5,1,45,0005-00-0004-95.png,0001-00-0002-94.png
00000014,421,1,1445265396738,1445265397222,373,412,0,0,0,3,4,1,34,0003-00-0005-33.png,0005-00-0001-33.png
00000014,422,0,1445265398567,1445265398994,925,422,0,0,0,4,5,1,45,0005-00-0008-65.png,0001-00-0003-28.png
00000014,423,1,1445265402314,1445265402757,914,409,0,0,0,4,1,3,41,0005-00-0000-43.png,0004-00-0007-66.png
00000014,424,0,1445265403703,1445265404293,384,521,0,0,0,4,3,1,43,0005-00-0003-56.png,0003-00-0008-01.png
00000014,425,0,1445265407273,1445265407783,414,492,0,0,0,5,3,2,53,0001-00-0005-86.png,0003-00-0007-34.png
00000014,426,1,1445265410648,1445265411049,366,520,0,0,0,2,3,1,23,0002-00-0006-26.png,0003-00-0008-06.png
00000014,427,1,1445265412051,1445265412557,926,410,0,0,0,3,1,2,31,0003-00-0008-66.png,0004-00-0005-05.png
00000014,428,1,1445265413572,1445265414099,889,414,0,0,0,3,2,1,32,0003-00-0009-21.png,0002-00-0004-63.png
00000014,429,1,1445265415082,1445265415593,342,463,0,0,0,1,2,1,12,0004-00-0008-29.png,0002-00-0004-45.png
00000014,430,1,1445265416645,1445265417168,930,401,0,0,0,2,1,1,21,0002-00-0003-79.png,0004-00-0009-55.png
00000014,431,1,1445265418423,1445265418892,924,405,0,0,0,5,1,4,51,0001-00-0001-79.png,0004-00-0006-20.png
00000014,432,1,1445265419813,1445265420236,438,450,0,0,0,1,3,2,13,0004-00-0003-71.png,0003-00-0001-74.png
00000014,433,1,1445265421235,1445265421747,401,411,0,0,0,1,5,4,15,0004-00-0003-76.png,0001-00-0005-00.png
00000014,434,1,1445265422836,1445265423284,879,402,0,0,0,5,4,1,54,0001-00-0002-87.png,0005-00-0007-02.png
00000014,435,0,1445265424272,1445265424714,392,415,0,0,0,5,2,3,52,0001-00-0004-07.png,0002-00-0006-81.png
00000014,436,1,1445265427825,1445265428347,355,369,0,0,0,2,4,2,24,0002-00-0001-00.png,0005-00-0000-48.png
00000014,437,1,1445265429333,1445265429793,894,462,0,0,0,4,2,2,42,0005-00-0007-81.png,0002-00-0005-17.png
00000014,438,1,1445265430905,1445265431379,376,436,0,0,0,1,4,3,14,0004-00-0008-17.png,0005-00-0009-63.png
00000014,439,0,1445265432343,1445265432863,875,449,0,0,0,3,5,2,35,0003-00-0006-33.png,0001-00-0003-50.png
00000014,440,1,1445265435919,1445265436411,350,358,0,0,0,2,5,3,25,0002-00-0002-76.png,0001-00-0001-81.png
00000014,441,1,1445265437372,1445265437847,870,498,0,0,0,4,2,2,42,0005-00-0009-43.png,0002-00-0001-70.png
00000014,442,0,1445265438824,1445265439315,368,433,0,0,0,4,3,1,43,0005-00-0002-06.png,0003-00-0001-11.png
00000014,443,0,1445265442263,1445265442748,878,549,0,0,0,1,5,4,15,0004-00-0002-09.png,0001-00-0002-21.png
00000014,444,1,1445265445654,1445265446094,331,383,0,0,0,2,5,3,25,0002-00-0006-20.png,0001-00-0007-51.png
00000014,445,1,1445265447011,1445265447501,879,427,0,0,0,5,3,2,53,0001-00-0008-26.png,0003-00-0004-46.png
00000014,446,0,1445265448474,1445265448976,324,473,0,0,0,5,4,1,54,0001-00-0002-69.png,0005-00-0002-08.png
00000014,447,1,1445265451982,1445265452426,889,475,0,0,0,3,2,1,32,0003-00-0006-18.png,0002-00-0008-04.png
00000014,448,1,1445265453392,1445265453919,925,411,0,0,0,3,1,2,31,0003-00-0009-31.png,0004-00-0009-39.png
00000014,449,1,1445265454882,1445265455389,922,420,0,0,0,2,1,1,21,0002-00-0005-52.png,0004-00-0002-56.png
00000014,450,1,1445265456464,1445265456911,340,410,0,0,0,1,3,2,13,0004-00-0007-27.png,0003-00-0009-53.png
00000014,451,1,1445265457964,1445265458365,344,410,0,0,0,1,2,1,12,0004-00-0008-48.png,0002-00-0006-43.png
00000014,452,1,1445265459466,1445265459977,344,436,0,0,0,1,4,3,14,0004-00-0000-10.png,0005-00-0002-76.png
00000014,453,0,1445265460957,1445265461457,901,435,0,0,0,3,5,2,35,0003-00-0009-42.png,0001-00-0003-97.png
00000014,454,1,1445265464503,1445265465031,879,481,0,0,0,5,1,4,51,0001-00-0004-64.png,0004-00-0006-79.png
00000014,455,1,1445265466081,1445265466588,926,424,0,0,0,4,1,3,41,0005-00-0009-96.png,0004-00-0000-28.png
00000014,456,1,1445265467583,1445265468085,401,450,0,0,0,4,5,1,45,0005-00-0003-79.png,0001-00-0005-28.png
00000014,457,1,1445265469105,1445265469629,901,424,0,0,0,5,2,3,52,0001-00-0003-30.png,0002-00-0004-51.png
00000014,458,1,1445265470607,1445265471012,382,524,0,0,0,2,4,2,24,0002-00-0007-46.png,0005-00-0003-57.png
00000014,459,1,1445265472217,1445265472799,432,423,0,0,0,3,4,1,34,0003-00-0003-87.png,0005-00-0001-13.png
00000014,460,1,1445265473826,1445265474286,409,419,0,0,0,2,3,1,23,0002-00-0004-97.png,0003-00-0005-62.png
00000014,461,1,1445265475378,1445265475840,325,423,0,0,0,1,4,3,14,0004-00-0006-69.png,0005-00-0006-00.png
00000014,462,1,1445265477047,1445265477568,877,417,0,0,0,2,1,1,21,0002-00-0000-87.png,0004-00-0002-37.png
00000014,463,1,1445265478606,1445265479101,341,457,0,0,0,2,4,2,24,0002-00-0004-12.png,0005-00-0009-53.png
00000014,464,1,1445265480175,1445265480651,873,456,0,0,0,4,3,1,43,0005-00-0004-93.png,0003-00-0003-33.png
00000014,465,0,1445265481686,1445265482658,926,423,0,0,0,3,5,2,35,0003-00-0007-77.png,0001-00-0007-45.png
00000014,466,1,1445265485643,1445265486106,306,420,0,0,0,1,3,2,13,0004-00-0000-89.png,0003-00-0001-63.png
00000014,467,0,1445265487142,1445265487603,335,456,0,0,0,5,4,1,54,0001-00-0008-17.png,0005-00-0008-57.png
00000014,468,1,1445265490701,1445265491110,393,428,0,0,0,3,4,1,34,0003-00-0009-42.png,0005-00-0004-61.png
00000014,469,0,1445265491990,1445265492550,336,418,0,0,0,5,3,2,53,0001-00-0007-69.png,0003-00-0006-10.png
00000014,470,1,1445265495490,1445265495951,401,424,0,0,0,1,5,4,15,0004-00-0000-25.png,0001-00-0003-26.png
00000014,471,1,1445265496840,1445265497285,401,449,0,0,0,2,3,1,23,0002-00-0003-16.png,0003-00-0001-75.png
00000014,472,0,1445265498490,1445265498976,902,416,0,0,0,4,5,1,45,0005-00-0003-99.png,0001-00-0008-01.png
00000014,473,0,1445265502129,1445265502573,337,423,0,0,0,4,1,3,41,0005-00-0002-54.png,0004-00-0009-57.png
00000014,474,1,1445265505528,1445265505960,930,403,0,0,0,5,1,4,51,0001-00-0006-90.png,0004-00-0005-28.png
00000014,475,1,1445265506998,1445265507451,900,397,0,0,0,5,2,3,52,0001-00-0005-44.png,0002-00-0005-52.png
00000014,476,1,1445265508420,1445265508895,411,423,0,0,0,2,5,3,25,0002-00-0002-12.png,0001-00-0006-80.png
00000014,477,1,1445265509942,1445265510421,870,524,0,0,0,4,2,2,42,0005-00-0004-51.png,0002-00-0002-89.png
00000014,478,1,1445265511620,1445265512103,401,423,0,0,0,1,2,1,12,0004-00-0004-11.png,0002-00-0009-17.png
00000014,479,1,1445265513142,1445265513599,903,410,0,0,0,3,1,2,31,0003-00-0006-77.png,0004-00-0008-18.png
00000014,480,1,1445265514601,1445265515098,912,420,0,0,0,3,2,1,32,0003-00-0000-94.png,0002-00-0005-45.png
00000014,481,0,1445265516223,1445265517225,914,383,0,0,0,3,4,1,34,0003-00-0008-05.png,0005-00-0006-59.png
00000014,482,1,1445265520398,1445265520830,901,398,0,0,0,4,2,2,42,0005-00-0007-88.png,0002-00-0009-43.png
00000014,483,1,1445265521758,1445265522212,345,461,0,0,0,1,3,2,13,0004-00-0005-83.png,0003-00-0008-91.png
00000014,484,1,1445265523250,1445265523729,923,410,0,0,0,5,2,3,52,0001-00-0009-14.png,0002-00-0005-79.png
00000014,485,0,1445265524729,1445265525180,318,426,0,0,0,5,4,1,54,0001-00-0006-72.png,0005-00-0001-24.png
00000014,486,1,1445265528187,1445265528632,902,469,0,0,0,5,1,4,51,0001-00-0009-46.png,0004-00-0001-45.png
00000014,487,1,1445265529572,1445265530524,875,424,0,0,0,4,3,1,43,0005-00-0002-71.png,0003-00-0007-20.png
00000014,488,1,1445265531506,1445265531977,414,429,0,0,0,1,5,4,15,0004-00-0005-65.png,0001-00-0000-35.png
00000014,489,0,1445265533078,1445265533632,325,473,0,0,0,2,1,1,21,0002-00-0000-75.png,0004-00-0003-01.png
00000014,490,0,1445265536615,1445265537159,947,466,0,0,0,3,5,2,35,0003-00-0009-47.png,0001-00-0008-55.png
00000014,491,0,1445265540077,1445265540470,332,378,0,0,0,5,3,2,53,0001-00-0000-74.png,0003-00-0008-91.png
00000014,492,1,1445265543931,1445265544372,875,513,0,0,0,3,1,2,31,0003-00-0000-62.png,0004-00-0005-79.png
00000014,493,1,1445265545291,1445265545795,384,551,0,0,0,2,5,3,25,0002-00-0006-36.png,0001-00-0006-02.png
00000014,494,1,1445265546774,1445265547233,374,410,0,0,0,2,3,1,23,0002-00-0002-83.png,0003-00-0005-43.png
00000014,495,1,1445265548383,1445265548864,912,413,0,0,0,3,2,1,32,0003-00-0001-64.png,0002-00-0004-83.png
00000014,496,1,1445265549863,1445265550427,317,398,0,0,0,2,4,2,24,0002-00-0000-35.png,0005-00-0007-14.png
00000014,497,1,1445265551584,1445265552128,873,484,0,0,0,4,1,3,41,0005-00-0006-29.png,0004-00-0008-32.png
00000014,498,0,1445265553123,1445265553601,877,391,0,0,0,4,5,1,45,0005-00-0009-91.png,0001-00-0003-87.png
00000014,499,0,1445265556593,1445265557082,888,398,0,0,0,1,2,1,12,0004-00-0002-66.png,0002-00-0004-02.png
00000014,500,1,1445265560264,1445265560783,405,519,0,0,0,1,4,3,14,0004-00-0007-71.png,0005-00-0009-06.png
00000014,501,1,1445265561730,1445265562205,888,502,0,0,0,3,2,1,32,0003-00-0007-91.png,0002-00-0004-53.png
00000014,502,1,1445265563248,1445265563688,332,444,0,0,0,2,4,2,24,0002-00-0009-95.png,0005-00-0009-70.png
00000014,503,1,1445265564901,1445265565393,903,414,0,0,0,4,1,3,41,0005-00-0004-44.png,0004-00-0006-56.png
00000014,504,1,1445265566382,1445265566863,901,424,0,0,0,5,2,3,52,0001-00-0003-06.png,0002-00-0000-54.png
00000014,505,1,1445265567893,1445265568435,388,415,0,0,0,1,4,3,14,0004-00-0002-47.png,0005-00-0007-86.png
00000014,506,1,1445265569593,1445265570004,414,423,0,0,0,2,3,1,23,0002-00-0000-80.png,0003-00-0004-61.png
00000014,507,0,1445265571065,1445265571567,868,509,0,0,0,4,5,1,45,0005-00-0008-48.png,0001-00-0005-66.png
00000014,508,0,1445265574414,1445265574873,414,424,0,0,0,5,3,2,53,0001-00-0003-63.png,0003-00-0004-88.png
00000014,509,1,1445265577931,1445265578488,910,464,0,0,0,5,4,1,54,0001-00-0002-31.png,0005-00-0006-41.png
00000014,510,1,1445265579719,1445265580213,878,415,0,0,0,4,3,1,43,0005-00-0008-25.png,0003-00-0000-77.png
00000014,511,0,1445265581139,1445265581684,900,423,0,0,0,3,4,1,34,0003-00-0002-09.png,0005-00-0003-71.png
00000014,512,1,1445265584788,1445265585220,292,408,0,0,0,1,3,2,13,0004-00-0005-61.png,0003-00-0004-86.png
00000014,513,1,1445265586179,1445265586678,943,443,0,0,0,2,1,1,21,0002-00-0004-20.png,0004-00-0007-41.png
00000014,514,1,1445265587619,1445265588168,363,446,0,0,0,3,5,2,35,0003-00-0000-51.png,0001-00-0006-05.png
00000014,515,1,1445265589149,1445265589573,312,449,0,0,0,2,5,3,25,0002-00-0005-76.png,0001-00-0006-26.png
00000014,516,1,1445265590711,1445265591195,926,411,0,0,0,3,1,2,31,0003-00-0002-08.png,0004-00-0008-36.png
00000014,517,1,1445265592178,1445265592666,925,412,0,0,0,4,2,2,42,0005-00-0003-01.png,0002-00-0004-37.png
00000014,518,1,1445265593810,1445265594250,347,423,0,0,0,1,5,4,15,0004-00-0008-68.png,0001-00-0003-70.png
00000014,519,1,1445265595321,1445265595690,395,443,0,0,0,1,2,1,12,0004-00-0005-65.png,0002-00-0008-37.png
00000014,520,1,1445265596814,1445265597765,926,410,0,0,0,5,1,4,51,0001-00-0008-02.png,0004-00-0008-85.png
00000014,521,1,1445265598801,1445265599330,905,427,0,0,0,3,2,1,32,0003-00-0007-67.png,0002-00-0004-41.png
00000014,522,1,1445265600390,1445265600874,892,509,0,0,0,2,1,1,21,0002-00-0002-43.png,0004-00-0008-93.png
00000014,523,1,1445265602069,1445265602525,412,450,0,0,0,2,3,1,23,0002-00-0008-88.png,0003-00-0006-45.png
00000014,524,1,1445265603789,1445265604358,898,393,0,0,0,5,1,4,51,0001-00-0008-30.png,0004-00-0008-69.png
00000014,525,0,1445265605460,1445265605956,911,424,0,0,0,3,5,2,35,0003-00-0005-83.png,0001-00-0004-26.png
00000014,526,1,1445265608989,1445265609434,925,437,0,0,0,4,2,2,42,0005-00-0009-58.png,0002-00-0003-57.png
00000014,527,1,1445265610407,1445265610890,390,422,0,0,0,1,2,1,12,0004-00-0000-93.png,0002-00-0002-82.png
00000014,528,0,1445265611851,1445265612299,414,450,0,0,0,4,3,1,43,0005-00-0006-94.png,0003-00-0007-26.png
00000014,529,0,1445265615208,1445265615667,927,408,0,0,0,2,5,3,25,0002-00-0002-50.png,0001-00-0002-69.png
00000014,530,1,1445265618616,1445265618640,519,422,0,0,0,4,5,1,45,0005-00-0006-28.png,0001-00-0000-61.png
00000014,531,1,1445265619648,1445265620066,313,435,0,0,0,2,4,2,24,0002-00-0004-37.png,0005-00-0002-55.png
00000014,532,1,1445265621112,1445265621618,912,500,0,0,0,4,1,3,41,0005-00-0002-56.png,0004-00-0006-27.png
00000014,533,0,1445265622624,1445265623087,339,450,0,0,0,5,4,1,54,0001-00-0003-41.png,0005-00-0007-31.png
00000014,534,1,1445265625953,1445265626427,901,410,0,0,0,5,2,3,52,0001-00-0006-88.png,0002-00-0001-83.png
00000014,535,0,1445265627353,1445265627840,896,420,0,0,0,3,4,1,34,0003-00-0002-03.png,0005-00-0007-62.png
00000014,536,0,1445265630862,1445265631312,952,408,0,0,0,1,5,4,15,0004-00-0001-84.png,0001-00-0009-34.png
00000014,537,1,1445265634290,1445265634781,300,430,0,0,0,1,3,2,13,0004-00-0009-77.png,0003-00-0008-11.png
00000014,538,1,1445265635630,1445265636118,401,421,0,0,0,1,4,3,14,0004-00-0001-98.png,0005-00-0001-85.png
00000014,539,1,1445265637231,1445265637711,901,423,0,0,0,3,1,2,31,0003-00-0004-06.png,0004-00-0004-38.png
00000014,540,1,1445265638671,1445265639197,904,401,0,0,0,5,3,2,53,0001-00-0004-20.png,0003-00-0002-80.png
00000014,541,0,1445265640195,1445265640698,870,524,0,0,0,3,5,2,35,0003-00-0003-20.png,0001-00-0003-83.png
00000014,542,1,1445265643560,1445265643995,931,402,0,0,0,5,1,4,51,0001-00-0000-88.png,0004-00-0002-80.png
00000014,543,1,1445265644885,1445265645388,918,416,0,0,0,4,1,3,41,0005-00-0008-34.png,0004-00-0008-18.png
00000014,544,1,1445265646456,1445265646929,896,419,0,0,0,3,2,1,32,0003-00-0002-34.png,0002-00-0000-00.png
00000014,545,1,1445265647907,1445265648374,325,414,0,0,0,1,2,1,12,0004-00-0003-33.png,0002-00-0006-27.png
00000014,546,1,1445265649528,1445265650467,376,424,0,0,0,2,3,1,23,0002-00-0005-64.png,0003-00-0006-21.png
00000014,547,1,1445265651553,1445265652008,339,452,0,0,0,1,3,2,13,0004-00-0006-26.png,0003-00-0007-68.png
00000014,548,0,1445265653074,1445265653681,360,420,0,0,0,2,1,1,21,0002-00-0000-19.png,0004-00-0003-54.png
00000014,549,1,1445265656522,1445265656997,364,522,0,0,0,4,5,1,45,0005-00-0007-60.png,0001-00-0009-95.png
00000014,550,0,1445265658192,1445265658683,438,554,0,0,0,5,3,2,53,0001-00-0005-90.png,0003-00-0006-12.png
00000014,551,0,1445265661739,1445265662226,902,422,0,0,0,1,5,4,15,0004-00-0009-73.png,0001-00-0000-34.png
00000014,552,1,1445265665216,1445265665712,928,439,0,0,0,3,1,2,31,0003-00-0005-16.png,0004-00-0004-21.png
00000014,553,0,1445265666721,1445265667226,891,440,0,0,0,2,5,3,25,0002-00-0005-42.png,0001-00-0008-59.png
00000014,554,0,1445265670317,1445265670784,888,397,0,0,0,3,4,1,34,0003-00-0002-20.png,0005-00-0004-12.png
00000014,555,1,1445265673835,1445265674271,926,410,0,0,0,5,2,3,52,0001-00-0000-61.png,0002-00-0000-04.png
00000014,556,1,1445265675124,1445265675614,441,550,0,0,0,1,4,3,14,0004-00-0001-65.png,0005-00-0003-18.png
00000014,557,1,1445265676609,1445265677067,417,442,0,0,0,2,4,2,24,0002-00-0008-70.png,0005-00-0004-47.png
00000014,558,1,1445265678158,1445265678645,912,398,0,0,0,4,2,2,42,0005-00-0008-64.png,0002-00-0006-52.png
00000014,559,0,1445265679612,1445265680086,411,454,0,0,0,5,4,1,54,0001-00-0000-19.png,0005-00-0003-00.png
00000014,560,0,1445265683108,1445265683570,350,377,0,0,0,4,3,1,43,0005-00-0001-94.png,0003-00-0006-01.png
00000014,561,0,1445265686498,1445265687007,931,407,0,0,0,1,5,4,15,0004-00-0000-77.png,0001-00-0004-42.png
00000014,562,1,1445265690025,1445265690459,427,410,0,0,0,3,4,1,34,0003-00-0008-22.png,0005-00-0008-65.png
00000014,563,1,1445265691357,1445265691832,389,423,0,0,0,1,4,3,14,0004-00-0005-77.png,0005-00-0006-31.png
00000014,564,0,1445265692829,1445265693329,870,414,0,0,0,3,5,2,35,0003-00-0001-14.png,0001-00-0006-08.png
00000014,565,1,1445265696183,1445265696670,900,385,0,0,0,2,1,1,21,0002-00-0004-90.png,0004-00-0009-41.png
00000014,566,1,1445265697638,1445265698212,905,427,0,0,0,4,2,2,42,0005-00-0002-04.png,0002-00-0007-71.png
00000014,567,1,1445265699139,1445265699613,391,520,0,0,0,1,2,1,12,0004-00-0002-32.png,0002-00-0003-11.png
00000014,568,1,1445265700629,1445265701071,401,436,0,0,0,2,4,2,24,0002-00-0000-67.png,0005-00-0008-64.png
00000014,569,1,1445265702061,1445265702487,393,427,0,0,0,2,3,1,23,0002-00-0005-40.png,0003-00-0008-40.png
00000014,570,1,1445265703661,1445265704184,880,453,0,0,0,3,1,2,31,0003-00-0006-21.png,0004-00-0003-98.png
00000014,571,1,1445265705202,1445265705885,338,397,0,0,0,1,3,2,13,0004-00-0002-39.png,0003-00-0004-44.png
00000014,572,1,1445265706902,1445265707424,888,462,0,0,0,5,4,1,54,0001-00-0006-82.png,0005-00-0008-39.png
00000014,573,1,1445265708462,1445265708909,880,432,0,0,0,3,2,1,32,0003-00-0006-84.png,0002-00-0006-20.png
00000014,574,1,1445265709912,1445265710453,879,427,0,0,0,4,3,1,43,0005-00-0006-86.png,0003-00-0001-24.png
00000014,575,1,1445265711434,1445265711956,874,437,0,0,0,5,1,4,51,0001-00-0006-92.png,0004-00-0003-07.png
00000014,576,1,1445265713012,1445265713502,876,417,0,0,0,4,1,3,41,0005-00-0003-64.png,0004-00-0005-89.png
00000014,577,1,1445265714524,1445265715003,898,430,0,0,0,5,2,3,52,0001-00-0004-78.png,0002-00-0003-66.png
00000014,578,0,1445265716106,1445265716650,877,394,0,0,0,4,5,1,45,0005-00-0008-87.png,0001-00-0000-84.png
00000014,579,1,1445265719522,1445265719981,313,389,0,0,0,2,5,3,25,0002-00-0000-03.png,0001-00-0003-05.png
00000014,580,0,1445265721015,1445265721490,320,466,0,0,0,5,3,2,53,0001-00-0006-74.png,0003-00-0005-25.png
00000014,581,1,1445265724554,1445265724963,336,437,0,0,0,1,5,4,15,0004-00-0004-79.png,0001-00-0001-61.png
00000014,582,0,1445265725932,1445265726458,901,424,0,0,0,2,3,1,23,0002-00-0009-50.png,0003-00-0002-04.png
00000014,583,1,1445265729364,1445265729816,905,401,0,0,0,2,1,1,21,0002-00-0000-37.png,0004-00-0004-37.png
00000014,584,1,1445265730772,1445265731308,875,411,0,0,0,5,3,2,53,0001-00-0003-16.png,0003-00-0004-15.png
00000014,585,1,1445265732304,1445265732810,876,424,0,0,0,3,1,2,31,0003-00-0009-43.png,0004-00-0001-03.png
00000014,586,0,1445265733792,1445265734284,415,433,0,0,0,4,3,1,43,0005-00-0005-60.png,0003-00-0004-12.png
00000014,587,1,1445265737344,1445265737813,873,430,0,0,0,5,2,3,52,0001-00-0009-04.png,0002-00-0000-91.png
00000014,588,0,1445265738795,1445265739236,424,438,0,0,0,5,1,4,51,0001-00-0002-12.png,0004-00-0000-84.png
00000014,589,1,1445265742213,1445265742628,899,358,0,0,0,4,2,2,42,0005-00-0003-93.png,0002-00-0007-60.png
00000014,590,0,1445265743563,1445265744035,903,417,0,0,0,1,3,2,13,0004-00-0009-47.png,0003-00-0004-69.png
00000014,591,1,1445265746924,1445265747409,927,424,0,0,0,5,4,1,54,0001-00-0007-65.png,0005-00-0004-30.png
00000014,592,1,1445265748244,1445265748701,366,442,0,0,0,1,4,3,14,0004-00-0000-75.png,0005-00-0006-86.png
00000014,593,1,1445265749745,1445265750261,340,468,0,0,0,4,5,1,45,0005-00-0000-64.png,0001-00-0009-31.png
00000014,594,1,1445265751267,1445265751732,339,418,0,0,0,2,5,3,25,0002-00-0002-42.png,0001-00-0006-64.png
00000014,595,0,1445265752956,1445265753519,876,443,0,0,0,2,4,2,24,0002-00-0004-90.png,0005-00-0000-29.png
00000014,596,1,1445265756675,1445265757079,392,418,0,0,0,1,2,1,12,0004-00-0003-89.png,0002-00-0002-46.png
00000014,597,1,1445265757984,1445265758409,419,434,0,0,0,3,5,2,35,0003-00-0008-69.png,0001-00-0003-16.png
00000014,598,1,1445265759465,1445265760423,864,410,0,0,0,4,1,3,41,0005-00-0008-69.png,0004-00-0005-22.png
00000014,599,1,1445265761602,1445265762088,918,443,0,0,0,3,2,1,32,0003-00-0007-47.png,0002-00-0004-15.png
00000014,600,0,1445265763103,1445265763699,926,429,0,0,0,3,4,1,34,0003-00-0000-84.png,0005-00-0003-17.png
00000014,601,1,1445265766572,1445265767027,337,424,0,0,0,3,4,1,34,0003-00-0003-57.png,0005-00-0003-12.png
00000014,602,1,1445265767963,1445265768426,397,438,0,0,0,2,3,1,23,0002-00-0008-10.png,0003-00-0004-86.png
00000014,603,1,1445265769484,1445265769969,892,418,0,0,0,5,2,3,52,0001-00-0007-12.png,0002-00-0007-34.png
00000014,604,0,1445265771046,1445265771503,415,450,0,0,0,4,3,1,43,0005-00-0009-63.png,0003-00-0003-00.png
00000014,605,1,1445265774568,1445265775038,294,408,0,0,0,1,4,3,14,0004-00-0007-23.png,0005-00-0006-88.png
00000014,606,0,1445265776014,1445265776505,397,444,0,0,0,5,3,2,53,0001-00-0000-05.png,0003-00-0008-59.png
00000014,607,1,1445265779651,1445265780078,870,497,0,0,0,5,4,1,54,0001-00-0000-90.png,0005-00-0001-16.png
00000014,608,1,1445265781052,1445265781529,916,412,0,0,0,2,1,1,21,0002-00-0002-09.png,0004-00-0009-94.png
00000014,609,1,1445265782555,1445265783048,895,420,0,0,0,4,2,2,42,0005-00-0001-12.png,0002-00-0000-29.png
00000014,610,1,1445265784182,1445265784664,900,423,0,0,0,3,2,1,32,0003-00-0001-99.png,0002-00-0008-15.png
00000014,611,1,1445265785893,1445265786379,874,517,0,0,0,3,1,2,31,0003-00-0009-84.png,0004-00-0004-53.png
00000014,612,1,1445265787352,1445265787847,385,436,0,0,0,1,3,2,13,0004-00-0004-27.png,0003-00-0002-17.png
00000014,613,1,1445265789073,1445265789534,341,436,0,0,0,2,4,2,24,0002-00-0003-56.png,0005-00-0003-83.png
00000014,614,1,1445265790663,1445265791123,415,450,0,0,0,3,5,2,35,0003-00-0007-02.png,0001-00-0005-13.png
00000014,615,0,1445265792294,1445265792828,873,430,0,0,0,1,5,4,15,0004-00-0001-92.png,0001-00-0005-15.png
00000014,616,0,1445265796031,1445265796473,926,427,0,0,0,1,2,1,12,0004-00-0005-04.png,0002-00-0008-81.png
00000014,617,1,1445265799649,1445265800219,343,387,0,0,0,4,5,1,45,0005-00-0005-79.png,0001-00-0005-30.png
00000014,618,1,1445265801197,1445265801730,875,436,0,0,0,4,1,3,41,0005-00-0004-33.png,0004-00-0008-90.png
00000014,619,1,1445265802699,1445265803197,924,410,0,0,0,5,1,4,51,0001-00-0003-89.png,0004-00-0005-44.png
00000014,620,1,1445265804240,1445265805141,388,528,0,0,0,2,5,3,25,0002-00-0000-72.png,0001-00-0004-05.png
00000014,621,1,1445265806186,1445265806654,319,463,0,0,0,3,4,1,34,0003-00-0002-33.png,0005-00-0005-37.png
00000014,622,1,1445265807687,1445265808184,865,511,0,0,0,2,1,1,21,0002-00-0003-50.png,0004-00-0003-66.png
00000014,623,0,1445265809226,1445265809722,440,479,0,0,0,5,3,2,53,0001-00-0007-17.png,0003-00-0004-48.png
00000014,624,1,1445265812776,1445265813226,874,516,0,0,0,4,2,2,42,0005-00-0000-54.png,0002-00-0004-21.png
00000014,625,1,1445265814184,1445265814663,890,419,0,0,0,5,2,3,52,0001-00-0009-30.png,0002-00-0003-98.png
00000014,626,1,1445265815637,1445265816143,881,419,0,0,0,3,2,1,32,0003-00-0000-16.png,0002-00-0001-82.png
00000014,627,0,1445265817267,1445265817742,901,410,0,0,0,1,3,2,13,0004-00-0002-57.png,0003-00-0002-74.png
00000014,628,1,1445265820593,1445265821156,323,375,0,0,0,4,5,1,45,0005-00-0008-92.png,0001-00-0003-68.png
00000014,629,1,1445265822137,1445265822728,376,384,0,0,0,2,5,3,25,0002-00-0005-62.png,0001-00-0007-77.png
00000014,630,1,1445265823787,1445265824283,379,409,0,0,0,1,4,3,14,0004-00-0006-68.png,0005-00-0007-05.png
00000014,631,0,1445265825240,1445265825815,877,443,0,0,0,1,2,1,12,0004-00-0003-93.png,0002-00-0005-32.png
00000014,632,1,1445265828695,1445265829138,893,513,0,0,0,5,1,4,51,0001-00-0007-89.png,0004-00-0000-07.png
00000014,633,0,1445265830089,1445265830545,376,435,0,0,0,4,3,1,43,0005-00-0008-12.png,0003-00-0007-03.png
00000014,634,1,1445265833534,1445265834039,411,443,0,0,0,2,3,1,23,0002-00-0001-50.png,0003-00-0000-69.png
00000014,635,1,1445265834956,1445265835522,887,446,0,0,0,5,4,1,54,0001-00-0004-82.png,0005-00-0003-77.png
00000014,636,1,1445265836488,1445265836972,414,449,0,0,0,3,5,2,35,0003-00-0000-94.png,0001-00-0009-55.png
00000014,637,0,1445265838048,1445265838502,401,423,0,0,0,3,1,2,31,0003-00-0008-80.png,0004-00-0009-05.png
00000014,638,1,1445265841497,1445265841889,376,410,0,0,0,2,4,2,24,0002-00-0008-75.png,0005-00-0002-84.png
00000014,639,1,1445265842768,1445265843284,858,406,0,0,0,4,1,3,41,0005-00-0008-28.png,0004-00-0007-30.png
00000014,640,1,1445265844229,1445265844731,399,411,0,0,0,1,5,4,15,0004-00-0001-31.png,0001-00-0000-83.png
00000014,641,0,1445265845838,1445265846371,299,388,0,0,0,5,3,2,53,0001-00-0008-90.png,0003-00-0001-23.png
00000014,642,0,1445265849432,1445265849889,887,489,0,0,0,3,5,2,35,0003-00-0009-68.png,0001-00-0006-59.png
00000014,643,1,1445265852893,1445265853376,392,483,0,0,0,3,4,1,34,0003-00-0002-67.png,0005-00-0007-68.png
00000014,644,1,1445265854323,1445265854846,876,442,0,0,0,2,1,1,21,0002-00-0003-57.png,0004-00-0006-70.png
00000014,645,1,1445265855906,1445265856389,927,410,0,0,0,4,1,3,41,0005-00-0004-78.png,0004-00-0000-20.png
00000014,646,1,1445265857416,1445265857851,401,423,0,0,0,2,5,3,25,0002-00-0005-86.png,0001-00-0008-14.png
00000014,647,1,1445265858986,1445265859456,906,402,0,0,0,5,1,4,51,0001-00-0001-42.png,0004-00-0002-77.png
00000014,648,1,1445265860668,1445265861180,874,437,0,0,0,5,2,3,52,0001-00-0006-21.png,0002-00-0007-51.png
00000014,649,1,1445265862278,1445265862712,325,438,0,0,0,1,5,4,15,0004-00-0002-09.png,0001-00-0008-71.png
00000014,650,1,1445265863629,1445265864197,877,417,0,0,0,4,2,2,42,0005-00-0000-58.png,0002-00-0008-93.png
00000014,651,1,1445265865219,1445265865689,341,423,0,0,0,2,3,1,23,0002-00-0003-40.png,0003-00-0003-86.png
00000014,652,1,1445265866689,1445265867195,411,562,0,0,0,1,3,2,13,0004-00-0003-53.png,0003-00-0006-75.png
00000014,653,0,1445265868241,1445265868684,862,397,0,0,0,1,2,1,12,0004-00-0003-98.png,0002-00-0000-83.png
00000014,654,0,1445265871618,1445265871679,478,462,0,0,0,4,3,1,43,0005-00-0001-74.png,0003-00-0009-15.png
00000014,655,1,1445265874647,1445265875097,916,416,0,0,0,3,2,1,32,0003-00-0001-99.png,0002-00-0001-41.png
00000014,656,0,1445265876002,1445265876552,401,455,0,0,0,5,4,1,54,0001-00-0006-17.png,0005-00-0003-46.png
00000014,657,1,1445265879385,1445265879872,354,369,0,0,0,2,4,2,24,0002-00-0008-90.png,0005-00-0006-32.png
00000014,658,1,1445265880752,1445265881183,401,449,0,0,0,1,4,3,14,0004-00-0003-10.png,0005-00-0004-99.png
00000014,659,1,1445265882224,1445265882714,248,555,0,0,0,4,5,1,45,0005-00-0001-81.png,0001-00-0004-55.png
00000014,660,1,1445265883804,1445265884299,917,412,0,0,0,3,1,2,31,0003-00-0004-01.png,0004-00-0004-40.png
00000014,661,1,1445265885335,1445265885806,400,411,0,0,0,1,2,1,12,0004-00-0000-68.png,0002-00-0008-36.png
00000014,662,1,1445265886843,1445265887330,401,450,0,0,0,4,5,1,45,0005-00-0002-24.png,0001-00-0002-18.png
00000014,663,1,1445265888375,1445265888845,407,539,0,0,0,1,4,3,14,0004-00-0001-23.png,0005-00-0001-95.png
00000014,664,0,1445265889906,1445265890562,866,467,0,0,0,3,5,2,35,0003-00-0002-68.png,0001-00-0007-48.png
00000014,665,1,1445265893663,1445265894127,350,398,0,0,0,1,5,4,15,0004-00-0008-60.png,0001-00-0008-44.png
00000014,666,1,1445265895044,1445265895552,891,437,0,0,0,4,3,1,43,0005-00-0000-38.png,0003-00-0002-92.png
00000014,667,1,1445265896555,1445265897131,891,417,0,0,0,4,1,3,41,0005-00-0008-40.png,0004-00-0008-91.png
00000014,668,1,1445265898145,1445265898651,915,419,0,0,0,3,1,2,31,0003-00-0009-77.png,0004-00-0004-44.png
00000014,669,1,1445265899834,1445265900348,914,438,0,0,0,2,1,1,21,0002-00-0003-57.png,0004-00-0008-67.png
00000014,670,1,1445265901425,1445265901955,896,426,0,0,0,5,2,3,52,0001-00-0004-73.png,0002-00-0003-04.png
00000014,671,1,1445265903016,1445265903444,396,444,0,0,0,2,4,2,24,0002-00-0002-62.png,0005-00-0000-31.png
00000014,672,1,1445265904693,1445265905089,427,449,0,0,0,3,4,1,34,0003-00-0000-77.png,0005-00-0000-30.png
00000014,673,1,1445265906189,1445265906746,440,544,0,0,0,1,3,2,13,0004-00-0008-41.png,0003-00-0004-20.png
00000014,674,0,1445265907827,1445265908250,395,434,0,0,0,5,3,2,53,0001-00-0002-48.png,0003-00-0006-46.png
00000014,675,1,1445265911276,1445265911748,924,430,0,0,0,5,1,4,51,0001-00-0007-81.png,0004-00-0001-89.png
00000014,676,0,1445265912707,1445265913261,915,449,0,0,0,2,5,3,25,0002-00-0006-88.png,0001-00-0004-70.png
00000014,677,0,1445265916295,1445265916782,427,462,0,0,0,3,2,1,32,0003-00-0003-46.png,0002-00-0002-50.png
00000014,678,1,1445265919641,1445265920087,887,424,0,0,0,4,2,2,42,0005-00-0007-52.png,0002-00-0006-08.png
00000014,679,0,1445265920952,1445265921488,370,427,0,0,0,5,4,1,54,0001-00-0009-15.png,0005-00-0007-41.png
00000014,680,0,1445265924580,1445265925071,902,437,0,0,0,2,3,1,23,0002-00-0002-55.png,0003-00-0003-62.png
00000014,681,1,1445265928211,1445265928612,901,410,0,0,0,4,1,3,41,0005-00-0002-83.png,0004-00-0005-32.png
00000014,682,1,1445265929522,1445265930020,919,415,0,0,0,3,2,1,32,0003-00-0006-12.png,0002-00-0002-74.png
00000014,683,1,1445265931034,1445265931502,907,422,0,0,0,4,2,2,42,0005-00-0009-68.png,0002-00-0002-82.png
00000014,684,0,1445265932576,1445265933471,868,397,0,0,0,1,5,4,15,0004-00-0009-52.png,0001-00-0002-65.png
00000014,685,1,1445265937246,1445265937832,887,493,0,0,0,5,4,1,54,0001-00-0000-58.png,0005-00-0002-45.png
00000014,686,1,1445265938864,1445265939316,314,444,0,0,0,3,4,1,34,0003-00-0005-00.png,0005-00-0009-14.png
00000014,687,0,1445265940308,1445265940811,903,439,0,0,0,2,3,1,23,0002-00-0009-64.png,0003-00-0001-23.png
00000014,688,1,1445265943665,1445265944121,289,392,0,0,0,1,2,1,12,0004-00-0004-98.png,0002-00-0008-28.png
00000014,689,1,1445265944986,1445265945411,376,410,0,0,0,1,3,2,13,0004-00-0006-87.png,0003-00-0000-05.png
00000014,690,0,1445265946720,1445265947241,914,371,0,0,0,2,4,2,24,0002-00-0004-36.png,0005-00-0004-30.png
00000014,691,1,1445265950253,1445265950728,874,463,0,0,0,3,1,2,31,0003-00-0008-42.png,0004-00-0002-75.png
00000014,692,1,1445265951676,1445265952056,388,423,0,0,0,2,5,3,25,0002-00-0006-20.png,0001-00-0002-27.png
00000014,693,1,1445265953295,1445265953781,419,559,0,0,0,1,4,3,14,0004-00-0003-00.png,0005-00-0008-72.png
00000014,694,0,1445265954766,1445265955183,415,410,0,0,0,5,3,2,53,0001-00-0007-89.png,0003-00-0006-20.png
00000014,695,0,1445265958015,1445265958035,503,421,0,0,0,2,1,1,21,0002-00-0000-03.png,0004-00-0009-46.png
00000014,696,0,1445265961983,1445265962487,385,396,0,0,0,4,3,1,43,0005-00-0008-60.png,0003-00-0002-89.png
00000014,697,1,1445265966293,1445265966769,902,519,0,0,0,5,1,4,51,0001-00-0008-44.png,0004-00-0009-53.png
00000014,698,0,1445265967725,1445265968200,350,475,0,0,0,5,2,3,52,0001-00-0009-06.png,0002-00-0008-46.png
00000014,699,0,1445265972497,1445265972949,894,429,0,0,0,4,5,1,45,0005-00-0001-20.png,0001-00-0007-96.png
00000014,700,0,1445265976043,1445265976824,922,492,0,0,0,3,5,2,35,0003-00-0007-25.png,0001-00-0007-03.png
00000014,701,0,1445265979680,1445265980131,409,446,0,0,0,4,1,3,41,0005-00-0008-12.png,0004-00-0003-87.png
00000014,702,1,1445265983100,1445265983612,944,420,0,0,0,5,3,2,53,0001-00-0003-95.png,0003-00-0008-19.png
00000014,703,1,1445265985100,1445265985491,317,401,0,0,0,2,3,1,23,0002-00-0004-93.png,0003-00-0008-01.png
00000014,704,1,1445265986741,1445265987263,889,444,0,0,0,4,3,1,43,0005-00-0007-42.png,0003-00-0004-18.png
00000014,705,1,1445265988406,1445265988847,333,431,0,0,0,2,5,3,25,0002-00-0002-95.png,0001-00-0008-31.png
00000014,706,1,1445265989899,1445265990300,393,440,0,0,0,1,2,1,12,0004-00-0009-97.png,0002-00-0009-37.png
00000014,707,1,1445265991327,1445265991780,401,410,0,0,0,3,5,2,35,0003-00-0004-08.png,0001-00-0005-56.png
00000014,708,1,1445265992781,1445265993204,389,423,0,0,0,2,4,2,24,0002-00-0000-95.png,0005-00-0004-67.png
00000014,709,1,1445265994341,1445265994846,900,453,0,0,0,4,2,2,42,0005-00-0005-39.png,0002-00-0000-93.png
00000014,710,1,1445265995882,1445265996357,911,419,0,0,0,3,1,2,31,0003-00-0009-03.png,0004-00-0005-40.png
00000014,711,1,1445265997392,1445265997869,933,401,0,0,0,2,1,1,21,0002-00-0001-46.png,0004-00-0004-53.png
00000014,712,1,1445265998914,1445265999391,359,431,0,0,0,1,4,3,14,0004-00-0007-99.png,0005-00-0006-73.png
00000014,713,0,1445266000363,1445266000831,420,453,0,0,0,5,4,1,54,0001-00-0005-36.png,0005-00-0003-13.png
00000014,714,1,1445266003754,1445266004260,924,382,0,0,0,3,2,1,32,0003-00-0004-69.png,0002-00-0005-53.png
00000014,715,0,1445266005261,1445266005763,879,442,0,0,0,1,3,2,13,0004-00-0007-51.png,0003-00-0008-69.png
00000014,716,0,1445266008850,1445266009287,877,416,0,0,0,3,4,1,34,0003-00-0007-64.png,0005-00-0005-16.png
00000014,717,0,1445266012249,1445266012627,879,375,0,0,0,4,5,1,45,0005-00-0006-31.png,0001-00-0008-13.png
00000014,718,1,1445266015695,1445266016151,879,376,0,0,0,5,1,4,51,0001-00-0000-23.png,0004-00-0009-69.png
00000014,719,0,1445266017060,1445266017557,902,414,0,0,0,1,5,4,15,0004-00-0009-63.png,0001-00-0004-34.png
00000014,720,1,1445266020400,1445266020867,937,372,0,0,0,5,2,3,52,0001-00-0004-19.png,0002-00-0006-19.png
00000014,721,1,1445266021790,1445266022330,876,384,0,0,0,5,3,2,53,0001-00-0008-98.png,0003-00-0001-40.png
00000014,722,0,1445266023275,1445266023793,370,452,0,0,0,4,3,1,43,0005-00-0000-28.png,0003-00-0003-48.png
00000014,723,1,1445266026940,1445266027460,333,371,0,0,0,2,3,1,23,0002-00-0009-08.png,0003-00-0006-57.png
00000014,724,1,1445266028429,1445266028849,401,436,0,0,0,2,4,2,24,0002-00-0009-54.png,0005-00-0005-68.png
00000014,725,1,1445266029830,1445266030304,875,411,0,0,0,3,1,2,31,0003-00-0006-23.png,0004-00-0003-41.png
00000014,726,0,1445266031311,1445266031760,888,398,0,0,0,3,4,1,34,0003-00-0007-87.png,0005-00-0008-03.png
00000014,727,1,1445266034830,1445266035302,367,436,0,0,0,1,4,3,14,0004-00-0001-38.png,0005-00-0000-28.png
00000014,728,1,1445266036223,1445266036709,334,440,0,0,0,1,3,2,13,0004-00-0001-72.png,0003-00-0004-08.png
00000014,729,1,1445266037722,1445266038156,325,423,0,0,0,1,2,1,12,0004-00-0001-91.png,0002-00-0009-74.png
00000014,730,0,1445266039103,1445266039602,920,404,0,0,0,3,5,2,35,0003-00-0005-80.png,0001-00-0003-89.png
00000014,731,0,1445266042486,1445266042963,348,363,0,0,0,2,1,1,21,0002-00-0004-68.png,0004-00-0004-37.png
00000014,732,0,1445266045851,1445266045899,478,440,0,0,0,5,2,3,52,0001-00-0008-97.png,0002-00-0007-73.png
00000014,733,0,1445266049052,1445266049469,892,415,0,0,0,2,5,3,25,0002-00-0006-68.png,0001-00-0000-17.png
00000014,734,1,1445266052619,1445266053042,316,398,0,0,0,1,5,4,15,0004-00-0004-66.png,0001-00-0006-19.png
00000014,735,0,1445266053938,1445266054395,365,458,0,0,0,4,1,3,41,0005-00-0007-96.png,0004-00-0006-06.png
00000014,736,1,1445266057448,1445266057888,414,423,0,0,0,4,5,1,45,0005-00-0007-07.png,0001-00-0005-17.png
00000014,737,0,1445266058843,1445266059355,414,436,0,0,0,5,4,1,54,0001-00-0008-77.png,0005-00-0001-73.png
00000014,738,1,1445266062938,1445266063439,907,457,0,0,0,5,1,4,51,0001-00-0000-72.png,0004-00-0003-87.png
00000014,739,1,1445266064464,1445266064915,928,417,0,0,0,3,2,1,32,0003-00-0002-20.png,0002-00-0006-95.png
00000014,740,1,1445266066046,1445266066478,873,507,0,0,0,4,2,2,42,0005-00-0008-11.png,0002-00-0003-11.png
00000014,741,0,1445266067519,1445266067991,878,413,0,0,0,4,5,1,45,0005-00-0003-32.png,0001-00-0004-57.png
00000014,742,0,1445266070847,1445266071758,955,387,0,0,0,2,4,2,24,0002-00-0005-32.png,0005-00-0006-26.png
00000014,743,0,1445266074811,1445266074847,478,399,0,0,0,3,1,2,31,0003-00-0000-19.png,0004-00-0009-87.png
00000014,744,1,1445266077866,1445266078303,895,472,0,0,0,3,2,1,32,0003-00-0004-61.png,0002-00-0007-54.png
00000014,745,1,1445266079236,1445266079731,916,397,0,0,0,4,1,3,41,0005-00-0001-53.png,0004-00-0009-72.png
00000014,746,1,1445266080677,1445266081149,317,456,0,0,0,2,3,1,23,0002-00-0003-75.png,0003-00-0007-04.png
00000014,747,1,1445266082127,1445266082622,865,508,0,0,0,5,3,2,53,0001-00-0004-02.png,0003-00-0007-96.png
00000014,748,1,1445266083691,1445266084137,288,423,0,0,0,1,4,3,14,0004-00-0000-83.png,0005-00-0000-69.png
00000014,749,0,1445266085318,1445266085816,892,438,0,0,0,3,5,2,35,0003-00-0003-29.png,0001-00-0004-51.png
00000014,750,1,1445266089185,1445266089588,900,412,0,0,0,5,1,4,51,0001-00-0009-39.png,0004-00-0009-99.png
00000014,751,0,1445266090566,1445266090974,332,425,0,0,0,5,4,1,54,0001-00-0007-67.png,0005-00-0005-08.png
00000014,752,0,1445266093847,1445266094289,389,502,0,0,0,2,1,1,21,0002-00-0005-84.png,0004-00-0002-68.png
00000014,753,1,1445266097685,1445266098142,336,410,0,0,0,1,3,2,13,0004-00-0009-54.png,0003-00-0005-31.png
00000014,754,0,1445266099050,1445266099588,898,432,0,0,0,1,2,1,12,0004-00-0008-53.png,0002-00-0008-68.png
00000014,755,1,1445266102583,1445266103037,401,358,0,0,0,3,4,1,34,0003-00-0004-62.png,0005-00-0004-88.png
00000014,756,1,1445266103981,1445266104423,341,435,0,0,0,2,5,3,25,0002-00-0006-29.png,0001-00-0003-68.png
00000014,757,1,1445266105431,1445266105921,879,401,0,0,0,4,3,1,43,0005-00-0003-07.png,0003-00-0008-92.png
00000014,758,1,1445266106894,1445266107420,901,398,0,0,0,4,2,2,42,0005-00-0001-78.png,0002-00-0005-90.png
00000014,759,1,1445266108510,1445266109019,897,419,0,0,0,5,2,3,52,0001-00-0001-38.png,0002-00-0007-42.png
00000014,760,1,1445266109964,1445266110389,344,438,0,0,0,1,5,4,15,0004-00-0006-63.png,0001-00-0008-27.png
00000014,761,0,1445266111364,1445266111922,418,422,0,0,0,5,4,1,54,0001-00-0007-07.png,0005-00-0004-20.png
00000014,762,1,1445266114917,1445266115365,363,384,0,0,0,1,3,2,13,0004-00-0000-88.png,0003-00-0001-04.png
00000014,763,1,1445266116284,1445266117083,443,416,0,0,0,3,4,1,34,0003-00-0006-60.png,0005-00-0000-26.png
00000014,764,1,1445266118072,1445266118473,389,423,0,0,0,2,5,3,25,0002-00-0001-70.png,0001-00-0004-69.png
00000014,765,1,1445266119684,1445266120134,414,449,0,0,0,1,4,3,14,0004-00-0006-97.png,0005-00-0004-21.png
00000014,766,1,1445266121195,1445266121730,875,435,0,0,0,5,3,2,53,0001-00-0007-83.png,0003-00-0001-42.png
00000014,767,1,1445266122707,1445266123309,895,472,0,0,0,4,1,3,41,0005-00-0009-32.png,0004-00-0000-12.png
00000014,768,1,1445266124269,1445266124825,876,450,0,0,0,3,1,2,31,0003-00-0004-59.png,0004-00-0000-66.png
00000014,769,0,1445266125816,1445266126325,289,371,0,0,0,2,1,1,21,0002-00-0001-43.png,0004-00-0002-29.png
00000014,770,0,1445266130159,1445266130619,401,462,0,0,0,4,2,2,42,0005-00-0006-36.png,0002-00-0008-73.png
00000014,771,1,1445266134264,1445266134755,386,545,0,0,0,1,5,4,15,0004-00-0005-69.png,0001-00-0007-38.png
00000014,772,0,1445266135653,1445266136167,900,436,0,0,0,4,5,1,45,0005-00-0006-18.png,0001-00-0000-34.png
00000014,773,1,1445266139707,1445266140178,874,489,0,0,0,5,1,4,51,0001-00-0006-31.png,0004-00-0009-32.png
00000014,774,0,1445266141059,1445266141618,350,436,0,0,0,4,3,1,43,0005-00-0009-70.png,0003-00-0009-82.png
00000014,775,1,1445266144535,1445266144930,951,423,0,0,0,5,2,3,52,0001-00-0005-60.png,0002-00-0004-68.png
00000014,776,1,1445266145878,1445266146465,326,383,0,0,0,2,3,1,23,0002-00-0003-52.png,0003-00-0005-45.png
00000014,777,1,1445266147409,1445266147876,875,423,0,0,0,3,2,1,32,0003-00-0007-65.png,0002-00-0009-99.png
00000014,778,1,1445266148810,1445266149233,385,521,0,0,0,2,4,2,24,0002-00-0000-34.png,0005-00-0003-09.png
00000014,779,0,1445266150149,1445266151067,903,414,0,0,0,3,5,2,35,0003-00-0009-02.png,0001-00-0004-57.png
00000014,780,0,1445266154000,1445266154402,931,390,0,0,0,1,2,1,12,0004-00-0008-01.png,0002-00-0005-77.png
00000014,781,0,1445266157529,1445266158034,870,415,0,0,0,3,5,2,35,0003-00-0003-24.png,0001-00-0003-81.png
00000014,782,1,1445266160886,1445266161386,291,405,0,0,0,1,4,3,14,0004-00-0001-56.png,0005-00-0003-90.png
00000014,783,0,1445266162298,1445266162853,892,418,0,0,0,3,4,1,34,0003-00-0003-51.png,0005-00-0005-77.png
00000014,784,1,1445266165914,1445266166351,912,398,0,0,0,3,2,1,32,0003-00-0005-43.png,0002-00-0005-82.png
00000014,785,1,1445266167198,1445266167711,905,415,0,0,0,5,4,1,54,0001-00-0002-09.png,0005-00-0001-62.png
00000014,786,0,1445266168759,1445266169351,916,371,0,0,0,2,4,2,24,0002-00-0000-73.png,0005-00-0000-05.png
00000014,787,1,1445266172213,1445266172657,364,475,0,0,0,2,3,1,23,0002-00-0004-71.png,0003-00-0000-70.png
00000014,788,1,1445266173537,1445266174035,912,424,0,0,0,5,3,2,53,0001-00-0007-93.png,0003-00-0002-92.png
00000014,789,1,1445266175069,1445266175461,376,424,0,0,0,1,5,4,15,0004-00-0007-73.png,0001-00-0009-77.png
00000014,790,0,1445266176543,1445266177178,879,401,0,0,0,4,5,1,45,0005-00-0007-79.png,0001-00-0002-01.png
00000014,791,1,1445266180289,1445266180773,296,439,0,0,0,1,2,1,12,0004-00-0004-16.png,0002-00-0001-29.png
00000014,792,1,1445266181771,1445266182244,868,534,0,0,0,5,1,4,51,0001-00-0006-67.png,0004-00-0002-94.png
00000014,793,1,1445266183429,1445266183911,901,450,0,0,0,4,2,2,42,0005-00-0008-12.png,0002-00-0002-11.png
00000014,794,1,1445266184889,1445266185821,901,487,0,0,0,3,1,2,31,0003-00-0001-96.png,0004-00-0002-67.png
00000014,795,0,1445266186808,1445266187229,350,438,0,0,0,2,1,1,21,0002-00-0000-20.png,0004-00-0000-35.png
00000014,796,1,1445266190273,1445266191149,902,399,0,0,0,4,1,3,41,0005-00-0001-54.png,0004-00-0008-62.png
00000014,797,1,1445266192113,1445266192513,380,410,0,0,0,1,3,2,13,0004-00-0009-91.png,0003-00-0000-42.png
00000014,798,1,1445266193504,1445266194068,877,356,0,0,0,5,2,3,52,0001-00-0000-94.png,0002-00-0002-73.png
00000014,799,0,1445266195009,1445266195521,415,450,0,0,0,4,3,1,43,0005-00-0002-79.png,0003-00-0001-72.png
00000014,800,1,1445266198414,1445266198450,450,448,0,0,0,2,5,3,25,0002-00-0003-58.png,0001-00-0003-70.png
00000014,801,1,1445266199488,1445266200005,370,472,0,0,0,4,5,1,45,0005-00-0006-63.png,0001-00-0009-94.png
00000014,802,1,1445266201081,1445266201538,417,440,0,0,0,2,4,2,24,0002-00-0005-81.png,0005-00-0000-38.png
00000014,803,0,1445266202868,1445266203284,350,455,0,0,0,5,4,1,54,0001-00-0004-26.png,0005-00-0001-36.png
00000014,804,1,1445266206274,1445266206726,881,515,0,0,0,5,2,3,52,0001-00-0001-04.png,0002-00-0004-36.png
00000014,805,0,1445266207681,1445266208180,925,413,0,0,0,1,5,4,15,0004-00-0000-37.png,0001-00-0005-49.png
00000014,806,1,1445266211074,1445266211538,318,399,0,0,0,3,4,1,34,0003-00-0009-41.png,0005-00-0001-93.png
00000014,807,1,1445266212496,1445266212988,389,423,0,0,0,2,5,3,25,0002-00-0003-71.png,0001-00-0009-25.png
00000014,808,0,1445266213968,1445266214471,898,409,0,0,0,1,2,1,12,0004-00-0002-95.png,0002-00-0006-23.png
00000014,809,1,1445266217565,1445266218046,857,505,0,0,0,2,1,1,21,0002-00-0003-41.png,0004-00-0002-88.png
00000014,810,1,1445266218997,1445266219473,345,401,0,0,0,1,4,3,14,0004-00-0000-01.png,0005-00-0007-42.png
00000014,811,1,1445266220508,1445266220980,862,396,0,0,0,4,2,2,42,0005-00-0000-35.png,0002-00-0004-65.png
00000014,812,0,1445266222045,1445266222524,889,449,0,0,0,3,5,2,35,0003-00-0001-54.png,0001-00-0003-99.png
00000014,813,1,1445266225678,1445266226096,344,426,0,0,0,2,3,1,23,0002-00-0007-25.png,0003-00-0009-75.png
00000014,814,1,1445266227046,1445266227581,922,420,0,0,0,4,1,3,41,0005-00-0001-10.png,0004-00-0009-67.png
00000014,815,0,1445266228594,1445266229073,366,479,0,0,0,4,3,1,43,0005-00-0008-71.png,0003-00-0002-63.png
00000014,816,0,1445266232063,1445266232083,446,350,0,0,0,3,2,1,32,0003-00-0007-50.png,0002-00-0009-46.png
00000014,817,1,1445266235117,1445266235595,940,441,0,0,0,5,1,4,51,0001-00-0002-75.png,0004-00-0005-94.png
00000014,818,1,1445266236474,1445266237004,901,410,0,0,0,3,1,2,31,0003-00-0006-14.png,0004-00-0008-80.png
00000014,819,1,1445266238147,1445266238670,345,368,0,0,0,1,3,2,13,0004-00-0003-93.png,0003-00-0008-40.png
00000014,820,0,1445266239719,1445266240143,335,422,0,0,0,5,3,2,53,0001-00-0006-50.png,0003-00-0003-92.png
00000014,821,0,1445266243735,1445266244246,366,381,0,0,0,5,4,1,54,0001-00-0003-09.png,0005-00-0008-75.png
00000014,822,0,1445266247141,1445266247169,496,389,0,0,0,3,2,1,32,0003-00-0008-98.png,0002-00-0002-81.png
00000014,823,1,1445266250202,1445266250599,953,417,0,0,0,3,1,2,31,0003-00-0006-03.png,0004-00-0004-44.png
00000014,824,1,1445266251484,1445266251945,376,424,0,0,0,1,4,3,14,0004-00-0005-16.png,0005-00-0006-12.png
00000014,825,1,1445266253141,1445266253572,379,456,0,0,0,1,3,2,13,0004-00-0009-58.png,0003-00-0000-76.png
00000014,826,1,1445266254525,1445266254970,293,436,0,0,0,2,4,2,24,0002-00-0003-12.png,0005-00-0006-52.png
00000014,827,1,1445266256004,1445266256490,899,437,0,0,0,2,1,1,21,0002-00-0004-59.png,0004-00-0005-16.png
00000014,828,1,1445266257536,1445266258034,401,410,0,0,0,3,5,2,35,0003-00-0000-71.png,0001-00-0004-30.png
00000014,829,1,1445266259049,1445266259466,312,423,0,0,0,2,3,1,23,0002-00-0004-72.png,0003-00-0001-74.png
00000014,830,1,1445266260480,1445266260930,899,404,0,0,0,5,1,4,51,0001-00-0005-55.png,0004-00-0000-82.png
00000014,831,1,1445266261939,1445266262423,409,402,0,0,0,2,5,3,25,0002-00-0005-51.png,0001-00-0004-34.png
00000014,832,0,1445266263479,1445266263939,376,423,0,0,0,5,3,2,53,0001-00-0003-72.png,0003-00-0009-71.png
00000014,833,1,1445266266917,1445266267333,927,414,0,0,0,4,1,3,41,0005-00-0007-23.png,0004-00-0000-75.png
00000014,834,1,1445266268228,1445266268668,365,432,0,0,0,4,5,1,45,0005-00-0007-17.png,0001-00-0004-64.png
00000014,835,1,1445266269675,1445266270134,351,455,0,0,0,1,2,1,12,0004-00-0004-98.png,0002-00-0008-96.png
00000014,836,1,1445266271142,1445266271666,896,420,0,0,0,4,2,2,42,0005-00-0000-53.png,0002-00-0005-36.png
00000014,837,1,1445266272652,1445266273145,427,448,0,0,0,3,4,1,34,0003-00-0004-62.png,0005-00-0009-19.png
00000014,838,0,1445266274223,1445266274730,390,493,0,0,0,5,2,3,52,0001-00-0008-04.png,0002-00-0006-93.png
00000014,839,1,1445266277834,1445266278313,900,398,0,0,0,4,3,1,43,0005-00-0005-68.png,0003-00-0008-92.png
00000014,840,1,1445266279281,1445266279698,305,411,0,0,0,1,5,4,15,0004-00-0005-97.png,0001-00-0005-48.png
00000014,841,0,1445266280670,1445266281661,857,507,0,0,0,2,5,3,25,0002-00-0008-28.png,0001-00-0004-50.png
00000014,842,1,1445266284758,1445266285252,352,405,0,0,0,1,4,3,14,0004-00-0001-47.png,0005-00-0007-82.png
00000014,843,1,1445266286188,1445266286667,900,423,0,0,0,3,2,1,32,0003-00-0004-02.png,0002-00-0006-08.png
00000014,844,1,1445266287630,1445266288122,333,445,0,0,0,2,3,1,23,0002-00-0001-45.png,0003-00-0006-16.png
00000014,845,1,1445266289087,1445266289564,376,410,0,0,0,3,5,2,35,0003-00-0006-27.png,0001-00-0005-02.png
00000014,846,1,1445266290512,1445266291007,358,452,0,0,0,1,3,2,13,0004-00-0003-95.png,0003-00-0005-32.png
00000014,847,0,1445266292170,1445266292714,887,509,0,0,0,2,4,2,24,0002-00-0005-75.png,0005-00-0000-48.png
00000014,848,1,1445266295767,1445266296232,926,411,0,0,0,5,1,4,51,0001-00-0000-53.png,0004-00-0001-82.png
00000014,849,0,1445266297144,1445266297614,337,449,0,0,0,4,3,1,43,0005-00-0007-69.png,0003-00-0008-43.png
00000014,850,1,1445266300760,1445266301207,906,420,0,0,0,5,3,2,53,0001-00-0007-07.png,0003-00-0001-46.png
00000014,851,0,1445266302122,1445266302619,894,417,0,0,0,4,5,1,45,0005-00-0003-31.png,0001-00-0002-22.png
00000014,852,0,1445266305512,1445266305536,452,463,0,0,0,5,4,1,54,0001-00-0001-44.png,0005-00-0007-47.png
00000014,853,1,1445266308368,1445266308778,955,401,0,0,0,4,1,3,41,0005-00-0000-81.png,0004-00-0009-30.png
00000014,854,0,1445266309660,1445266310175,874,488,0,0,0,1,2,1,12,0004-00-0009-53.png,0002-00-0000-07.png
00000014,855,0,1445266313540,1445266314075,894,411,0,0,0,3,4,1,34,0003-00-0005-19.png,0005-00-0001-48.png
00000014,856,0,1445266317056,1445266317080,445,469,0,0,0,5,2,3,52,0001-00-0001-18.png,0002-00-0008-19.png
00000014,857,1,1445266319958,1445266320398,927,410,0,0,0,4,2,2,42,0005-00-0000-44.png,0002-00-0000-71.png
00000014,858,1,1445266321247,1445266321779,899,490,0,0,0,2,1,1,21,0002-00-0001-83.png,0004-00-0009-45.png
00000014,859,1,1445266323128,1445266323566,390,450,0,0,0,1,5,4,15,0004-00-0000-94.png,0001-00-0002-59.png
00000014,860,1,1445266324580,1445266325066,916,414,0,0,0,3,1,2,31,0003-00-0003-87.png,0004-00-0007-61.png
00000014,861,1,1445266326099,1445266326497,312,423,0,0,0,2,4,2,24,0002-00-0004-60.png,0005-00-0004-53.png
00000014,862,0,1445266327669,1445266328215,427,462,0,0,0,5,4,1,54,0001-00-0004-64.png,0005-00-0009-75.png
00000014,863,0,1445266331845,1445266332407,363,367,0,0,0,4,3,1,43,0005-00-0003-75.png,0003-00-0000-34.png
00000014,864,1,1445266335240,1445266335296,504,506,0,0,0,2,5,3,25,0002-00-0002-74.png,0001-00-0009-65.png
00000014,865,1,1445266336264,1445266336689,343,445,0,0,0,3,4,1,34,0003-00-0003-30.png,0005-00-0008-64.png
00000014,866,0,1445266337718,1445266338137,409,450,0,0,0,4,1,3,41,0005-00-0008-67.png,0004-00-0003-92.png
00000014,867,1,1445266340985,1445266341381,319,383,0,0,0,1,3,2,13,0004-00-0009-04.png,0003-00-0005-97.png
00000014,868,1,1445266342388,1445266342902,925,411,0,0,0,5,2,3,52,0001-00-0002-63.png,0002-00-0002-97.png
00000014,869,1,1445266343899,1445266344368,407,448,0,0,0,1,5,4,15,0004-00-0000-83.png,0001-00-0006-50.png
00000014,870,1,1445266345678,1445266346229,944,403,0,0,0,3,1,2,31,0003-00-0003-84.png,0004-00-0000-90.png
00000014,871,1,1445266347281,1445266347747,397,450,0,0,0,3,5,2,35,0003-00-0002-29.png,0001-00-0002-37.png
00000014,872,0,1445266348937,1445266349456,899,438,0,0,0,2,3,1,23,0002-00-0002-04.png,0003-00-0005-33.png
00000014,873,0,1445266352326,1445266352791,427,410,0,0,0,2,1,1,21,0002-00-0005-29.png,0004-00-0004-24.png
00000014,874,0,1445266356059,1445266356592,860,424,0,0,0,4,5,1,45,0005-00-0009-71.png,0001-00-0004-93.png
00000014,875,1,1445266359573,1445266360009,912,398,0,0,0,5,3,2,53,0001-00-0004-23.png,0003-00-0004-36.png
00000014,876,0,1445266360934,1445266361388,319,420,0,0,0,3,2,1,32,0003-00-0006-35.png,0002-00-0009-57.png
00000014,877,0,1445266364560,1445266365032,904,441,0,0,0,1,2,1,12,0004-00-0005-94.png,0002-00-0004-50.png
00000014,878,0,1445266368326,1445266368825,902,415,0,0,0,1,4,3,14,0004-00-0006-13.png,0005-00-0003-73.png
00000014,879,1,1445266372034,1445266372467,894,486,0,0,0,4,2,2,42,0005-00-0007-48.png,0002-00-0000-80.png
00000014,880,1,1445266373341,1445266373901,894,476,0,0,0,5,1,4,51,0001-00-0002-13.png,0004-00-0007-80.png
00000014,881,0,1445266374791,1445266375263,317,453,0,0,0,4,3,1,43,0005-00-0005-18.png,0003-00-0000-44.png
00000014,882,1,1445266378096,1445266378573,317,421,0,0,0,2,4,2,24,0002-00-0001-07.png,0005-00-0000-74.png
00000014,883,1,1445266379469,1445266380386,879,498,0,0,0,5,3,2,53,0001-00-0006-39.png,0003-00-0006-13.png
00000014,884,0,1445266381278,1445266381775,900,387,0,0,0,1,2,1,12,0004-00-0002-93.png,0002-00-0000-75.png
00000014,885,1,1445266385091,1445266385513,912,424,0,0,0,4,2,2,42,0005-00-0002-45.png,0002-00-0001-57.png
00000014,886,0,1445266386416,1445266386875,332,445,0,0,0,4,1,3,41,0005-00-0007-35.png,0004-00-0002-74.png
00000014,887,1,1445266389892,1445266390455,926,414,0,0,0,5,1,4,51,0001-00-0004-07.png,0004-00-0006-45.png
00000014,888,1,1445266391840,1445266392280,311,403,0,0,0,2,5,3,25,0002-00-0005-69.png,0001-00-0009-10.png
00000014,889,1,1445266393273,1445266393776,903,415,0,0,0,3,1,2,31,0003-00-0002-85.png,0004-00-0005-88.png
00000014,890,0,1445266394774,1445266395217,887,424,0,0,0,4,5,1,45,0005-00-0008-48.png,0001-00-0000-55.png
00000014,891,1,1445266398496,1445266398928,376,384,0,0,0,1,3,2,13,0004-00-0003-44.png,0003-00-0000-44.png
00000014,892,0,1445266399851,1445266400385,902,415,0,0,0,3,4,1,34,0003-00-0000-28.png,0005-00-0006-83.png
00000014,893,1,1445266403490,1445266403893,336,420,0,0,0,1,5,4,15,0004-00-0009-77.png,0001-00-0009-37.png
00000014,894,0,1445266404852,1445266405339,927,414,0,0,0,3,5,2,35,0003-00-0007-57.png,0001-00-0009-64.png
00000014,895,0,1445266408511,1445266408977,391,416,0,0,0,5,4,1,54,0001-00-0001-47.png,0005-00-0005-42.png
00000014,896,1,1445266413392,1445266413972,273,504,0,0,0,2,3,1,23,0002-00-0001-31.png,0003-00-0005-52.png
00000014,897,1,1445266414928,1445266415393,898,508,0,0,0,5,2,3,52,0001-00-0004-41.png,0002-00-0001-54.png
00000014,898,1,1445266416429,1445266416901,915,423,0,0,0,3,2,1,32,0003-00-0007-69.png,0002-00-0001-18.png
00000014,899,1,1445266417882,1445266418385,324,454,0,0,0,1,4,3,14,0004-00-0008-99.png,0005-00-0007-34.png
00000014,900,0,1445266419509,1445266419964,316,428,0,0,0,2,1,1,21,0002-00-0000-01.png,0004-00-0003-36.png
00000014,901,0,1445266423624,1445266424071,403,540,0,0,0,5,4,1,54,0001-00-0005-15.png,0005-00-0002-95.png
00000014,902,1,1445266426992,1445266427449,860,527,0,0,0,4,2,2,42,0005-00-0001-06.png,0002-00-0002-27.png
00000014,903,0,1445266428362,1445266428874,896,407,0,0,0,3,5,2,35,0003-00-0005-27.png,0001-00-0006-66.png
00000014,904,0,1445266432054,1445266432481,876,441,0,0,0,1,2,1,12,0004-00-0009-22.png,0002-00-0004-43.png
00000014,905,1,1445266435654,1445266436131,858,421,0,0,0,3,1,2,31,0003-00-0005-62.png,0004-00-0001-53.png
00000014,906,0,1445266437037,1445266437544,222,529,0,0,0,4,3,1,43,0005-00-0003-30.png,0003-00-0004-63.png
00000014,907,1,1445266440418,1445266440861,928,391,0,0,0,5,2,3,52,0001-00-0009-29.png,0002-00-0007-64.png
00000014,908,1,1445266441772,1445266442215,340,431,0,0,0,1,5,4,15,0004-00-0003-13.png,0001-00-0006-82.png
00000014,909,0,1445266443212,1445266443675,876,398,0,0,0,2,3,1,23,0002-00-0000-73.png,0003-00-0001-50.png
00000014,910,0,1445266446579,1445266446980,893,487,0,0,0,3,4,1,34,0003-00-0001-33.png,0005-00-0002-40.png
00000014,911,1,1445266450037,1445266450465,401,358,0,0,0,2,4,2,24,0002-00-0000-30.png,0005-00-0000-87.png
00000014,912,1,1445266451327,1445266451783,390,523,0,0,0,1,3,2,13,0004-00-0006-08.png,0003-00-0009-19.png
00000014,913,1,1445266452741,1445266453263,330,397,0,0,0,1,4,3,14,0004-00-0001-19.png,0005-00-0001-05.png
00000014,914,1,1445266454223,1445266454738,899,413,0,0,0,2,1,1,21,0002-00-0009-10.png,0004-00-0007-72.png
00000014,915,1,1445266455689,1445266456108,407,523,0,0,0,2,5,3,25,0002-00-0000-45.png,0001-00-0001-53.png
00000014,916,1,1445266457093,1445266457572,889,397,0,0,0,5,1,4,51,0001-00-0005-71.png,0004-00-0003-62.png
00000014,917,0,1445266458552,1445266458976,401,462,0,0,0,5,3,2,53,0001-00-0002-32.png,0003-00-0006-16.png
00000014,918,1,1445266462061,1445266462466,916,392,0,0,0,3,2,1,32,0003-00-0003-66.png,0002-00-0006-26.png
00000014,919,1,1445266463354,1445266463855,898,430,0,0,0,4,1,3,41,0005-00-0007-93.png,0004-00-0003-74.png
00000014,920,0,1445266464895,1445266465391,870,420,0,0,0,4,5,1,45,0005-00-0002-97.png,0001-00-0007-68.png
00000014,921,1,1445266468379,1445266468812,346,402,0,0,0,2,3,1,23,0002-00-0008-17.png,0003-00-0009-79.png
00000014,922,1,1445266469915,1445266470386,888,423,0,0,0,4,3,1,43,0005-00-0002-40.png,0003-00-0006-94.png
00000014,923,1,1445266471338,1445266471785,414,449,0,0,0,2,4,2,24,0002-00-0009-39.png,0005-00-0004-34.png
00000014,924,0,1445266473283,1445266474174,873,377,0,0,0,3,5,2,35,0003-00-0003-56.png,0001-00-0005-89.png
00000014,925,1,1445266477293,1445266477721,376,410,0,0,0,1,4,3,14,0004-00-0009-81.png,0005-00-0008-30.png
00000014,926,1,1445266478631,1445266479101,340,439,0,0,0,3,4,1,34,0003-00-0002-42.png,0005-00-0000-27.png
00000014,927,1,1445266480030,1445266480531,933,387,0,0,0,5,2,3,52,0001-00-0003-48.png,0002-00-0007-15.png
00000014,928,1,1445266481630,1445266482093,890,425,0,0,0,4,2,2,42,0005-00-0002-24.png,0002-00-0007-69.png
00000014,929,1,1445266483121,1445266483600,387,449,0,0,0,1,2,1,12,0004-00-0004-85.png,0002-00-0002-57.png
00000014,930,1,1445266484772,1445266485262,897,456,0,0,0,3,2,1,32,0003-00-0009-52.png,0002-00-0004-81.png
00000014,931,1,1445266486363,1445266486967,369,380,0,0,0,1,5,4,15,0004-00-0009-52.png,0001-00-0000-21.png
00000014,932,0,1445266488102,1445266488601,345,472,0,0,0,5,3,2,53,0001-00-0007-37.png,0003-00-0008-79.png
00000014,933,1,1445266491509,1445266491995,908,427,0,0,0,2,1,1,21,0002-00-0007-91.png,0004-00-0002-00.png
00000014,934,0,1445266492982,1445266493404,461,467,0,0,0,5,1,4,51,0001-00-0004-63.png,0004-00-0003-70.png
00000014,935,0,1445266496537,1445266496964,352,395,0,0,0,5,4,1,54,0001-00-0002-06.png,0005-00-0007-36.png
00000014,936,0,1445266499888,1445266500301,905,375,0,0,0,4,5,1,45,0005-00-0008-84.png,0001-00-0009-77.png
00000014,937,1,1445266503283,1445266503741,376,384,0,0,0,1,3,2,13,0004-00-0000-54.png,0003-00-0000-41.png
00000014,938,1,1445266504637,1445266505122,375,540,0,0,0,2,5,3,25,0002-00-0008-24.png,0001-00-0005-69.png
00000014,939,1,1445266506060,1445266506554,899,412,0,0,0,4,1,3,41,0005-00-0005-05.png,0004-00-0005-69.png
00000014,940,1,1445266507491,1445266507999,895,414,0,0,0,3,1,2,31,0003-00-0009-71.png,0004-00-0004-85.png
00000014,941,1,1445266508928,1445266509469,875,384,0,0,0,5,1,4,51,0001-00-0009-87.png,0004-00-0007-70.png
00000014,942,0,1445266510471,1445266510910,341,456,0,0,0,3,1,2,31,0003-00-0004-41.png,0004-00-0003-22.png
