subject_id,trial,correct_response,stim_time,response_time,x_coord,y_coord,trial_timeout,timeout_time,interTrial_timeout,left_rank,right_rank,distance,joint_rank,left_image,right_image
00000009,1,0,1445268490694,1445268491412,889,356,0,0,0,1,4,3,14,0004-00-0006-37.png,0005-00-0004-24.png
00000009,2,1,1445268494582,1445268495441,1066,301,0,0,0,3,2,1,32,0003-00-0001-39.png,0002-00-0009-92.png
00000009,3,1,1445268496549,1445268496609,891,358,0,0,0,5,1,4,51,0001-00-0009-33.png,0004-00-0001-05.png
00000009,4,1,1445268497889,1445268498617,1067,265,0,0,0,5,2,3,52,0001-00-0004-03.png,0002-00-0004-60.png
00000009,5,0,1445268499545,1445268500203,426,254,0,0,0,5,4,1,54,0001-00-0005-58.png,0005-00-0004-77.png
00000009,6,0,1445268503088,1445268503100,903,314,0,0,0,3,4,1,34,0003-00-0001-08.png,0005-00-0008-72.png
00000009,7,1,1445268506400,1445268507006,329,399,0,0,0,2,4,2,24,0002-00-0006-63.png,0005-00-0008-13.png
00000009,8,1,1445268508057,1445268508854,429,246,0,0,0,1,5,4,15,0004-00-0008-16.png,0001-00-0007-17.png
00000009,9,1,1445268509838,1445268510557,1100,247,0,0,0,4,2,2,42,0005-00-0003-11.png,0002-00-0007-26.png
00000009,10,1,1445268511588,1445268511636,926,410,0,0,0,4,3,1,43,0005-00-0003-69.png,0003-00-0003-27.png
00000009,11,0,1445268512883,1445268512937,875,364,0,0,0,3,5,2,35,0003-00-0004-02.png,0001-00-0005-00.png
00000009,12,1,1445268516047,1445268516556,1045,285,0,0,0,4,1,3,41,0005-00-0002-14.png,0004-00-0004-67.png
00000009,13,0,1445268517544,1445268518434,1059,286,0,0,0,4,5,1,45,0005-00-0002-82.png,0001-00-0006-48.png
00000009,14,1,1445268521564,1445268522267,346,389,0,0,0,2,5,3,25,0002-00-0002-52.png,0001-00-0008-93.png
00000009,15,1,1445268523153,1445268523928,1051,251,0,0,0,3,1,2,31,0003-00-0004-99.png,0004-00-0004-46.png
00000009,16,0,1445268524861,1445268524929,880,380,0,0,0,2,3,1,23,0002-00-0001-30.png,0003-00-0006-39.png
00000009,17,0,1445268527942,1445268528520,361,395,0,0,0,2,1,1,21,0002-00-0003-39.png,0004-00-0000-86.png
00000009,18,0,1445268531650,1445268532184,966,445,0,0,0,1,2,1,12,0004-00-0007-42.png,0002-00-0008-06.png
00000009,19,1,1445268535105,1445268535574,362,406,0,0,0,1,3,2,13,0004-00-0000-83.png,0003-00-0009-40.png
00000009,20,1,1445268536405,1445268536481,878,436,0,0,0,5,3,2,53,0001-00-0008-94.png,0003-00-0005-04.png
00000009,21,1,1445268537494,1445268538371,954,359,0,0,0,4,2,2,42,0005-00-0004-89.png,0002-00-0000-66.png
00000009,22,0,1445268539271,1445268539327,900,345,0,0,0,3,4,1,34,0003-00-0001-01.png,0005-00-0008-07.png
00000009,23,1,1445268542449,1445268542995,1062,302,0,0,0,5,4,1,54,0001-00-0009-74.png,0005-00-0002-46.png
00000009,24,1,1445268543938,1445268544671,417,390,0,0,0,2,3,1,23,0002-00-0002-20.png,0003-00-0004-47.png
00000009,25,1,1445268545681,1445268545729,902,354,0,0,0,5,1,4,51,0001-00-0002-78.png,0004-00-0001-78.png
00000009,26,0,1445268546827,1445268546869,879,361,0,0,0,2,4,2,24,0002-00-0007-88.png,0005-00-0004-26.png
00000009,27,0,1445268550221,1445268550752,379,378,0,0,0,5,2,3,52,0001-00-0009-27.png,0002-00-0008-79.png
00000009,28,0,1445268553798,1445268553995,932,341,0,0,0,1,2,1,12,0004-00-0005-46.png,0002-00-0003-66.png
00000009,29,0,1445268557130,1445268557675,954,436,0,0,0,2,5,3,25,0002-00-0005-98.png,0001-00-0003-85.png
00000009,30,0,1445268563371,1445268564046,435,224,0,0,0,4,3,1,43,0005-00-0000-27.png,0003-00-0005-76.png
00000009,31,0,1445268566918,1445268567076,888,372,0,0,0,4,5,1,45,0005-00-0000-20.png,0001-00-0001-62.png
00000009,32,0,1445268570169,1445268570788,374,348,0,0,0,5,3,2,53,0001-00-0002-05.png,0003-00-0009-61.png
00000009,33,1,1445268574082,1445268574237,861,349,0,0,0,2,1,1,21,0002-00-0007-24.png,0004-00-0006-50.png
00000009,34,1,1445268575238,1445268575877,1067,267,0,0,0,3,2,1,32,0003-00-0002-25.png,0002-00-0001-55.png
00000009,35,1,1445268577294,1445268578163,416,384,0,0,0,3,5,2,35,0003-00-0001-04.png,0001-00-0008-79.png
00000009,36,1,1445268579104,1445268579964,385,376,0,0,0,1,5,4,15,0004-00-0007-08.png,0001-00-0007-96.png
00000009,37,1,1445268580900,1445268582181,443,264,0,0,0,1,4,3,14,0004-00-0007-61.png,0005-00-0000-88.png
00000009,38,1,1445268583126,1445268583831,437,307,0,0,0,1,3,2,13,0004-00-0005-02.png,0003-00-0001-74.png
00000009,39,1,1445268585045,1445268585438,1046,535,0,0,0,4,1,3,41,0005-00-0009-80.png,0004-00-0000-39.png
00000009,40,1,1445268586465,1445268586561,888,384,0,0,0,3,1,2,31,0003-00-0002-02.png,0004-00-0000-72.png
00000009,41,1,1445268587578,1445268588542,931,338,0,0,0,5,4,1,54,0001-00-0006-23.png,0005-00-0007-71.png
00000009,42,0,1445268589487,1445268589523,882,393,0,0,0,2,4,2,24,0002-00-0002-76.png,0005-00-0000-60.png
00000009,43,1,1445268592437,1445268592669,893,310,0,0,0,3,1,2,31,0003-00-0008-37.png,0004-00-0003-26.png
00000009,44,1,1445268594048,1445268594632,487,264,0,0,0,1,4,3,14,0004-00-0004-44.png,0005-00-0006-73.png
00000009,45,1,1445268595459,1445268596091,923,355,0,0,0,4,2,2,42,0005-00-0004-97.png,0002-00-0002-73.png
00000009,46,1,1445268596966,1445268597027,862,394,0,0,0,5,3,2,53,0001-00-0005-48.png,0003-00-0000-08.png
00000009,47,0,1445268598122,1445268598834,885,376,0,0,0,4,5,1,45,0005-00-0007-37.png,0001-00-0008-03.png
00000009,48,0,1445268601964,1445268602203,909,330,0,0,0,1,3,2,13,0004-00-0004-52.png,0003-00-0008-80.png
00000009,49,0,1445268605596,1445268606048,938,416,0,0,0,3,5,2,35,0003-00-0000-89.png,0001-00-0008-87.png
00000009,50,1,1445268608891,1445268609797,394,405,0,0,0,2,3,1,23,0002-00-0002-32.png,0003-00-0001-46.png
00000009,51,0,1445268610688,1445268611297,473,242,0,0,0,5,2,3,52,0001-00-0001-54.png,0002-00-0007-16.png
00000009,52,1,1445268614437,1445268614928,1073,309,0,0,0,5,1,4,51,0001-00-0000-25.png,0004-00-0007-19.png
00000009,53,1,1445268615859,1445268616448,444,234,0,0,0,1,2,1,12,0004-00-0007-44.png,0002-00-0007-32.png
00000009,54,0,1445268617366,1445268618381,1032,253,0,0,0,3,4,1,34,0003-00-0000-25.png,0005-00-0004-83.png
00000009,55,1,1445268621277,1445268621387,905,287,0,0,0,4,3,1,43,0005-00-0005-58.png,0003-00-0006-61.png
00000009,56,1,1445268622258,1445268622887,421,270,0,0,0,2,5,3,25,0002-00-0009-00.png,0001-00-0007-43.png
00000009,57,1,1445268623949,1445268624076,900,436,0,0,0,3,2,1,32,0003-00-0009-83.png,0002-00-0001-14.png
00000009,58,1,1445268625043,1445268625846,337,344,0,0,0,1,5,4,15,0004-00-0001-96.png,0001-00-0008-57.png
00000009,59,1,1445268626706,1445268627494,1035,269,0,0,0,4,1,3,41,0005-00-0009-40.png,0004-00-0003-69.png
00000009,60,0,1445268628827,1445268629547,468,232,0,0,0,2,1,1,21,0002-00-0005-73.png,0004-00-0006-85.png
00000009,61,0,1445268632655,1445268632755,862,462,0,0,0,2,5,3,25,0002-00-0008-78.png,0001-00-0001-36.png
00000009,62,0,1445268635616,1445268635700,1017,336,0,0,0,1,5,4,15,0004-00-0005-55.png,0001-00-0000-64.png
00000009,63,1,1445268638766,1445268639349,959,427,0,0,0,4,1,3,41,0005-00-0000-51.png,0004-00-0006-44.png
00000009,64,1,1445268640197,1445268640805,948,355,0,0,0,5,2,3,52,0001-00-0000-25.png,0002-00-0006-15.png
00000009,65,1,1445268641653,1445268642429,1113,287,0,0,0,5,1,4,51,0001-00-0005-52.png,0004-00-0007-51.png
00000009,66,0,1445268643367,1445268643419,910,374,0,0,0,1,4,3,14,0004-00-0001-48.png,0005-00-0005-26.png
00000009,67,1,1445268646697,1445268647209,1060,300,0,0,0,3,2,1,32,0003-00-0002-30.png,0002-00-0009-84.png
00000009,68,1,1445268648045,1445268648640,447,233,0,0,0,2,4,2,24,0002-00-0005-60.png,0005-00-0003-28.png
00000009,69,0,1445268649519,1445268650270,360,380,0,0,0,2,1,1,21,0002-00-0001-17.png,0004-00-0006-72.png
00000009,70,1,1445268653395,1445268653423,890,280,0,0,0,4,2,2,42,0005-00-0008-15.png,0002-00-0007-19.png
00000009,71,0,1445268654338,1445268655341,971,430,0,0,0,4,5,1,45,0005-00-0004-81.png,0001-00-0004-44.png
00000009,72,1,1445268658738,1445268659224,376,462,0,0,0,1,3,2,13,0004-00-0001-55.png,0003-00-0008-74.png
00000009,73,0,1445268660520,1445268661166,1050,314,0,0,0,3,5,2,35,0003-00-0009-15.png,0001-00-0002-89.png
00000009,74,1,1445268664258,1445268664781,966,333,0,0,0,4,3,1,43,0005-00-0002-61.png,0003-00-0009-05.png
00000009,75,1,1445268665717,1445268666337,911,345,0,0,0,5,4,1,54,0001-00-0009-46.png,0005-00-0004-26.png
00000009,76,0,1445268667289,1445268667345,862,421,0,0,0,2,3,1,23,0002-00-0007-49.png,0003-00-0005-86.png
00000009,77,0,1445268670734,1445268670976,888,296,0,0,0,3,4,1,34,0003-00-0006-89.png,0005-00-0006-12.png
00000009,78,1,1445268673841,1445268674536,365,399,0,0,0,1,2,1,12,0004-00-0000-16.png,0002-00-0009-01.png
00000009,79,1,1445268675355,1445268675916,914,370,0,0,0,3,1,2,31,0003-00-0007-60.png,0004-00-0003-78.png
00000009,80,1,1445268676907,1445268676935,889,394,0,0,0,5,3,2,53,0001-00-0005-84.png,0003-00-0003-18.png
00000009,81,0,1445268678198,1445268678274,904,410,0,0,0,1,4,3,14,0004-00-0009-54.png,0005-00-0004-69.png
00000009,82,1,1445268681227,1445268681247,498,444,0,0,0,3,5,2,35,0003-00-0009-79.png,0001-00-0007-36.png
00000009,83,1,1445268682373,1445268682965,351,376,0,0,0,2,4,2,24,0002-00-0003-33.png,0005-00-0003-25.png
00000009,84,1,1445268683883,1445268683939,884,395,0,0,0,5,2,3,52,0001-00-0006-39.png,0002-00-0009-21.png
00000009,85,1,1445268685095,1445268685103,874,401,0,0,0,5,3,2,53,0001-00-0005-64.png,0003-00-0002-15.png
00000009,86,1,1445268686169,1445268686193,872,361,0,0,0,3,2,1,32,0003-00-0001-13.png,0002-00-0009-05.png
00000009,87,1,1445268687332,1445268687392,879,445,0,0,0,5,1,4,51,0001-00-0009-09.png,0004-00-0008-65.png
00000009,88,1,1445268688822,1445268689689,414,358,0,0,0,3,4,1,34,0003-00-0001-75.png,0005-00-0009-24.png
00000009,89,1,1445268690660,1445268691391,318,384,0,0,0,1,3,2,13,0004-00-0005-33.png,0003-00-0009-90.png
00000009,90,1,1445268692288,1445268693048,395,323,0,0,0,1,2,1,12,0004-00-0002-41.png,0002-00-0003-41.png
00000009,91,0,1445268694159,1445268694195,878,408,0,0,0,2,5,3,25,0002-00-0003-21.png,0001-00-0008-11.png
00000009,92,1,1445268697348,1445268698264,951,346,0,0,0,4,2,2,42,0005-00-0006-28.png,0002-00-0008-93.png
00000009,93,1,1445268699114,1445268699773,433,243,0,0,0,1,5,4,15,0004-00-0004-82.png,0001-00-0009-29.png
00000009,94,1,1445268700657,1445268701350,425,252,0,0,0,2,3,1,23,0002-00-0009-51.png,0003-00-0008-92.png
00000009,95,0,1445268702286,1445268702979,435,221,0,0,0,4,1,3,41,0005-00-0004-24.png,0004-00-0003-16.png
00000009,96,1,1445268706053,1445268706274,933,344,0,0,0,2,1,1,21,0002-00-0004-69.png,0004-00-0000-96.png
00000009,97,1,1445268707156,1445268707244,913,452,0,0,0,3,1,2,31,0003-00-0007-94.png,0004-00-0009-83.png
00000009,98,0,1445268708261,1445268709224,1044,289,0,0,0,4,5,1,45,0005-00-0004-85.png,0001-00-0002-30.png
00000009,99,1,1445268712104,1445268712132,867,332,0,0,0,4,3,1,43,0005-00-0003-28.png,0003-00-0009-59.png
00000009,100,0,1445268713090,1445268713633,449,257,0,0,0,5,4,1,54,0001-00-0007-56.png,0005-00-0005-56.png
00000009,101,1,1445268717450,1445268717994,1079,308,0,0,0,5,4,1,54,0001-00-0006-88.png,0005-00-0005-96.png
00000009,102,1,1445268719299,1445268719962,1048,300,0,0,0,4,1,3,41,0005-00-0001-06.png,0004-00-0001-87.png
00000009,103,1,1445268720795,1445268720855,862,410,0,0,0,5,1,4,51,0001-00-0000-30.png,0004-00-0007-61.png
00000009,104,1,1445268721792,1445268721852,862,421,0,0,0,2,1,1,21,0002-00-0001-74.png,0004-00-0004-23.png
00000009,105,0,1445268722965,1445268723028,870,430,0,0,0,2,5,3,25,0002-00-0009-61.png,0001-00-0007-96.png
00000009,106,0,1445268726137,1445268726161,882,380,0,0,0,2,4,2,24,0002-00-0000-31.png,0005-00-0009-47.png
00000009,107,0,1445268729238,1445268729721,1067,243,0,0,0,4,5,1,45,0005-00-0001-74.png,0001-00-0003-52.png
00000009,108,1,1445268732856,1445268733600,350,406,0,0,0,3,5,2,35,0003-00-0007-35.png,0001-00-0002-51.png
00000009,109,1,1445268734440,1445268735124,430,303,0,0,0,1,3,2,13,0004-00-0002-61.png,0003-00-0008-04.png
00000009,110,0,1445268736056,1445268736100,873,401,0,0,0,2,3,1,23,0002-00-0002-53.png,0003-00-0008-48.png
00000009,111,1,1445268739076,1445268739558,959,354,0,0,0,3,2,1,32,0003-00-0000-25.png,0002-00-0002-39.png
00000009,112,1,1445268740414,1445268741057,1041,292,0,0,0,5,3,2,53,0001-00-0007-90.png,0003-00-0005-33.png
00000009,113,1,1445268741987,1445268742035,867,394,0,0,0,5,2,3,52,0001-00-0004-15.png,0002-00-0003-80.png
00000009,114,1,1445268743040,1445268743800,415,291,0,0,0,1,4,3,14,0004-00-0002-92.png,0005-00-0007-73.png
00000009,115,0,1445268744989,1445268745065,872,410,0,0,0,1,5,4,15,0004-00-0005-59.png,0001-00-0005-39.png
00000009,116,1,1445268748220,1445268748335,919,299,0,0,0,3,1,2,31,0003-00-0000-71.png,0004-00-0009-19.png
00000009,117,1,1445268749272,1445268750302,948,325,0,0,0,4,3,1,43,0005-00-0007-25.png,0003-00-0009-17.png
00000009,118,0,1445268751188,1445268751216,862,332,0,0,0,3,4,1,34,0003-00-0008-48.png,0005-00-0004-49.png
00000009,119,0,1445268754231,1445268754876,1050,262,0,0,0,1,2,1,12,0004-00-0008-67.png,0002-00-0003-59.png
00000009,120,1,1445268757837,1445268758350,944,304,0,0,0,4,2,2,42,0005-00-0004-14.png,0002-00-0008-57.png
00000009,121,1,1445268759671,1445268760257,468,245,0,0,0,2,4,2,24,0002-00-0008-80.png,0005-00-0001-20.png
00000009,122,1,1445268761615,1445268762257,1052,306,0,0,0,4,2,2,42,0005-00-0007-08.png,0002-00-0005-90.png
00000009,123,0,1445268763146,1445268763174,872,414,0,0,0,2,3,1,23,0002-00-0006-75.png,0003-00-0001-14.png
00000009,124,1,1445268766026,1445268766074,936,370,0,0,0,4,3,1,43,0005-00-0000-97.png,0003-00-0005-28.png
00000009,125,0,1445268767030,1445268767888,424,243,0,0,0,2,1,1,21,0002-00-0004-56.png,0004-00-0001-35.png
00000009,126,1,1445268771275,1445268771821,1067,290,0,0,0,5,3,2,53,0001-00-0007-44.png,0003-00-0000-19.png
00000009,127,1,1445268773161,1445268773785,428,266,0,0,0,1,4,3,14,0004-00-0001-79.png,0005-00-0006-83.png
00000009,128,1,1445268775148,1445268775631,1028,541,0,0,0,5,2,3,52,0001-00-0008-01.png,0002-00-0003-69.png
00000009,129,0,1445268776559,1445268776608,894,349,0,0,0,1,2,1,12,0004-00-0004-30.png,0002-00-0006-15.png
00000009,130,1,1445268779990,1445268780476,1048,279,0,0,0,4,1,3,41,0005-00-0003-46.png,0004-00-0007-56.png
00000009,131,1,1445268781748,1445268782571,472,231,0,0,0,1,5,4,15,0004-00-0006-21.png,0001-00-0005-07.png
00000009,132,0,1445268783884,1445268784696,476,275,0,0,0,5,4,1,54,0001-00-0008-29.png,0005-00-0003-98.png
00000009,133,0,1445268788219,1445268788490,984,304,0,0,0,1,3,2,13,0004-00-0002-36.png,0003-00-0005-76.png
00000009,134,1,1445268791429,1445268791976,923,415,0,0,0,3,1,2,31,0003-00-0009-41.png,0004-00-0005-38.png
00000009,135,1,1445268793215,1445268793738,386,373,0,0,0,2,5,3,25,0002-00-0002-89.png,0001-00-0003-51.png
00000009,136,1,1445268794584,1445268795286,437,255,0,0,0,4,5,1,45,0005-00-0004-20.png,0001-00-0008-52.png
00000009,137,1,1445268796297,1445268796981,935,429,0,0,0,3,2,1,32,0003-00-0001-94.png,0002-00-0001-51.png
00000009,138,0,1445268797924,1445268797952,894,402,0,0,0,3,4,1,34,0003-00-0003-90.png,0005-00-0003-91.png
00000009,139,1,1445268801444,1445268801897,935,324,0,0,0,5,1,4,51,0001-00-0008-79.png,0004-00-0001-93.png
00000009,140,1,1445268803243,1445268804108,428,241,0,0,0,3,5,2,35,0003-00-0009-58.png,0001-00-0006-26.png
00000009,141,1,1445268804940,1445268805608,1032,259,0,0,0,3,2,1,32,0003-00-0008-12.png,0002-00-0007-71.png
00000009,142,1,1445268806562,1445268806582,892,375,0,0,0,5,3,2,53,0001-00-0004-39.png,0003-00-0000-85.png
00000009,143,1,1445268807833,1445268807873,878,399,0,0,0,2,1,1,21,0002-00-0005-07.png,0004-00-0006-45.png
00000009,144,1,1445268809055,1445268810183,437,251,0,0,0,3,4,1,34,0003-00-0008-70.png,0005-00-0004-93.png
00000009,145,1,1445268811093,1445268811815,408,430,0,0,0,2,3,1,23,0002-00-0005-24.png,0003-00-0000-31.png
00000009,146,1,1445268812692,1445268813366,903,349,0,0,0,4,2,2,42,0005-00-0007-45.png,0002-00-0005-98.png
00000009,147,1,1445268814262,1445268814282,893,384,0,0,0,5,2,3,52,0001-00-0002-18.png,0002-00-0002-06.png
00000009,148,1,1445268815335,1445268815355,882,414,0,0,0,5,4,1,54,0001-00-0002-21.png,0005-00-0004-28.png
00000009,149,1,1445268816519,1445268816559,873,447,0,0,0,5,1,4,51,0001-00-0002-94.png,0004-00-0004-71.png
00000009,150,1,1445268817642,1445268817666,861,421,0,0,0,4,3,1,43,0005-00-0007-36.png,0003-00-0005-84.png
00000009,151,0,1445268818762,1445268818802,862,451,0,0,0,2,5,3,25,0002-00-0002-50.png,0001-00-0003-80.png
00000009,152,0,1445268821763,1445268822266,964,393,0,0,0,1,2,1,12,0004-00-0007-34.png,0002-00-0006-73.png
00000009,153,0,1445268825122,1445268825182,862,358,0,0,0,1,4,3,14,0004-00-0003-03.png,0005-00-0009-50.png
00000009,154,1,1445268828264,1445268828893,372,416,0,0,0,1,3,2,13,0004-00-0001-43.png,0003-00-0000-42.png
00000009,155,1,1445268830213,1445268830781,441,279,0,0,0,2,4,2,24,0002-00-0004-15.png,0005-00-0008-44.png
00000009,156,1,1445268832179,1445268832695,1049,288,0,0,0,4,1,3,41,0005-00-0008-43.png,0004-00-0001-93.png
00000009,157,0,1445268833539,1445268833599,913,384,0,0,0,4,5,1,45,0005-00-0006-33.png,0001-00-0005-13.png
00000009,158,1,1445268836700,1445268837157,1060,246,0,0,0,3,1,2,31,0003-00-0005-00.png,0004-00-0008-12.png
00000009,159,0,1445268838481,1445268838993,1052,306,0,0,0,3,5,2,35,0003-00-0005-53.png,0001-00-0006-46.png
00000009,160,1,1445268842262,1445268842741,401,291,0,0,0,1,5,4,15,0004-00-0007-32.png,0001-00-0004-16.png
00000009,161,1,1445268844015,1445268844637,381,402,0,0,0,1,4,3,14,0004-00-0009-26.png,0005-00-0009-75.png
00000009,162,1,1445268845922,1445268846529,452,265,0,0,0,1,3,2,13,0004-00-0003-72.png,0003-00-0008-42.png
00000009,163,1,1445268847496,1445268848221,331,378,0,0,0,2,4,2,24,0002-00-0005-00.png,0005-00-0005-76.png
00000009,164,1,1445268849203,1445268849979,1035,261,0,0,0,3,2,1,32,0003-00-0006-29.png,0002-00-0003-19.png
00000009,165,1,1445268850942,1445268850958,905,429,0,0,0,5,4,1,54,0001-00-0008-05.png,0005-00-0007-75.png
00000009,166,1,1445268852164,1445268852995,1030,266,0,0,0,2,1,1,21,0002-00-0009-46.png,0004-00-0002-91.png
00000009,167,0,1445268853861,1445268853873,859,418,0,0,0,3,4,1,34,0003-00-0009-68.png,0005-00-0007-77.png
00000009,168,1,1445268856923,1445268857183,901,385,0,0,0,4,3,1,43,0005-00-0006-81.png,0003-00-0004-45.png
00000009,169,1,1445268858075,1445268859095,376,375,0,0,0,3,5,2,35,0003-00-0008-19.png,0001-00-0009-90.png
00000009,170,0,1445268860003,1445268860998,897,331,0,0,0,4,5,1,45,0005-00-0005-19.png,0001-00-0008-27.png
00000009,171,1,1445268863950,1445268864396,917,360,0,0,0,5,1,4,51,0001-00-0006-77.png,0004-00-0004-07.png
00000009,172,1,1445268865269,1445268865836,1067,269,0,0,0,4,1,3,41,0005-00-0002-27.png,0004-00-0005-22.png
00000009,173,1,1445268866740,1445268866792,913,394,0,0,0,5,2,3,52,0001-00-0007-92.png,0002-00-0009-73.png
00000009,174,1,1445268868134,1445268868771,442,249,0,0,0,2,3,1,23,0002-00-0006-16.png,0003-00-0004-89.png
00000009,175,1,1445268869679,1445268870384,353,363,0,0,0,1,5,4,15,0004-00-0008-38.png,0001-00-0007-10.png
00000009,176,1,1445268871218,1445268871282,870,419,0,0,0,5,3,2,53,0001-00-0004-25.png,0003-00-0006-77.png
00000009,177,0,1445268872603,1445268872635,897,429,0,0,0,1,2,1,12,0004-00-0003-46.png,0002-00-0005-44.png
00000009,178,1,1445268875793,1445268876267,1041,279,0,0,0,4,2,2,42,0005-00-0002-99.png,0002-00-0000-83.png
00000009,179,0,1445268877105,1445268877173,862,462,0,0,0,2,5,3,25,0002-00-0000-65.png,0001-00-0000-19.png
00000009,180,1,1445268880277,1445268880541,967,313,0,0,0,3,1,2,31,0003-00-0006-56.png,0004-00-0006-71.png
00000009,181,0,1445268881805,1445268882416,480,232,0,0,0,4,2,2,42,0005-00-0001-70.png,0002-00-0009-99.png
00000009,182,0,1445268885354,1445268885937,367,384,0,0,0,2,1,1,21,0002-00-0008-55.png,0004-00-0003-62.png
00000009,183,1,1445268889019,1445268889233,927,347,0,0,0,3,1,2,31,0003-00-0003-76.png,0004-00-0008-85.png
00000009,184,1,1445268890122,1445268890908,1022,272,0,0,0,4,1,3,41,0005-00-0009-61.png,0004-00-0007-76.png
00000009,185,0,1445268891841,1445268891869,862,384,0,0,0,2,3,1,23,0002-00-0007-26.png,0003-00-0005-08.png
00000009,186,1,1445268894991,1445268895459,453,292,0,0,0,2,4,2,24,0002-00-0007-32.png,0005-00-0002-99.png
00000009,187,0,1445268896782,1445268897318,949,395,0,0,0,3,4,1,34,0003-00-0003-06.png,0005-00-0000-81.png
00000009,188,0,1445268900200,1445268901239,308,389,0,0,0,5,4,1,54,0001-00-0001-77.png,0005-00-0002-49.png
00000009,189,1,1445268904334,1445268905079,1105,306,0,0,0,4,3,1,43,0005-00-0006-64.png,0003-00-0002-07.png
00000009,190,0,1445268906351,1445268907523,426,272,0,0,0,5,3,2,53,0001-00-0002-17.png,0003-00-0002-14.png
00000009,191,1,1445268915449,1445268915461,939,446,0,0,0,3,2,1,32,0003-00-0000-07.png,0002-00-0005-82.png
00000009,192,0,1445268916535,1445268917107,371,358,0,0,0,5,2,3,52,0001-00-0005-24.png,0002-00-0004-93.png
00000009,193,0,1445268920649,1445268920661,879,314,0,0,0,3,5,2,35,0003-00-0006-08.png,0001-00-0000-65.png
00000009,194,1,1445268923768,1445268924266,381,455,0,0,0,1,3,2,13,0004-00-0009-86.png,0003-00-0008-10.png
00000009,195,1,1445268925598,1445268926111,455,257,0,0,0,1,4,3,14,0004-00-0005-22.png,0005-00-0001-24.png
00000009,196,0,1445268926989,1445268927813,1028,264,0,0,0,1,2,1,12,0004-00-0000-76.png,0002-00-0009-15.png
00000009,197,1,1445268930936,1445268931547,446,286,0,0,0,1,5,4,15,0004-00-0002-10.png,0001-00-0001-47.png
00000009,198,1,1445268933330,1445268933864,438,284,0,0,0,2,5,3,25,0002-00-0001-76.png,0001-00-0002-06.png
00000009,199,1,1445268934727,1445268935367,1041,253,0,0,0,5,1,4,51,0001-00-0002-94.png,0004-00-0002-30.png
00000009,200,0,1445268936330,1445268936378,888,384,0,0,0,4,5,1,45,0005-00-0008-89.png,0001-00-0003-71.png
00000009,201,0,1445268939282,1445268939830,385,365,0,0,0,5,2,3,52,0001-00-0006-74.png,0002-00-0008-94.png
00000009,202,0,1445268942921,1445268943849,334,380,0,0,0,5,4,1,54,0001-00-0003-76.png,0005-00-0001-55.png
00000009,203,1,1445268947005,1445268947924,962,382,0,0,0,4,1,3,41,0005-00-0001-81.png,0004-00-0006-53.png
00000009,204,0,1445268948800,1445268949790,455,237,0,0,0,4,2,2,42,0005-00-0004-74.png,0002-00-0009-39.png
00000009,205,1,1445268952976,1445268953529,501,278,0,0,0,1,2,1,12,0004-00-0002-04.png,0002-00-0004-93.png
00000009,206,1,1445268954845,1445268955428,912,361,0,0,0,3,1,2,31,0003-00-0005-18.png,0004-00-0008-18.png
00000009,207,1,1445268956262,1445268956310,904,391,0,0,0,5,3,2,53,0001-00-0005-48.png,0003-00-0004-34.png
00000009,208,0,1445268957339,1445268957387,862,399,0,0,0,2,5,3,25,0002-00-0008-93.png,0001-00-0001-06.png
00000009,209,1,1445268960508,1445268961242,319,377,0,0,0,3,5,2,35,0003-00-0006-21.png,0001-00-0003-31.png
00000009,210,0,1445268962118,1445268962502,990,488,0,0,0,3,4,1,34,0003-00-0000-22.png,0005-00-0003-66.png
00000009,211,1,1445268965736,1445268966190,389,395,0,0,0,2,4,2,24,0002-00-0000-14.png,0005-00-0005-62.png
00000009,212,1,1445268967505,1445268968077,459,266,0,0,0,1,3,2,13,0004-00-0008-64.png,0003-00-0000-65.png
00000009,213,1,1445268969074,1445268969741,872,390,0,0,0,5,1,4,51,0001-00-0005-50.png,0004-00-0008-97.png
00000009,214,0,1445268970662,1445268970674,942,436,0,0,0,1,4,3,14,0004-00-0001-16.png,0005-00-0006-08.png
00000009,215,0,1445268973804,1445268974375,454,269,0,0,0,2,1,1,21,0002-00-0001-34.png,0004-00-0001-15.png
00000009,216,0,1445268979390,1445268979426,976,308,0,0,0,1,5,4,15,0004-00-0009-48.png,0001-00-0005-69.png
00000009,217,1,1445268982298,1445268982826,453,291,0,0,0,2,3,1,23,0002-00-0001-45.png,0003-00-0006-73.png
00000009,218,1,1445268984171,1445268984726,1063,275,0,0,0,3,2,1,32,0003-00-0008-98.png,0002-00-0002-32.png
00000009,219,0,1445268985568,1445268985584,864,408,0,0,0,4,5,1,45,0005-00-0004-81.png,0001-00-0005-97.png
00000009,220,1,1445268988712,1445268989250,964,398,0,0,0,4,3,1,43,0005-00-0003-02.png,0003-00-0005-98.png
00000009,221,0,1445268990153,1445268990177,862,436,0,0,0,3,5,2,35,0003-00-0008-50.png,0001-00-0008-64.png
00000009,222,1,1445268993285,1445268993720,379,389,0,0,0,2,3,1,23,0002-00-0001-14.png,0003-00-0000-04.png
00000009,223,1,1445268995043,1445268995083,870,346,0,0,0,4,2,2,42,0005-00-0004-58.png,0002-00-0001-67.png
00000009,224,1,1445268996086,1445268996850,442,279,0,0,0,1,4,3,14,0004-00-0003-96.png,0005-00-0002-81.png
00000009,225,1,1445268997704,1445268997768,881,447,0,0,0,5,4,1,54,0001-00-0001-18.png,0005-00-0002-23.png
00000009,226,0,1445268999078,1445268999220,942,472,0,0,0,4,5,1,45,0005-00-0009-10.png,0001-00-0008-38.png
00000009,227,0,1445269002237,1445269003030,1059,286,0,0,0,3,4,1,34,0003-00-0000-83.png,0005-00-0007-28.png
00000009,228,1,1445269005905,1445269006764,412,273,0,0,0,1,5,4,15,0004-00-0002-70.png,0001-00-0002-20.png
00000009,229,0,1445269007633,1445269008423,465,276,0,0,0,5,1,4,51,0001-00-0003-83.png,0004-00-0002-59.png
00000009,230,1,1445269011708,1445269012185,1032,279,0,0,0,5,2,3,52,0001-00-0004-93.png,0002-00-0004-21.png
00000009,231,1,1445269013466,1445269014813,915,312,0,0,0,4,3,1,43,0005-00-0002-19.png,0003-00-0009-46.png
00000009,232,1,1445269015713,1445269016445,436,280,0,0,0,1,3,2,13,0004-00-0003-60.png,0003-00-0005-17.png
00000009,233,1,1445269017512,1445269017560,862,410,0,0,0,5,3,2,53,0001-00-0007-88.png,0003-00-0005-51.png
00000009,234,1,1445269018823,1445269018871,889,422,0,0,0,3,2,1,32,0003-00-0001-86.png,0002-00-0005-87.png
00000009,235,1,1445269020037,1445269020065,877,420,0,0,0,2,1,1,21,0002-00-0008-78.png,0004-00-0009-65.png
00000009,236,1,1445269021239,1445269021255,862,396,0,0,0,4,1,3,41,0005-00-0002-29.png,0004-00-0009-94.png
00000009,237,0,1445269022490,1445269022562,881,453,0,0,0,2,4,2,24,0002-00-0004-65.png,0005-00-0003-38.png
00000009,238,1,1445269025679,1445269026454,1109,316,0,0,0,3,1,2,31,0003-00-0005-63.png,0004-00-0001-43.png
00000009,239,0,1445269027307,1445269027395,913,463,0,0,0,1,2,1,12,0004-00-0005-48.png,0002-00-0008-61.png
00000009,240,1,1445269030300,1445269030845,460,294,0,0,0,2,5,3,25,0002-00-0004-98.png,0001-00-0004-20.png
00000009,241,1,1445269032128,1445269032156,867,354,0,0,0,5,3,2,53,0001-00-0000-65.png,0003-00-0008-19.png
00000009,242,1,1445269033172,1445269034293,375,342,0,0,0,2,4,2,24,0002-00-0007-14.png,0005-00-0003-75.png
00000009,243,1,1445269035188,1445269036005,404,311,0,0,0,1,4,3,14,0004-00-0009-42.png,0005-00-0006-96.png
00000009,244,1,1445269037070,1445269037125,862,383,0,0,0,4,3,1,43,0005-00-0006-96.png,0003-00-0004-89.png
00000009,245,0,1445269038339,1445269038375,884,407,0,0,0,2,5,3,25,0002-00-0006-05.png,0001-00-0007-81.png
00000009,246,1,1445269041299,1445269042143,414,281,0,0,0,3,4,1,34,0003-00-0009-45.png,0005-00-0006-85.png
00000009,247,1,1445269043557,1445269044130,488,279,0,0,0,1,5,4,15,0004-00-0005-28.png,0001-00-0006-61.png
00000009,248,0,1445269045522,1445269045978,959,543,0,0,0,4,5,1,45,0005-00-0006-28.png,0001-00-0003-06.png
00000009,249,1,1445269049817,1445269050268,967,347,0,0,0,4,2,2,42,0005-00-0000-51.png,0002-00-0007-26.png
00000009,250,0,1445269051556,1445269052269,1046,304,0,0,0,1,2,1,12,0004-00-0003-62.png,0002-00-0007-97.png
00000009,251,1,1445269055720,1445269056274,1088,319,0,0,0,2,1,1,21,0002-00-0001-67.png,0004-00-0003-95.png
00000009,252,0,1445269057213,1445269057867,432,260,0,0,0,5,2,3,52,0001-00-0003-00.png,0002-00-0009-85.png
00000009,253,1,1445269061057,1445269061571,1060,284,0,0,0,3,2,1,32,0003-00-0009-69.png,0002-00-0006-85.png
00000009,254,1,1445269062903,1445269063840,939,332,0,0,0,5,4,1,54,0001-00-0000-82.png,0005-00-0008-63.png
00000009,255,1,1445269064699,1445269064739,866,362,0,0,0,5,1,4,51,0001-00-0005-32.png,0004-00-0008-25.png
00000009,256,0,1445269065885,1445269065996,887,460,0,0,0,1,3,2,13,0004-00-0005-42.png,0003-00-0000-15.png
00000009,257,1,1445269069076,1445269069586,383,357,0,0,0,2,3,1,23,0002-00-0004-23.png,0003-00-0007-15.png
00000009,258,1,1445269070914,1445269071624,387,410,0,0,0,3,5,2,35,0003-00-0006-00.png,0001-00-0002-26.png
00000009,259,1,1445269072533,1445269073237,1052,279,0,0,0,3,1,2,31,0003-00-0009-61.png,0004-00-0009-26.png
00000009,260,1,1445269074143,1445269074191,918,419,0,0,0,4,1,3,41,0005-00-0008-95.png,0004-00-0008-41.png
00000009,261,1,1445269075454,1445269075482,910,402,0,0,0,4,2,2,42,0005-00-0008-67.png,0002-00-0006-43.png
00000009,262,0,1445269076845,1445269076873,902,391,0,0,0,2,3,1,23,0002-00-0000-06.png,0003-00-0008-81.png
00000009,263,1,1445269080026,1445269080941,418,285,0,0,0,3,5,2,35,0003-00-0005-84.png,0001-00-0007-81.png
00000009,264,1,1445269081795,1445269082525,1060,312,0,0,0,5,4,1,54,0001-00-0004-62.png,0005-00-0002-60.png
00000009,265,1,1445269083433,1445269083445,914,390,0,0,0,3,2,1,32,0003-00-0000-12.png,0002-00-0007-38.png
00000009,266,0,1445269084526,1445269084562,872,410,0,0,0,4,5,1,45,0005-00-0000-27.png,0001-00-0002-30.png
00000009,267,1,1445269087556,1445269087580,921,416,0,0,0,4,3,1,43,0005-00-0003-11.png,0003-00-0007-18.png
00000009,268,1,1445269088562,1445269089708,453,252,0,0,0,3,4,1,34,0003-00-0009-99.png,0005-00-0004-80.png
00000009,269,1,1445269090566,1445269091221,1016,265,0,0,0,3,1,2,31,0003-00-0000-16.png,0004-00-0005-77.png
00000009,270,1,1445269092156,1445269092196,939,384,0,0,0,5,2,3,52,0001-00-0003-75.png,0002-00-0002-11.png
00000009,271,0,1445269093568,1445269093608,941,390,0,0,0,1,3,2,13,0004-00-0000-46.png,0003-00-0003-87.png
00000009,272,0,1445269096730,1445269097293,1033,313,0,0,0,1,2,1,12,0004-00-0004-19.png,0002-00-0005-33.png
00000009,273,0,1445269100278,1445269100793,477,293,0,0,0,2,1,1,21,0002-00-0004-01.png,0004-00-0007-38.png
00000009,274,1,1445269103876,1445269104394,953,332,0,0,0,4,1,3,41,0005-00-0008-51.png,0004-00-0001-61.png
00000009,275,0,1445269105704,1445269106417,483,260,0,0,0,5,3,2,53,0001-00-0001-72.png,0003-00-0009-58.png
00000009,276,1,1445269109283,1445269109769,373,384,0,0,0,1,4,3,14,0004-00-0003-37.png,0005-00-0007-11.png
00000009,277,1,1445269111071,1445269111796,1067,271,0,0,0,5,1,4,51,0001-00-0008-80.png,0004-00-0004-25.png
00000009,278,0,1445269112617,1445269112633,887,384,0,0,0,2,4,2,24,0002-00-0004-39.png,0005-00-0000-20.png
00000009,279,0,1445269115761,1445269115789,898,332,0,0,0,1,5,4,15,0004-00-0006-86.png,0001-00-0003-76.png
00000009,280,1,1445269118932,1445269119585,411,282,0,0,0,2,5,3,25,0002-00-0002-32.png,0001-00-0005-12.png
00000009,281,1,1445269120839,1445269121415,459,229,0,0,0,1,4,3,14,0004-00-0006-21.png,0005-00-0003-59.png
00000009,282,1,1445269122341,1445269123036,868,402,0,0,0,4,1,3,41,0005-00-0005-96.png,0004-00-0005-27.png
00000009,283,0,1445269124118,1445269124166,897,402,0,0,0,3,5,2,35,0003-00-0003-47.png,0001-00-0004-10.png
00000009,284,1,1445269127824,1445269128551,467,293,0,0,0,3,4,1,34,0003-00-0000-43.png,0005-00-0006-17.png
00000009,285,1,1445269129851,1445269130572,487,242,0,0,0,2,5,3,25,0002-00-0007-21.png,0001-00-0007-65.png
00000009,286,0,1445269131918,1445269132045,862,436,0,0,0,2,3,1,23,0002-00-0009-10.png,0003-00-0009-91.png
00000009,287,1,1445269135120,1445269135592,459,278,0,0,0,1,5,4,15,0004-00-0009-25.png,0001-00-0000-40.png
00000009,288,1,1445269136878,1445269137478,902,431,0,0,0,5,1,4,51,0001-00-0000-37.png,0004-00-0003-44.png
00000009,289,1,1445269138301,1445269139626,462,230,0,0,0,4,5,1,45,0005-00-0005-19.png,0001-00-0000-27.png
00000009,290,1,1445269140585,1445269141382,1057,253,0,0,0,3,2,1,32,0003-00-0003-60.png,0002-00-0004-32.png
00000009,291,1,1445269142283,1445269142335,910,425,0,0,0,2,1,1,21,0002-00-0009-27.png,0004-00-0007-03.png
00000009,292,0,1445269143605,1445269143661,905,462,0,0,0,1,3,2,13,0004-00-0005-00.png,0003-00-0001-78.png
00000009,293,1,1445269146685,1445269146725,861,357,0,0,0,5,4,1,54,0001-00-0007-37.png,0005-00-0005-03.png
00000009,294,1,1445269147761,1445269148573,939,398,0,0,0,3,1,2,31,0003-00-0006-72.png,0004-00-0002-86.png
00000009,295,1,1445269149426,1445269149450,896,407,0,0,0,5,3,2,53,0001-00-0009-74.png,0003-00-0006-10.png
00000009,296,0,1445269150642,1445269150658,892,420,0,0,0,1,2,1,12,0004-00-0001-40.png,0002-00-0002-86.png
00000009,297,1,1445269153830,1445269154393,461,266,0,0,0,2,4,2,24,0002-00-0008-09.png,0005-00-0001-90.png
00000009,298,1,1445269155706,1445269155746,876,384,0,0,0,4,2,2,42,0005-00-0007-58.png,0002-00-0007-47.png
00000009,299,1,1445269156751,1445269157543,935,381,0,0,0,4,3,1,43,0005-00-0002-60.png,0003-00-0001-80.png
00000009,300,1,1445269158418,1445269159142,1067,245,0,0,0,5,2,3,52,0001-00-0008-42.png,0002-00-0001-78.png
00000009,301,0,1445269160159,1445269160179,885,440,0,0,0,1,5,4,15,0004-00-0005-92.png,0001-00-0008-81.png
00000009,302,1,1445269163261,1445269163935,483,282,0,0,0,3,5,2,35,0003-00-0008-31.png,0001-00-0008-84.png
00000009,303,1,1445269165258,1445269166369,451,282,0,0,0,3,4,1,34,0003-00-0009-44.png,0005-00-0008-18.png
00000009,304,1,1445269167193,1445269167956,399,351,0,0,0,2,4,2,24,0002-00-0001-55.png,0005-00-0005-68.png
00000009,305,0,1445269168851,1445269168883,868,419,0,0,0,1,3,2,13,0004-00-0007-64.png,0003-00-0006-70.png
00000009,306,0,1445269171874,1445269172472,384,383,0,0,0,2,1,1,21,0002-00-0002-94.png,0004-00-0009-72.png
00000009,307,1,1445269175593,1445269175633,894,351,0,0,0,4,3,1,43,0005-00-0000-65.png,0003-00-0003-70.png
00000009,308,1,1445269176606,1445269177300,1035,273,0,0,0,3,1,2,31,0003-00-0004-13.png,0004-00-0003-17.png
00000009,309,0,1445269178133,1445269178165,869,398,0,0,0,2,3,1,23,0002-00-0008-72.png,0003-00-0007-84.png
00000009,310,1,1445269181286,1445269181797,1051,279,0,0,0,4,1,3,41,0005-00-0000-33.png,0004-00-0006-98.png
00000009,311,0,1445269183115,1445269183785,386,343,0,0,0,5,3,2,53,0001-00-0004-51.png,0003-00-0003-98.png
00000009,312,1,1445269186921,1445269186949,908,351,0,0,0,5,2,3,52,0001-00-0000-34.png,0002-00-0002-57.png
00000009,313,1,1445269187896,1445269188512,446,220,0,0,0,1,4,3,14,0004-00-0004-10.png,0005-00-0002-61.png
00000009,314,0,1445269189352,1445269189404,862,398,0,0,0,2,5,3,25,0002-00-0001-82.png,0001-00-0001-02.png
00000009,315,0,1445269192368,1445269192388,509,436,0,0,0,4,2,2,42,0005-00-0008-59.png,0002-00-0002-88.png
00000009,316,1,1445269195217,1445269195364,1094,275,0,0,0,3,2,1,32,0003-00-0001-55.png,0002-00-0004-04.png
00000009,317,1,1445269196263,1445269196866,447,257,0,0,0,4,5,1,45,0005-00-0002-30.png,0001-00-0008-86.png
00000009,318,1,1445269197812,1445269198478,927,313,0,0,0,5,1,4,51,0001-00-0001-65.png,0004-00-0005-55.png
00000009,319,1,1445269199363,1445269199423,936,420,0,0,0,5,4,1,54,0001-00-0002-50.png,0005-00-0003-06.png
00000009,320,0,1445269200575,1445269200603,896,436,0,0,0,1,2,1,12,0004-00-0005-45.png,0002-00-0009-05.png
00000009,321,1,1445269203500,1445269204061,1067,279,0,0,0,4,2,2,42,0005-00-0000-81.png,0002-00-0009-95.png
00000009,322,1,1445269204885,1445269204917,862,462,0,0,0,3,1,2,31,0003-00-0009-21.png,0004-00-0006-15.png
00000009,323,1,1445269206091,1445269206131,924,429,0,0,0,5,1,4,51,0001-00-0003-29.png,0004-00-0002-16.png
00000009,324,0,1445269207927,1445269207975,888,384,0,0,0,1,5,4,15,0004-00-0008-07.png,0001-00-0005-56.png
00000009,325,0,1445269211059,1445269211558,1092,253,0,0,0,3,4,1,34,0003-00-0002-35.png,0005-00-0002-40.png
00000009,326,1,1445269214698,1445269215719,958,346,0,0,0,5,3,2,53,0001-00-0004-48.png,0003-00-0008-27.png
00000009,327,0,1445269216586,1445269216634,860,466,0,0,0,3,5,2,35,0003-00-0004-30.png,0001-00-0005-68.png
00000009,328,0,1445269219828,1445269219950,977,275,0,0,0,1,2,1,12,0004-00-0009-15.png,0002-00-0001-68.png
00000009,329,1,1445269223095,1445269223619,463,296,0,0,0,1,3,2,13,0004-00-0008-82.png,0003-00-0007-39.png
00000009,330,1,1445269224954,1445269226503,387,394,0,0,0,2,4,2,24,0002-00-0004-42.png,0005-00-0007-44.png
00000009,331,1,1445269227416,1445269228107,1094,265,0,0,0,3,2,1,32,0003-00-0009-49.png,0002-00-0009-06.png
00000009,332,0,1445269229068,1445269229116,931,441,0,0,0,2,5,3,25,0002-00-0002-33.png,0001-00-0002-98.png
00000009,333,1,1445269232269,1445269232852,455,277,0,0,0,2,3,1,23,0002-00-0005-62.png,0003-00-0008-86.png
00000009,334,1,1445269234194,1445269234214,881,362,0,0,0,2,1,1,21,0002-00-0007-41.png,0004-00-0003-21.png
00000009,335,1,1445269235235,1445269235307,862,410,0,0,0,4,1,3,41,0005-00-0009-86.png,0004-00-0005-07.png
00000009,336,1,1445269236390,1445269236454,888,448,0,0,0,4,3,1,43,0005-00-0000-80.png,0003-00-0005-99.png
00000009,337,1,1445269237851,1445269237899,919,436,0,0,0,5,2,3,52,0001-00-0006-87.png,0002-00-0003-06.png
00000009,338,1,1445269239103,1445269239140,913,436,0,0,0,5,4,1,54,0001-00-0008-75.png,0005-00-0004-01.png
00000009,339,1,1445269240436,1445269241528,446,235,0,0,0,4,5,1,45,0005-00-0004-99.png,0001-00-0007-17.png
00000009,340,1,1445269242380,1445269243262,416,355,0,0,0,1,4,3,14,0004-00-0008-68.png,0005-00-0003-64.png
00000009,341,0,1445269244480,1445269244532,873,444,0,0,0,1,2,1,12,0004-00-0002-49.png,0002-00-0005-25.png
00000009,342,1,1445269247560,1445269248103,1079,306,0,0,0,5,2,3,52,0001-00-0001-75.png,0002-00-0007-90.png
00000009,343,0,1445269249389,1445269250059,1060,287,0,0,0,2,4,2,24,0002-00-0005-69.png,0005-00-0003-33.png
00000009,344,0,1445269252996,1445269253509,394,409,0,0,0,5,4,1,54,0001-00-0000-56.png,0005-00-0005-14.png
00000009,345,1,1445269256644,1445269257127,945,328,0,0,0,2,1,1,21,0002-00-0006-56.png,0004-00-0004-93.png
00000009,346,0,1445269258461,1445269259340,1049,293,0,0,0,2,5,3,25,0002-00-0003-01.png,0001-00-0006-21.png
00000009,347,0,1445269262476,1445269262654,862,436,0,0,0,1,4,3,14,0004-00-0003-71.png,0005-00-0005-08.png
00000009,348,1,1445269265787,1445269266460,452,278,0,0,0,3,4,1,34,0003-00-0006-59.png,0005-00-0000-44.png
00000009,349,1,1445269267313,1445269268027,466,239,0,0,0,2,3,1,23,0002-00-0001-45.png,0003-00-0002-17.png
00000009,350,1,1445269268863,1445269269591,920,348,0,0,0,4,2,2,42,0005-00-0002-76.png,0002-00-0006-82.png
00000009,351,0,1445269270506,1445269270526,897,400,0,0,0,4,5,1,45,0005-00-0003-14.png,0001-00-0000-64.png
00000009,352,1,1445269273507,1445269273976,945,316,0,0,0,3,2,1,32,0003-00-0009-40.png,0002-00-0006-16.png
00000009,353,1,1445269275266,1445269275616,1016,506,0,0,0,4,1,3,41,0005-00-0009-51.png,0004-00-0004-59.png
00000009,354,0,1445269276627,1445269276675,862,425,0,0,0,3,5,2,35,0003-00-0000-97.png,0001-00-0005-29.png
00000009,355,1,1445269279768,1445269279796,891,351,0,0,0,5,3,2,53,0001-00-0001-94.png,0003-00-0006-22.png
00000009,356,1,1445269280680,1445269281841,483,253,0,0,0,1,3,2,13,0004-00-0000-55.png,0003-00-0008-51.png
00000009,357,0,1445269282745,1445269283524,435,243,0,0,0,4,3,1,43,0005-00-0008-09.png,0003-00-0007-05.png
00000009,358,1,1445269286673,1445269286749,884,305,0,0,0,3,1,2,31,0003-00-0009-79.png,0004-00-0009-67.png
00000009,359,0,1445269287658,1445269287738,871,436,0,0,0,1,5,4,15,0004-00-0003-68.png,0001-00-0000-00.png
00000009,360,1,1445269290811,1445269291345,949,336,0,0,0,5,1,4,51,0001-00-0005-28.png,0004-00-0003-07.png
00000009,361,1,1445269292190,1445269292801,1055,260,0,0,0,5,1,4,51,0001-00-0009-51.png,0004-00-0005-44.png
00000009,362,0,1445269293629,1445269293677,951,401,0,0,0,2,3,1,23,0002-00-0006-42.png,0003-00-0002-22.png
00000009,363,1,1445269296890,1445269297433,462,287,0,0,0,1,2,1,12,0004-00-0008-15.png,0002-00-0002-50.png
00000009,364,1,1445269298747,1445269299338,1078,279,0,0,0,3,1,2,31,0003-00-0000-15.png,0004-00-0001-37.png
00000009,365,0,1445269300186,1445269300239,913,394,0,0,0,3,5,2,35,0003-00-0000-55.png,0001-00-0000-12.png
00000009,366,0,1445269303425,1445269303457,937,318,0,0,0,1,5,4,15,0004-00-0004-85.png,0001-00-0002-33.png
00000009,367,0,1445269306588,1445269306693,923,293,0,0,0,4,5,1,45,0005-00-0004-06.png,0001-00-0001-13.png
00000009,368,1,1445269309629,1445269310166,964,397,0,0,0,4,1,3,41,0005-00-0002-02.png,0004-00-0006-92.png
00000009,369,1,1445269311438,1445269312420,454,221,0,0,0,2,4,2,24,0002-00-0000-60.png,0005-00-0000-81.png
00000009,370,0,1445269313792,1445269314166,939,487,0,0,0,1,3,2,13,0004-00-0009-02.png,0003-00-0006-02.png
00000009,371,1,1445269317290,1445269317828,980,384,0,0,0,5,2,3,52,0001-00-0000-74.png,0002-00-0006-59.png
00000009,372,1,1445269319140,1445269319467,994,508,0,0,0,4,3,1,43,0005-00-0007-41.png,0003-00-0005-11.png
00000009,373,1,1445269320499,1445269322159,384,273,0,0,0,2,5,3,25,0002-00-0002-23.png,0001-00-0006-51.png
00000009,374,1,1445269323144,1445269324274,907,368,0,0,0,5,3,2,53,0001-00-0009-61.png,0003-00-0009-01.png
00000009,375,1,1445269325190,1445269325218,888,410,0,0,0,5,4,1,54,0001-00-0008-69.png,0005-00-0009-54.png
00000009,376,0,1445269326411,1445269326451,884,419,0,0,0,3,4,1,34,0003-00-0004-66.png,0005-00-0008-83.png
00000009,377,1,1445269329322,1445269329884,1067,279,0,0,0,4,2,2,42,0005-00-0005-28.png,0002-00-0008-17.png
00000009,378,0,1445269330742,1445269331148,984,546,0,0,0,1,4,3,14,0004-00-0008-99.png,0005-00-0001-84.png
00000009,379,0,1445269334302,1445269334929,461,308,0,0,0,2,1,1,21,0002-00-0001-20.png,0004-00-0002-92.png
00000009,380,1,1445269338078,1445269338098,902,330,0,0,0,3,2,1,32,0003-00-0007-53.png,0002-00-0009-40.png
00000009,381,1,1445269339081,1445269340005,923,320,0,0,0,4,2,2,42,0005-00-0006-68.png,0002-00-0002-79.png
00000009,382,0,1445269340941,1445269341608,1061,270,0,0,0,1,4,3,14,0004-00-0000-37.png,0005-00-0007-75.png
00000009,383,1,1445269344538,1445269345042,950,331,0,0,0,4,1,3,41,0005-00-0003-72.png,0004-00-0002-80.png
00000009,384,0,1445269346337,1445269346792,1038,552,0,0,0,2,4,2,24,0002-00-0007-81.png,0005-00-0008-53.png
00000009,385,0,1445269350125,1445269350657,1038,276,0,0,0,1,3,2,13,0004-00-0002-59.png,0003-00-0004-79.png
00000009,386,1,1445269353801,1445269354564,429,307,0,0,0,3,5,2,35,0003-00-0009-86.png,0001-00-0009-86.png
00000009,387,0,1445269355480,1445269356365,438,239,0,0,0,5,3,2,53,0001-00-0006-09.png,0003-00-0008-01.png
00000009,388,0,1445269359456,1445269360018,394,382,0,0,0,2,1,1,21,0002-00-0002-15.png,0004-00-0001-42.png
00000009,389,0,1445269363219,1445269363835,456,262,0,0,0,3,1,2,31,0003-00-0006-97.png,0004-00-0008-87.png
00000009,390,1,1445269366880,1445269367380,937,302,0,0,0,3,2,1,32,0003-00-0006-81.png,0002-00-0005-57.png
00000009,391,1,1445269368208,1445269368280,897,436,0,0,0,4,3,1,43,0005-00-0004-87.png,0003-00-0008-30.png
00000009,392,0,1445269369382,1445269369410,888,372,0,0,0,3,4,1,34,0003-00-0005-31.png,0005-00-0009-80.png
00000009,393,0,1445269372395,1445269373373,358,350,0,0,0,5,2,3,52,0001-00-0001-65.png,0002-00-0003-76.png
00000009,394,0,1445269376557,1445269377088,1100,298,0,0,0,4,5,1,45,0005-00-0009-76.png,0001-00-0009-69.png
00000009,395,1,1445269380197,1445269380721,389,366,0,0,0,2,5,3,25,0002-00-0005-15.png,0001-00-0005-32.png
00000009,396,1,1445269381565,1445269381641,880,394,0,0,0,5,1,4,51,0001-00-0007-61.png,0004-00-0004-35.png
00000009,397,1,1445269382580,1445269382628,888,392,0,0,0,5,4,1,54,0001-00-0004-90.png,0005-00-0002-14.png
00000009,398,0,1445269383713,1445269383773,888,423,0,0,0,1,5,4,15,0004-00-0005-65.png,0001-00-0004-20.png
00000009,399,0,1445269386910,1445269386930,888,358,0,0,0,1,2,1,12,0004-00-0002-19.png,0002-00-0008-81.png
00000009,400,1,1445269390004,1445269390567,494,285,0,0,0,2,3,1,23,0002-00-0006-34.png,0003-00-0005-50.png
00000009,401,1,1445269391908,1445269392826,972,326,0,0,0,5,3,2,53,0001-00-0001-38.png,0003-00-0007-88.png
00000009,402,0,1445269393679,1445269393709,865,390,0,0,0,2,5,3,25,0002-00-0008-41.png,0001-00-0009-39.png
00000009,403,1,1445269396630,1445269397146,1104,332,0,0,0,4,1,3,41,0005-00-0002-37.png,0004-00-0001-93.png
00000009,404,0,1445269398429,1445269399077,480,288,0,0,0,2,1,1,21,0002-00-0001-07.png,0004-00-0006-88.png
00000009,405,1,1445269402175,1445269402683,497,295,0,0,0,1,3,2,13,0004-00-0002-19.png,0003-00-0009-70.png
00000009,406,1,1445269404014,1445269404654,375,359,0,0,0,2,4,2,24,0002-00-0000-48.png,0005-00-0005-49.png
00000009,407,0,1445269405512,1445269405572,888,424,0,0,0,3,4,1,34,0003-00-0009-51.png,0005-00-0008-23.png
00000009,408,1,1445269408415,1445269409108,359,360,0,0,0,4,5,1,45,0005-00-0008-49.png,0001-00-0007-98.png
00000009,409,1,1445269409995,1445269410027,862,412,0,0,0,5,1,4,51,0001-00-0009-73.png,0004-00-0001-54.png
00000009,410,0,1445269411081,1445269411129,899,410,0,0,0,3,5,2,35,0003-00-0009-02.png,0001-00-0001-55.png
00000009,411,1,1445269414466,1445269415429,385,345,0,0,0,2,3,1,23,0002-00-0009-83.png,0003-00-0006-87.png
00000009,412,1,1445269416295,1445269416335,862,410,0,0,0,3,2,1,32,0003-00-0003-80.png,0002-00-0005-33.png
00000009,413,1,1445269417381,1445269417442,924,380,0,0,0,4,3,1,43,0005-00-0005-64.png,0003-00-0005-31.png
00000009,414,1,1445269418611,1445269418659,937,424,0,0,0,5,2,3,52,0001-00-0009-02.png,0002-00-0000-05.png
00000009,415,1,1445269419764,1445269419836,947,467,0,0,0,5,4,1,54,0001-00-0004-50.png,0005-00-0004-16.png
00000009,416,1,1445269422370,1445269422847,463,256,0,0,0,1,2,1,12,0004-00-0004-16.png,0002-00-0003-77.png
00000009,417,0,1445269423769,1445269423866,887,475,0,0,0,1,5,4,15,0004-00-0002-12.png,0001-00-0007-40.png
00000009,418,1,1445269426879,1445269427425,958,395,0,0,0,3,1,2,31,0003-00-0006-16.png,0004-00-0008-32.png
00000009,419,0,1445269428301,1445269428321,890,428,0,0,0,1,4,3,14,0004-00-0003-99.png,0005-00-0003-74.png
00000009,420,1,1445269431220,1445269431796,1092,279,0,0,0,4,2,2,42,0005-00-0006-04.png,0002-00-0007-35.png
00000009,421,1,1445269432631,1445269432643,913,412,0,0,0,4,2,2,42,0005-00-0005-66.png,0002-00-0009-24.png
00000009,422,1,1445269433638,1445269433710,894,430,0,0,0,4,1,3,41,0005-00-0001-58.png,0004-00-0004-02.png
00000009,423,0,1445269434877,1445269435702,387,356,0,0,0,5,4,1,54,0001-00-0007-20.png,0005-00-0003-14.png
00000009,424,1,1445269438605,1445269439229,933,313,0,0,0,5,3,2,53,0001-00-0005-86.png,0003-00-0009-36.png
00000009,425,0,1445269440065,1445269440786,396,365,0,0,0,4,3,1,43,0005-00-0006-89.png,0003-00-0003-78.png
00000009,426,1,1445269443923,1445269444506,944,352,0,0,0,5,2,3,52,0001-00-0005-51.png,0002-00-0001-38.png
00000009,427,0,1445269445453,1445269445513,873,451,0,0,0,1,3,2,13,0004-00-0005-45.png,0003-00-0008-61.png
00000009,428,1,1445269448662,1445269449185,497,264,0,0,0,1,4,3,14,0004-00-0007-85.png,0005-00-0001-61.png
00000009,429,1,1445269450038,1445269450895,454,250,0,0,0,1,5,4,15,0004-00-0003-04.png,0001-00-0001-54.png
00000009,430,1,1445269451782,1445269451850,933,440,0,0,0,3,1,2,31,0003-00-0003-29.png,0004-00-0000-38.png
00000009,431,1,1445269453578,1445269453598,872,384,0,0,0,5,1,4,51,0001-00-0006-98.png,0004-00-0005-06.png
00000009,432,0,1445269454605,1445269454633,870,391,0,0,0,2,5,3,25,0002-00-0003-27.png,0001-00-0007-13.png
00000009,433,1,1445269457823,1445269458524,375,365,0,0,0,3,5,2,35,0003-00-0008-04.png,0001-00-0007-70.png
00000009,434,1,1445269459393,1445269459453,870,488,0,0,0,2,1,1,21,0002-00-0006-60.png,0004-00-0007-77.png
00000009,435,0,1445269460506,1445269460554,905,392,0,0,0,3,4,1,34,0003-00-0003-42.png,0005-00-0005-39.png
00000009,436,0,1445269463608,1445269464261,969,393,0,0,0,1,2,1,12,0004-00-0007-53.png,0002-00-0000-57.png
00000009,437,1,1445269467432,1445269467915,413,364,0,0,0,2,4,2,24,0002-00-0000-43.png,0005-00-0003-42.png
00000009,438,0,1445269468793,1445269468841,889,395,0,0,0,2,3,1,23,0002-00-0001-30.png,0003-00-0007-33.png
00000009,439,1,1445269471894,1445269472379,972,403,0,0,0,3,2,1,32,0003-00-0005-77.png,0002-00-0004-23.png
00000009,440,1,1445269473714,1445269474577,480,270,0,0,0,4,5,1,45,0005-00-0005-40.png,0001-00-0007-83.png
00000009,441,1,1445269475500,1445269475540,870,405,0,0,0,4,1,3,41,0005-00-0001-58.png,0004-00-0009-44.png
00000009,442,0,1445269476814,1445269476842,909,415,0,0,0,2,3,1,23,0002-00-0002-34.png,0003-00-0007-16.png
00000009,443,0,1445269479766,1445269480331,362,339,0,0,0,2,1,1,21,0002-00-0006-27.png,0004-00-0009-20.png
00000009,444,0,1445269485568,1445269486072,986,314,0,0,0,3,4,1,34,0003-00-0009-60.png,0005-00-0005-23.png
00000009,445,1,1445269501563,1445269502113,1070,309,0,0,0,5,2,3,52,0001-00-0006-14.png,0002-00-0003-02.png
00000009,446,1,1445269503044,1445269503953,950,353,0,0,0,4,2,2,42,0005-00-0001-12.png,0002-00-0006-93.png
00000009,447,0,1445269504801,1445269504898,931,444,0,0,0,2,4,2,24,0002-00-0001-95.png,0005-00-0009-75.png
00000009,448,1,1445269509178,1445269509722,429,279,0,0,0,1,4,3,14,0004-00-0009-14.png,0005-00-0008-54.png
00000009,449,1,1445269510571,1445269511216,460,249,0,0,0,1,2,1,12,0004-00-0002-08.png,0002-00-0005-28.png
00000009,450,1,1445269512088,1445269512912,945,375,0,0,0,5,3,2,53,0001-00-0003-08.png,0003-00-0006-51.png
00000009,451,1,1445269513895,1445269513923,911,375,0,0,0,4,3,1,43,0005-00-0009-59.png,0003-00-0003-17.png
00000009,452,1,1445269515031,1445269515059,926,373,0,0,0,3,1,2,31,0003-00-0003-20.png,0004-00-0000-20.png
00000009,453,1,1445269516253,1445269516273,902,375,0,0,0,5,1,4,51,0001-00-0000-53.png,0004-00-0008-45.png
00000009,454,1,1445269517433,1445269517485,895,403,0,0,0,3,2,1,32,0003-00-0003-56.png,0002-00-0007-91.png
00000009,455,0,1445269518647,1445269518717,910,426,0,0,0,1,5,4,15,0004-00-0000-00.png,0001-00-0006-25.png
00000009,456,1,1445269522017,1445269522817,461,288,0,0,0,4,5,1,45,0005-00-0001-82.png,0001-00-0000-35.png
00000009,457,0,1445269523673,1445269524330,369,340,0,0,0,5,4,1,54,0001-00-0004-89.png,0005-00-0001-21.png
00000009,458,0,1445269535125,1445269535141,902,330,0,0,0,1,3,2,13,0004-00-0007-03.png,0003-00-0007-91.png
00000009,459,1,1445269538313,1445269539033,479,276,0,0,0,3,5,2,35,0003-00-0000-23.png,0001-00-0003-96.png
00000009,460,1,1445269540360,1445269541243,482,272,0,0,0,2,5,3,25,0002-00-0006-22.png,0001-00-0003-13.png
00000009,461,1,1445269542107,1445269542752,1060,273,0,0,0,4,2,2,42,0005-00-0007-20.png,0002-00-0002-89.png
00000009,462,0,1445269543594,1445269543638,911,385,0,0,0,1,4,3,14,0004-00-0000-35.png,0005-00-0001-17.png
00000009,463,1,1445269546730,1445269547295,501,331,0,0,0,4,5,1,45,0005-00-0009-25.png,0001-00-0002-43.png
00000009,464,1,1445269548268,1445269548946,456,304,0,0,0,1,3,2,13,0004-00-0001-66.png,0003-00-0004-45.png
00000009,465,0,1445269550365,1445269550429,888,397,0,0,0,2,4,2,24,0002-00-0003-89.png,0005-00-0006-51.png
00000009,466,1,1445269553594,1445269554038,942,355,0,0,0,4,1,3,41,0005-00-0009-05.png,0004-00-0008-41.png
00000009,467,1,1445269555365,1445269556146,954,336,0,0,0,5,3,2,53,0001-00-0002-31.png,0003-00-0007-78.png
00000009,468,0,1445269557002,1445269557034,909,386,0,0,0,3,5,2,35,0003-00-0004-35.png,0001-00-0004-26.png
00000009,469,0,1445269560167,1445269560737,947,332,0,0,0,1,2,1,12,0004-00-0008-79.png,0002-00-0000-05.png
00000009,470,0,1445269563853,1445269563873,875,333,0,0,0,2,3,1,23,0002-00-0009-78.png,0003-00-0002-58.png
00000009,471,0,1445269566833,1445269566853,521,430,0,0,0,2,1,1,21,0002-00-0002-80.png,0004-00-0009-70.png
00000009,472,1,1445269569964,1445269570440,445,320,0,0,0,1,5,4,15,0004-00-0002-75.png,0001-00-0007-30.png
00000009,473,1,1445269571754,1445269572517,1050,253,0,0,0,5,1,4,51,0001-00-0008-84.png,0004-00-0006-93.png
00000009,474,1,1445269573360,1445269573430,943,367,0,0,0,5,4,1,54,0001-00-0008-52.png,0005-00-0006-17.png
00000009,475,0,1445269574528,1445269574584,912,394,0,0,0,3,4,1,34,0003-00-0004-79.png,0005-00-0008-50.png
00000009,476,1,1445269577735,1445269578302,476,252,0,0,0,2,5,3,25,0002-00-0004-27.png,0001-00-0006-23.png
00000009,477,1,1445269579544,1445269579576,890,335,0,0,0,4,3,1,43,0005-00-0007-57.png,0003-00-0009-02.png
00000009,478,1,1445269580597,1445269581330,1067,263,0,0,0,3,1,2,31,0003-00-0009-53.png,0004-00-0001-83.png
00000009,479,1,1445269582714,1445269582730,862,372,0,0,0,5,2,3,52,0001-00-0002-47.png,0002-00-0009-66.png
00000009,480,1,1445269583797,1445269583835,902,417,0,0,0,3,2,1,32,0003-00-0008-97.png,0002-00-0008-76.png
00000009,481,1,1445269585187,1445269585227,902,398,0,0,0,5,3,2,53,0001-00-0004-17.png,0003-00-0007-47.png
00000009,482,0,1445269586380,1445269586408,895,411,0,0,0,3,5,2,35,0003-00-0009-58.png,0001-00-0000-10.png
00000009,483,1,1445269589768,1445269590362,942,347,0,0,0,2,1,1,21,0002-00-0000-89.png,0004-00-0009-35.png
00000009,484,0,1445269591195,1445269591307,862,462,0,0,0,1,4,3,14,0004-00-0000-79.png,0005-00-0000-23.png
00000009,485,1,1445269594139,1445269594942,449,268,0,0,0,3,4,1,34,0003-00-0008-49.png,0005-00-0002-49.png
00000009,486,1,1445269596278,1445269596841,353,378,0,0,0,1,5,4,15,0004-00-0003-35.png,0001-00-0006-27.png
00000009,487,1,1445269598057,1445269598085,906,366,0,0,0,5,2,3,52,0001-00-0004-55.png,0002-00-0000-26.png
00000009,488,0,1445269599250,1445269599310,908,414,0,0,0,1,3,2,13,0004-00-0009-22.png,0003-00-0008-55.png
00000009,489,1,1445269602457,1445269602912,942,329,0,0,0,3,2,1,32,0003-00-0002-30.png,0002-00-0003-48.png
00000009,490,0,1445269604175,1445269604349,939,436,0,0,0,2,5,3,25,0002-00-0008-86.png,0001-00-0007-83.png
00000009,491,0,1445269607489,1445269608312,377,358,0,0,0,4,2,2,42,0005-00-0007-08.png,0002-00-0003-67.png
00000009,492,1,1445269611394,1445269611414,911,342,0,0,0,5,4,1,54,0001-00-0007-78.png,0005-00-0007-22.png
00000009,493,1,1445269612400,1445269613249,1010,273,0,0,0,3,1,2,31,0003-00-0001-67.png,0004-00-0007-36.png
00000009,494,0,1445269614082,1445269614114,912,387,0,0,0,2,4,2,24,0002-00-0002-79.png,0005-00-0007-04.png
00000009,495,1,1445269616988,1445269617600,1057,302,0,0,0,4,1,3,41,0005-00-0004-51.png,0004-00-0009-40.png
00000009,496,0,1445269618975,1445269619408,1016,543,0,0,0,2,3,1,23,0002-00-0001-44.png,0003-00-0006-75.png
00000009,497,0,1445269622503,1445269622543,893,321,0,0,0,4,5,1,45,0005-00-0009-04.png,0001-00-0007-30.png
00000009,498,1,1445269626379,1445269627152,921,410,0,0,0,5,1,4,51,0001-00-0007-78.png,0004-00-0001-11.png
00000009,499,1,1445269628138,1445269628813,935,342,0,0,0,4,3,1,43,0005-00-0001-31.png,0003-00-0004-78.png
00000009,500,0,1445269630203,1445269630243,888,384,0,0,0,1,2,1,12,0004-00-0008-09.png,0002-00-0002-82.png
00000009,501,1,1445269633114,1445269633683,390,391,0,0,0,1,5,4,15,0004-00-0008-30.png,0001-00-0001-27.png
00000009,502,0,1445269635035,1445269635485,1011,518,0,0,0,4,5,1,45,0005-00-0005-76.png,0001-00-0001-87.png
00000009,503,1,1445269638682,1445269639137,437,272,0,0,0,1,4,3,14,0004-00-0003-37.png,0005-00-0004-44.png
00000009,504,0,1445269640459,1445269640778,964,450,0,0,0,2,4,2,24,0002-00-0007-82.png,0005-00-0003-31.png
00000009,505,0,1445269643849,1445269644392,460,274,0,0,0,4,3,1,43,0005-00-0003-66.png,0003-00-0006-10.png
00000009,506,1,1445269647586,1445269647614,923,356,0,0,0,5,2,3,52,0001-00-0002-12.png,0002-00-0005-15.png
00000009,507,1,1445269648661,1445269649317,1041,267,0,0,0,3,1,2,31,0003-00-0002-52.png,0004-00-0009-19.png
00000009,508,0,1445269650155,1445269650243,941,390,0,0,0,2,5,3,25,0002-00-0006-97.png,0001-00-0006-50.png
00000009,509,0,1445269653388,1445269654021,939,321,0,0,0,3,4,1,34,0003-00-0000-68.png,0005-00-0007-33.png
00000009,510,1,1445269657136,1445269657651,392,406,0,0,0,1,3,2,13,0004-00-0000-88.png,0003-00-0002-51.png
00000009,511,1,1445269658493,1445269659171,1124,218,0,0,0,4,1,3,41,0005-00-0001-97.png,0004-00-0000-45.png
00000009,512,0,1445269660056,1445269660138,948,410,0,0,0,2,3,1,23,0002-00-0003-42.png,0003-00-0004-62.png
00000009,513,0,1445269663023,1445269663748,387,353,0,0,0,5,3,2,53,0001-00-0007-32.png,0003-00-0003-72.png
00000009,514,1,1445269666903,1445269666911,891,328,0,0,0,5,1,4,51,0001-00-0009-51.png,0004-00-0002-12.png
00000009,515,0,1445269667860,1445269668538,925,339,0,0,0,3,5,2,35,0003-00-0002-76.png,0001-00-0006-72.png
00000009,516,1,1445269671595,1445269672151,1090,250,0,0,0,4,2,2,42,0005-00-0000-06.png,0002-00-0007-72.png
00000009,517,0,1445269673422,1445269674172,500,239,0,0,0,3,2,1,32,0003-00-0003-85.png,0002-00-0009-57.png
00000009,518,0,1445269677151,1445269677730,455,279,0,0,0,5,4,1,54,0001-00-0004-45.png,0005-00-0003-16.png
00000009,519,1,1445269680725,1445269680843,882,313,0,0,0,2,1,1,21,0002-00-0003-44.png,0004-00-0008-05.png
00000009,520,1,1445269681730,1445269682475,479,260,0,0,0,1,2,1,12,0004-00-0004-91.png,0002-00-0003-68.png
00000009,521,1,1445269683354,1445269684124,933,330,0,0,0,3,2,1,32,0003-00-0001-29.png,0002-00-0007-49.png
00000009,522,1,1445269685032,1445269685080,917,421,0,0,0,3,1,2,31,0003-00-0003-72.png,0004-00-0001-05.png
00000009,523,0,1445269686301,1445269686361,926,384,0,0,0,3,5,2,35,0003-00-0004-80.png,0001-00-0002-62.png
00000009,524,0,1445269689503,1445269690325,1108,279,0,0,0,4,5,1,45,0005-00-0005-85.png,0001-00-0008-46.png
00000009,525,0,1445269693486,1445269693705,857,415,0,0,0,1,5,4,15,0004-00-0000-59.png,0001-00-0004-53.png
00000009,526,1,1445269696846,1445269697378,485,257,0,0,0,2,3,1,23,0002-00-0009-49.png,0003-00-0004-26.png
00000009,527,1,1445269698736,1445269699618,485,261,0,0,0,1,3,2,13,0004-00-0005-84.png,0003-00-0009-19.png
00000009,528,1,1445269700451,1445269701287,1055,264,0,0,0,4,2,2,42,0005-00-0006-59.png,0002-00-0006-72.png
00000009,529,1,1445269702227,1445269702271,964,417,0,0,0,5,2,3,52,0001-00-0006-47.png,0002-00-0007-60.png
00000009,530,1,1445269703495,1445269703523,923,401,0,0,0,5,4,1,54,0001-00-0001-00.png,0005-00-0009-61.png
00000009,531,1,1445269704936,1445269704984,957,438,0,0,0,5,3,2,53,0001-00-0005-33.png,0003-00-0006-25.png
00000009,532,1,1445269706188,1445269706238,919,425,0,0,0,2,1,1,21,0002-00-0008-84.png,0004-00-0007-50.png
00000009,533,0,1445269707400,1445269707436,928,464,0,0,0,3,4,1,34,0003-00-0006-78.png,0005-00-0004-00.png
00000009,534,1,1445269710697,1445269710725,862,332,0,0,0,5,1,4,51,0001-00-0002-00.png,0004-00-0008-32.png
00000009,535,1,1445269711682,1445269712364,442,277,0,0,0,2,4,2,24,0002-00-0006-19.png,0005-00-0009-91.png
00000009,536,0,1445269713283,1445269713319,897,384,0,0,0,1,2,1,12,0004-00-0005-41.png,0002-00-0000-68.png
00000009,537,1,1445269716462,1445269717170,421,394,0,0,0,2,5,3,25,0002-00-0006-02.png,0001-00-0004-63.png
00000009,538,0,1445269718518,1445269718825,1039,521,0,0,0,1,4,3,14,0004-00-0008-88.png,0005-00-0002-06.png
00000009,539,1,1445269721760,1445269722553,936,351,0,0,0,4,3,1,43,0005-00-0005-28.png,0003-00-0001-46.png
00000009,540,1,1445269723458,1445269723522,873,462,0,0,0,4,1,3,41,0005-00-0001-03.png,0004-00-0003-79.png
00000009,541,1,1445269724620,1445269725316,1092,266,0,0,0,3,1,2,31,0003-00-0005-53.png,0004-00-0000-00.png
00000009,542,0,1445269726151,1445269726163,997,412,0,0,0,3,5,2,35,0003-00-0007-98.png,0001-00-0006-49.png
00000009,543,1,1445269729539,1445269730076,476,274,0,0,0,1,4,3,14,0004-00-0003-22.png,0005-00-0006-11.png
00000009,544,0,1445269731311,1445269731367,865,362,0,0,0,3,4,1,34,0003-00-0006-91.png,0005-00-0005-43.png
00000009,545,1,1445269734462,1445269734506,888,332,0,0,0,4,1,3,41,0005-00-0004-77.png,0004-00-0001-57.png
00000009,546,1,1445269735402,1445269736674,392,260,0,0,0,2,5,3,25,0002-00-0004-28.png,0001-00-0003-73.png
00000009,547,1,1445269737608,1445269738565,1048,272,0,0,0,3,2,1,32,0003-00-0002-42.png,0002-00-0000-97.png
00000009,548,1,1445269739428,1445269739448,904,390,0,0,0,5,2,3,52,0001-00-0003-84.png,0002-00-0000-04.png
00000009,549,1,1445269740620,1445269740660,913,410,0,0,0,4,3,1,43,0005-00-0001-71.png,0003-00-0005-67.png
00000009,550,1,1445269741794,1445269741830,902,410,0,0,0,4,2,2,42,0005-00-0007-03.png,0002-00-0003-61.png
00000009,551,0,1445269743035,1445269743051,922,415,0,0,0,1,5,4,15,0004-00-0004-19.png,0001-00-0006-29.png
00000009,552,0,1445269746215,1445269746809,960,313,0,0,0,1,2,1,12,0004-00-0006-70.png,0002-00-0005-78.png
00000009,553,1,1445269749970,1445269749998,870,349,0,0,0,5,1,4,51,0001-00-0002-23.png,0004-00-0007-34.png
00000009,554,1,1445269750948,1445269752157,442,237,0,0,0,2,4,2,24,0002-00-0005-19.png,0005-00-0004-57.png
00000009,555,1,1445269753122,1445269754518,470,254,0,0,0,2,3,1,23,0002-00-0000-89.png,0003-00-0002-47.png
00000009,556,0,1445269755428,1445269756227,1050,283,0,0,0,1,3,2,13,0004-00-0001-48.png,0003-00-0002-14.png
00000009,557,0,1445269759283,1445269760454,401,263,0,0,0,5,4,1,54,0001-00-0008-20.png,0005-00-0008-94.png
00000009,558,1,1445269763336,1445269764344,1195,384,0,0,0,2,1,1,21,0002-00-0006-28.png,0004-00-0001-16.png
00000009,559,0,1445269765196,1445269765228,889,413,0,0,0,4,5,1,45,0005-00-0009-37.png,0001-00-0000-47.png
00000009,560,1,1445269768099,1445269768135,884,346,0,0,0,5,3,2,53,0001-00-0000-89.png,0003-00-0001-53.png
00000009,561,1,1445269769115,1445269769734,443,225,0,0,0,1,5,4,15,0004-00-0003-74.png,0001-00-0006-14.png
00000009,562,1,1445269770573,1445269771428,1182,377,0,0,0,4,2,2,42,0005-00-0006-87.png,0002-00-0000-99.png
00000009,563,0,1445269772464,1445269772520,904,436,0,0,0,2,3,1,23,0002-00-0007-83.png,0003-00-0008-99.png
00000009,564,1,1445269775615,1445269776234,394,379,0,0,0,3,4,1,34,0003-00-0009-45.png,0005-00-0001-67.png
00000009,565,1,1445269777110,1445269778318,480,265,0,0,0,3,5,2,35,0003-00-0001-05.png,0001-00-0005-71.png
00000009,566,1,1445269779237,1445269780170,944,300,0,0,0,5,4,1,54,0001-00-0009-92.png,0005-00-0004-62.png
00000009,567,1,1445269781126,1445269781166,892,406,0,0,0,5,1,4,51,0001-00-0005-10.png,0004-00-0004-04.png
00000009,568,0,1445269782578,1445269782606,895,427,0,0,0,1,2,1,12,0004-00-0006-69.png,0002-00-0002-60.png
00000009,569,1,1445269785659,1445269786263,944,322,0,0,0,4,1,3,41,0005-00-0009-42.png,0004-00-0003-43.png
00000009,570,1,1445269787597,1445269788204,925,323,0,0,0,2,1,1,21,0002-00-0008-83.png,0004-00-0003-42.png
00000009,571,1,1445269789057,1445269789846,461,231,0,0,0,1,4,3,14,0004-00-0007-64.png,0005-00-0001-71.png
00000009,572,1,1445269790925,1445269790957,870,401,0,0,0,5,3,2,53,0001-00-0004-81.png,0003-00-0000-04.png
00000009,573,0,1445269792088,1445269792116,867,404,0,0,0,4,5,1,45,0005-00-0000-49.png,0001-00-0006-10.png
00000009,574,0,1445269796758,1445269797297,902,402,0,0,0,2,5,3,25,0002-00-0006-79.png,0001-00-0004-68.png
00000009,575,1,1445269800445,1445269801036,1067,296,0,0,0,3,2,1,32,0003-00-0006-80.png,0002-00-0004-77.png
00000009,576,0,1445269801946,1445269802598,422,431,0,0,0,3,1,2,31,0003-00-0008-78.png,0004-00-0001-05.png
00000009,577,1,1445269805751,1445269805759,890,331,0,0,0,5,2,3,52,0001-00-0005-16.png,0002-00-0001-16.png
00000009,578,0,1445269806814,1445269806943,888,462,0,0,0,1,3,2,13,0004-00-0004-07.png,0003-00-0005-33.png
00000009,579,1,1445269810305,1445269810333,862,350,0,0,0,4,3,1,43,0005-00-0008-39.png,0003-00-0008-23.png
00000009,580,0,1445269811409,1445269811445,861,385,0,0,0,2,4,2,24,0002-00-0005-72.png,0005-00-0005-31.png
00000009,581,1,1445269814326,1445269814844,1048,283,0,0,0,3,1,2,31,0003-00-0007-15.png,0004-00-0003-96.png
00000009,582,0,1445269815681,1445269815709,903,405,0,0,0,1,3,2,13,0004-00-0005-93.png,0003-00-0004-75.png
00000009,583,1,1445269819209,1445269819684,960,335,0,0,0,5,4,1,54,0001-00-0001-70.png,0005-00-0009-76.png
00000009,584,1,1445269820525,1445269820577,862,436,0,0,0,5,1,4,51,0001-00-0001-86.png,0004-00-0006-60.png
00000009,585,0,1445269821493,1445269821521,863,387,0,0,0,1,2,1,12,0004-00-0009-08.png,0002-00-0005-25.png
00000009,586,0,1445269824741,1445269825304,466,280,0,0,0,4,3,1,43,0005-00-0004-79.png,0003-00-0006-09.png
00000009,587,0,1445269828491,1445269828511,903,311,0,0,0,4,5,1,45,0005-00-0000-71.png,0001-00-0009-55.png
00000009,588,0,1445269831579,1445269832336,967,351,0,0,0,3,4,1,34,0003-00-0007-78.png,0005-00-0000-35.png
00000009,589,1,1445269835338,1445269835883,939,398,0,0,0,2,1,1,21,0002-00-0009-19.png,0004-00-0001-05.png
00000009,590,1,1445269837194,1445269838011,1085,264,0,0,0,5,3,2,53,0001-00-0008-46.png,0003-00-0004-14.png
00000009,591,1,1445269838894,1445269838934,892,367,0,0,0,3,2,1,32,0003-00-0006-18.png,0002-00-0003-78.png
00000009,592,1,1445269839877,1445269839917,872,358,0,0,0,4,1,3,41,0005-00-0003-18.png,0004-00-0006-37.png
00000009,593,0,1445269841030,1445269841082,894,403,0,0,0,3,5,2,35,0003-00-0009-21.png,0001-00-0007-57.png
00000009,594,1,1445269844171,1445269844207,918,335,0,0,0,4,2,2,42,0005-00-0003-27.png,0002-00-0004-52.png
00000009,595,0,1445269845194,1445269845284,878,410,0,0,0,1,5,4,15,0004-00-0001-97.png,0001-00-0001-66.png
00000009,596,1,1445269848452,1445269848460,914,297,0,0,0,5,2,3,52,0001-00-0009-40.png,0002-00-0004-97.png
00000009,597,1,1445269849358,1445269850058,399,344,0,0,0,2,4,2,24,0002-00-0002-53.png,0005-00-0000-17.png
00000009,598,0,1445269851076,1445269851104,905,396,0,0,0,1,4,3,14,0004-00-0004-50.png,0005-00-0004-64.png
00000009,599,1,1445269871400,1445269872075,346,398,0,0,0,2,5,3,25,0002-00-0004-97.png,0001-00-0008-98.png
00000009,600,1,1445269873141,1445269873833,452,246,0,0,0,2,3,1,23,0002-00-0006-37.png,0003-00-0008-38.png
00000009,601,0,1445269874692,1445269874728,905,393,0,0,0,2,3,1,23,0002-00-0009-65.png,0003-00-0006-15.png
00000009,602,1,1445269877570,1445269878493,338,358,0,0,0,3,4,1,34,0003-00-0004-77.png,0005-00-0009-77.png
00000009,603,0,1445269879341,1445269880245,1065,313,0,0,0,3,5,2,35,0003-00-0000-09.png,0001-00-0004-23.png
00000009,604,1,1445269883188,1445269883720,965,296,0,0,0,5,1,4,51,0001-00-0009-98.png,0004-00-0000-76.png
00000009,605,1,1445269884997,1445269885005,878,384,0,0,0,4,2,2,42,0005-00-0001-78.png,0002-00-0001-56.png
00000009,606,1,1445269885900,1445269885928,866,355,0,0,0,4,1,3,41,0005-00-0000-72.png,0004-00-0008-52.png
00000009,607,1,1445269887061,1445269887105,894,367,0,0,0,3,2,1,32,0003-00-0002-10.png,0002-00-0007-10.png
00000009,608,1,1445269888194,1445269888234,905,410,0,0,0,5,4,1,54,0001-00-0001-10.png,0005-00-0006-55.png
00000009,609,1,1445269889547,1445269889583,896,402,0,0,0,2,1,1,21,0002-00-0002-53.png,0004-00-0002-68.png
00000009,610,1,1445269890730,1445269890766,939,396,0,0,0,5,3,2,53,0001-00-0004-54.png,0003-00-0009-74.png
00000009,611,1,1445269891983,1445269892033,910,454,0,0,0,5,2,3,52,0001-00-0001-92.png,0002-00-0002-01.png
00000009,612,0,1445269893382,1445269893410,878,436,0,0,0,2,5,3,25,0002-00-0002-57.png,0001-00-0006-36.png
00000009,613,1,1445269896493,1445269897004,396,340,0,0,0,1,3,2,13,0004-00-0002-44.png,0003-00-0005-90.png
00000009,614,0,1445269898302,1445269898338,888,392,0,0,0,1,4,3,14,0004-00-0003-51.png,0005-00-0003-09.png
00000009,615,1,1445269901273,1445269901305,873,387,0,0,0,4,3,1,43,0005-00-0001-31.png,0003-00-0002-43.png
00000009,616,0,1445269902277,1445269902321,858,452,0,0,0,2,4,2,24,0002-00-0001-41.png,0005-00-0006-42.png
00000009,617,0,1445269905445,1445269906070,990,422,0,0,0,4,5,1,45,0005-00-0000-16.png,0001-00-0009-20.png
00000009,618,0,1445269909352,1445269909461,858,269,0,0,0,1,5,4,15,0004-00-0006-45.png,0001-00-0002-48.png
00000009,619,1,1445269912374,1445269912382,506,398,0,0,0,1,2,1,12,0004-00-0003-02.png,0002-00-0006-70.png
00000009,620,1,1445269913418,1445269913510,873,410,0,0,0,3,1,2,31,0003-00-0009-85.png,0004-00-0004-18.png
00000009,621,0,1445269914459,1445269914491,871,384,0,0,0,2,3,1,23,0002-00-0008-14.png,0003-00-0003-68.png
00000009,622,1,1445269917339,1445269917868,461,284,0,0,0,2,5,3,25,0002-00-0008-12.png,0001-00-0006-84.png
00000009,623,1,1445269919190,1445269919218,862,358,0,0,0,5,1,4,51,0001-00-0009-65.png,0004-00-0009-18.png
00000009,624,1,1445269920184,1445269920252,862,451,0,0,0,5,3,2,53,0001-00-0000-20.png,0003-00-0003-95.png
00000009,625,1,1445269921376,1445269921400,896,409,0,0,0,3,1,2,31,0003-00-0005-65.png,0004-00-0004-92.png
00000009,626,1,1445269922709,1445269922817,907,486,0,0,0,4,1,3,41,0005-00-0002-88.png,0004-00-0004-55.png
00000009,627,0,1445269924188,1445269924212,862,423,0,0,0,1,3,2,13,0004-00-0009-95.png,0003-00-0003-46.png
00000009,628,0,1445269927406,1445269927454,888,332,0,0,0,4,5,1,45,0005-00-0004-22.png,0001-00-0004-33.png
00000009,629,0,1445269930429,1445269931045,423,279,0,0,0,2,1,1,21,0002-00-0003-22.png,0004-00-0008-66.png
00000009,630,1,1445269933895,1445269934513,458,310,0,0,0,1,5,4,15,0004-00-0002-52.png,0001-00-0002-51.png
00000009,631,1,1445269935886,1445269936494,1054,265,0,0,0,5,2,3,52,0001-00-0006-70.png,0002-00-0007-20.png
00000009,632,0,1445269937842,1445269937892,898,394,0,0,0,1,2,1,12,0004-00-0004-12.png,0002-00-0008-10.png
00000009,633,0,1445269940983,1445269941011,935,351,0,0,0,3,5,2,35,0003-00-0006-63.png,0001-00-0009-00.png
00000009,634,1,1445269944113,1445269944165,913,306,0,0,0,4,3,1,43,0005-00-0001-90.png,0003-00-0000-59.png
00000009,635,1,1445269945066,1445269945672,1041,265,0,0,0,3,2,1,32,0003-00-0000-37.png,0002-00-0005-87.png
00000009,636,0,1445269946537,1445269946565,942,402,0,0,0,3,4,1,34,0003-00-0002-08.png,0005-00-0007-80.png
00000009,637,1,1445269949667,1445269949707,887,344,0,0,0,4,2,2,42,0005-00-0009-71.png,0002-00-0007-46.png
00000009,638,1,1445269950654,1445269950698,905,436,0,0,0,5,4,1,54,0001-00-0008-30.png,0005-00-0004-87.png
00000009,639,0,1445269951793,1445269951837,888,410,0,0,0,2,4,2,24,0002-00-0000-49.png,0005-00-0004-22.png
00000009,640,1,1445269955233,1445269955935,453,269,0,0,0,1,4,3,14,0004-00-0004-87.png,0005-00-0005-28.png
00000009,641,0,1445269957260,1445269957555,999,488,0,0,0,2,4,2,24,0002-00-0009-61.png,0005-00-0007-10.png
00000009,642,1,1445269962359,1445269962406,888,332,0,0,0,5,2,3,52,0001-00-0004-42.png,0002-00-0002-96.png
00000009,643,1,1445269963500,1445269964136,1060,296,0,0,0,5,4,1,54,0001-00-0006-35.png,0005-00-0005-59.png
00000009,644,0,1445269965010,1445269965074,913,410,0,0,0,2,3,1,23,0002-00-0008-13.png,0003-00-0008-67.png
00000009,645,0,1445269968161,1445269968185,890,358,0,0,0,3,4,1,34,0003-00-0007-41.png,0005-00-0008-14.png
00000009,646,1,1445269971312,1445269971893,432,252,0,0,0,2,5,3,25,0002-00-0003-17.png,0001-00-0002-61.png
00000009,647,1,1445269973169,1445269973550,1036,467,0,0,0,5,1,4,51,0001-00-0001-92.png,0004-00-0001-39.png
00000009,648,0,1445269974543,1445269974551,873,375,0,0,0,1,4,3,14,0004-00-0003-40.png,0005-00-0008-37.png
00000009,649,0,1445269977624,1445269977664,890,370,0,0,0,1,3,2,13,0004-00-0008-06.png,0003-00-0002-60.png
00000009,650,1,1445269980804,1445269981409,965,330,0,0,0,2,1,1,21,0002-00-0006-01.png,0004-00-0004-58.png
00000009,651,1,1445269982780,1445269982792,870,335,0,0,0,4,3,1,43,0005-00-0002-88.png,0003-00-0008-43.png
00000009,652,1,1445269983773,1445269984604,1029,286,0,0,0,3,1,2,31,0003-00-0003-76.png,0004-00-0003-99.png
00000009,653,0,1445269985481,1445269986904,433,272,0,0,0,4,2,2,42,0005-00-0004-20.png,0002-00-0008-33.png
00000009,654,0,1445269990441,1445269990485,890,311,0,0,0,4,5,1,45,0005-00-0009-42.png,0001-00-0000-41.png
00000009,655,1,1445269993631,1445269993937,1019,299,0,0,0,3,2,1,32,0003-00-0001-08.png,0002-00-0003-51.png
00000009,656,1,1445269994843,1445269995227,941,550,0,0,0,5,3,2,53,0001-00-0004-24.png,0003-00-0004-72.png
00000009,657,0,1445269996216,1445269996244,890,405,0,0,0,1,5,4,15,0004-00-0003-12.png,0001-00-0009-69.png
00000009,658,1,1445269999380,1445269999880,484,280,0,0,0,1,2,1,12,0004-00-0008-88.png,0002-00-0004-82.png
00000009,659,0,1445270000744,1445270001511,933,338,0,0,0,3,5,2,35,0003-00-0003-07.png,0001-00-0001-72.png
00000009,660,1,1445270004591,1445270005153,958,322,0,0,0,4,1,3,41,0005-00-0001-91.png,0004-00-0008-21.png
00000009,661,1,1445270006481,1445270007576,332,364,0,0,0,1,3,2,13,0004-00-0003-81.png,0003-00-0003-40.png
00000009,662,1,1445270008725,1445270009459,445,262,0,0,0,2,3,1,23,0002-00-0008-88.png,0003-00-0000-75.png
00000009,663,1,1445270010523,1445270010563,868,397,0,0,0,4,2,2,42,0005-00-0006-98.png,0002-00-0000-01.png
00000009,664,1,1445270012593,1445270013204,507,235,0,0,0,1,4,3,14,0004-00-0003-40.png,0005-00-0002-74.png
00000009,665,1,1445270014132,1445270014160,885,360,0,0,0,4,3,1,43,0005-00-0001-03.png,0003-00-0007-27.png
00000009,666,0,1445270015285,1445270015345,893,480,0,0,0,2,4,2,24,0002-00-0002-55.png,0005-00-0004-49.png
00000009,667,1,1445270018533,1445270018605,888,345,0,0,0,4,1,3,41,0005-00-0003-78.png,0004-00-0008-49.png
00000009,668,0,1445270019558,1445270020455,1055,282,0,0,0,1,2,1,12,0004-00-0009-38.png,0002-00-0004-97.png
00000009,669,1,1445270023332,1445270023392,882,432,0,0,0,5,4,1,54,0001-00-0007-41.png,0005-00-0004-52.png
00000009,670,1,1445270024327,1445270025562,372,335,0,0,0,3,5,2,35,0003-00-0007-87.png,0001-00-0004-12.png
00000009,671,0,1445270026441,1445270026469,885,383,0,0,0,3,4,1,34,0003-00-0008-32.png,0005-00-0005-84.png
00000009,672,1,1445270029474,1445270029995,1052,326,0,0,0,3,1,2,31,0003-00-0005-16.png,0004-00-0002-16.png
00000009,673,1,1445270031330,1445270031806,1017,549,0,0,0,2,1,1,21,0002-00-0008-70.png,0004-00-0002-55.png
00000009,674,1,1445270032813,1445270033971,377,351,0,0,0,1,5,4,15,0004-00-0007-08.png,0001-00-0008-03.png
00000009,675,1,1445270034837,1445270035523,1051,296,0,0,0,5,1,4,51,0001-00-0005-06.png,0004-00-0005-02.png
00000009,676,0,1445270036717,1445270037861,1075,298,0,0,0,4,5,1,45,0005-00-0006-33.png,0001-00-0004-75.png
00000009,677,1,1445270041077,1445270041109,908,331,0,0,0,5,2,3,52,0001-00-0008-17.png,0002-00-0004-00.png
00000009,678,1,1445270042035,1445270042716,1034,272,0,0,0,3,2,1,32,0003-00-0008-16.png,0002-00-0000-55.png
00000009,679,0,1445270043559,1445270044348,488,339,0,0,0,5,3,2,53,0001-00-0004-54.png,0003-00-0006-36.png
00000009,680,0,1445270047538,1445270047550,907,316,0,0,0,2,5,3,25,0002-00-0000-22.png,0001-00-0007-41.png
00000009,681,1,1445270050788,1445270050840,892,333,0,0,0,5,2,3,52,0001-00-0004-92.png,0002-00-0002-62.png
00000009,682,0,1445270051820,1445270051856,872,400,0,0,0,3,5,2,35,0003-00-0001-64.png,0001-00-0002-54.png
00000009,683,1,1445270054993,1445270055041,893,330,0,0,0,2,1,1,21,0002-00-0008-69.png,0004-00-0007-42.png
00000009,684,1,1445270055964,1445270056748,482,232,0,0,0,1,3,2,13,0004-00-0001-63.png,0003-00-0009-91.png
00000009,685,0,1445270057633,1445270057685,862,436,0,0,0,1,2,1,12,0004-00-0005-17.png,0002-00-0000-86.png
00000009,686,1,1445270060564,1445270061108,1085,309,0,0,0,4,1,3,41,0005-00-0009-84.png,0004-00-0001-97.png
00000009,687,0,1445270062446,1445270062466,902,368,0,0,0,2,3,1,23,0002-00-0006-03.png,0003-00-0002-64.png
00000009,688,1,1445270065634,1445270065662,901,334,0,0,0,3,2,1,32,0003-00-0007-13.png,0002-00-0007-79.png
00000009,689,1,1445270066577,1445270067678,930,331,0,0,0,4,3,1,43,0005-00-0007-94.png,0003-00-0002-05.png
00000009,690,0,1445270068533,1445270068553,863,396,0,0,0,3,4,1,34,0003-00-0002-05.png,0005-00-0002-47.png
00000009,691,1,1445270071845,1445270072395,990,402,0,0,0,3,1,2,31,0003-00-0009-96.png,0004-00-0005-31.png
00000009,692,1,1445270073232,1445270073252,876,462,0,0,0,5,4,1,54,0001-00-0008-02.png,0005-00-0002-26.png
00000009,693,1,1445270074287,1445270075003,383,363,0,0,0,2,5,3,25,0002-00-0000-86.png,0001-00-0002-68.png
00000009,694,1,1445270076147,1445270076833,470,235,0,0,0,2,4,2,24,0002-00-0006-02.png,0005-00-0009-74.png
00000009,695,1,1445270077793,1445270078638,1050,227,0,0,0,4,2,2,42,0005-00-0004-57.png,0002-00-0009-28.png
00000009,696,1,1445270079604,1445270079704,876,462,0,0,0,5,1,4,51,0001-00-0001-84.png,0004-00-0004-67.png
00000009,697,0,1445270080797,1445270080817,898,406,0,0,0,1,5,4,15,0004-00-0003-65.png,0001-00-0003-55.png
00000009,698,0,1445270083660,1445270084195,484,285,0,0,0,5,3,2,53,0001-00-0006-41.png,0003-00-0008-14.png
00000009,699,1,1445270090238,1445270090834,453,279,0,0,0,1,4,3,14,0004-00-0006-66.png,0005-00-0000-40.png
00000009,700,1,1445270092215,1445270092841,462,234,0,0,0,4,5,1,45,0005-00-0002-17.png,0001-00-0008-82.png
00000009,701,0,1445270093765,1445270094396,992,273,0,0,0,3,5,2,35,0003-00-0009-46.png,0001-00-0008-01.png
00000009,702,1,1445270097619,1445270098127,388,358,0,0,0,1,5,4,15,0004-00-0001-87.png,0001-00-0005-40.png
00000009,703,1,1445270098994,1445270099624,1056,280,0,0,0,4,2,2,42,0005-00-0003-62.png,0002-00-0000-40.png
00000009,704,0,1445270100494,1445270100520,906,403,0,0,0,1,3,2,13,0004-00-0004-67.png,0003-00-0000-99.png
00000009,705,0,1445270103623,1445270103659,886,334,0,0,0,3,4,1,34,0003-00-0003-62.png,0005-00-0001-41.png
00000009,706,1,1445270106833,1445270107525,970,338,0,0,0,5,2,3,52,0001-00-0008-42.png,0002-00-0008-93.png
00000009,707,0,1445270108411,1445270108427,862,398,0,0,0,2,5,3,25,0002-00-0009-49.png,0001-00-0002-40.png
00000009,708,1,1445270111581,1445270112140,957,327,0,0,0,4,3,1,43,0005-00-0009-14.png,0003-00-0003-14.png
00000009,709,1,1445270113001,1445270113265,932,520,0,0,0,3,1,2,31,0003-00-0002-51.png,0004-00-0007-17.png
00000009,710,0,1445270114265,1445270114293,861,397,0,0,0,2,3,1,23,0002-00-0000-59.png,0003-00-0003-54.png
00000009,711,0,1445270117344,1445270117376,893,376,0,0,0,2,4,2,24,0002-00-0003-70.png,0005-00-0006-45.png
00000009,712,1,1445270120534,1445270120574,909,326,0,0,0,3,2,1,32,0003-00-0005-49.png,0002-00-0008-20.png
00000009,713,1,1445270121537,1445270121573,863,459,0,0,0,5,1,4,51,0001-00-0005-62.png,0004-00-0004-12.png
00000009,714,0,1445270122661,1445270122689,884,384,0,0,0,1,4,3,14,0004-00-0000-64.png,0005-00-0006-42.png
00000009,715,0,1445270125671,1445270126269,453,277,0,0,0,2,1,1,21,0002-00-0007-86.png,0004-00-0004-18.png
00000009,716,1,1445270131646,1445270132138,919,359,0,0,0,4,1,3,41,0005-00-0006-99.png,0004-00-0001-87.png
00000009,717,1,1445270133124,1445270133738,941,318,0,0,0,5,4,1,54,0001-00-0009-09.png,0005-00-0003-30.png
00000009,718,0,1445270134604,1445270134690,913,465,0,0,0,4,5,1,45,0005-00-0006-18.png,0001-00-0005-05.png
00000009,719,0,1445270137785,1445270138299,1036,280,0,0,0,1,2,1,12,0004-00-0008-53.png,0002-00-0006-88.png
00000009,720,1,1445270141324,1445270141839,922,302,0,0,0,5,3,2,53,0001-00-0001-38.png,0003-00-0009-20.png
00000009,721,1,1445270143212,1445270143754,470,261,0,0,0,4,5,1,45,0005-00-0007-45.png,0001-00-0005-98.png
00000009,722,1,1445270144651,1445270144723,888,400,0,0,0,5,4,1,54,0001-00-0009-71.png,0005-00-0003-79.png
00000009,723,0,1445270145785,1445270145825,894,400,0,0,0,1,5,4,15,0004-00-0008-81.png,0001-00-0004-82.png
00000009,724,1,1445270148659,1445270149156,966,330,0,0,0,5,1,4,51,0001-00-0006-26.png,0004-00-0002-75.png
00000009,725,0,1445270150446,1445270150872,1015,549,0,0,0,3,4,1,34,0003-00-0005-79.png,0005-00-0008-23.png
00000009,726,0,1445270153795,1445270154834,441,377,0,0,0,4,3,1,43,0005-00-0009-40.png,0003-00-0000-93.png
00000009,727,1,1445270157791,1445270158680,519,285,0,0,0,2,5,3,25,0002-00-0000-48.png,0001-00-0002-67.png
00000009,728,1,1445270159648,1445270160252,1048,298,0,0,0,3,2,1,32,0003-00-0000-82.png,0002-00-0000-58.png
00000009,729,1,1445270161096,1445270161124,888,384,0,0,0,4,2,2,42,0005-00-0006-18.png,0002-00-0001-04.png
00000009,730,1,1445270162511,1445270162515,920,402,0,0,0,2,1,1,21,0002-00-0003-50.png,0004-00-0000-54.png
00000009,731,1,1445270163671,1445270163703,901,406,0,0,0,3,1,2,31,0003-00-0006-32.png,0004-00-0000-02.png
00000009,732,0,1445270165085,1445270165137,879,436,0,0,0,2,3,1,23,0002-00-0005-99.png,0003-00-0003-74.png
00000009,733,1,1445270168076,1445270168560,473,295,0,0,0,1,4,3,14,0004-00-0000-83.png,0005-00-0001-67.png
00000009,734,1,1445270169393,1445270170190,486,262,0,0,0,3,5,2,35,0003-00-0009-26.png,0001-00-0001-12.png
00000009,735,1,1445270171134,1445270171186,923,410,0,0,0,5,3,2,53,0001-00-0001-16.png,0003-00-0008-19.png
00000009,736,1,1445270172416,1445270172488,938,435,0,0,0,5,2,3,52,0001-00-0002-70.png,0002-00-0004-43.png
00000009,737,0,1445270173648,1445270173708,923,462,0,0,0,2,4,2,24,0002-00-0006-62.png,0005-00-0000-15.png
00000009,738,1,1445270176798,1445270177234,375,385,0,0,0,1,3,2,13,0004-00-0001-42.png,0003-00-0001-05.png
00000009,739,1,1445270178081,1445270178113,885,432,0,0,0,4,1,3,41,0005-00-0005-31.png,0004-00-0002-51.png
00000009,740,0,1445270179174,1445270179242,907,430,0,0,0,1,2,1,12,0004-00-0008-26.png,0002-00-0004-94.png
00000009,741,1,1445270182323,1445270182900,964,409,0,0,0,4,3,1,43,0005-00-0001-88.png,0003-00-0000-97.png
00000009,742,0,1445270183844,1445270183856,862,426,0,0,0,3,4,1,34,0003-00-0007-67.png,0005-00-0006-65.png
00000009,743,1,1445270186982,1445270187578,1012,277,0,0,0,3,2,1,32,0003-00-0007-74.png,0002-00-0008-35.png
00000009,744,1,1445270188482,1445270188514,870,460,0,0,0,4,1,3,41,0005-00-0008-03.png,0004-00-0005-49.png
00000009,745,1,1445270189409,1445270190467,459,408,0,0,0,3,5,2,35,0003-00-0009-02.png,0001-00-0005-39.png
00000009,746,0,1445270191445,1445270192724,939,325,0,0,0,4,5,1,45,0005-00-0005-81.png,0001-00-0003-01.png
00000009,747,1,1445270195717,1445270195777,900,382,0,0,0,3,1,2,31,0003-00-0003-81.png,0004-00-0001-28.png
00000009,748,1,1445270196721,1445270197428,1057,297,0,0,0,4,2,2,42,0005-00-0009-15.png,0002-00-0004-74.png
00000009,749,0,1445270198381,1445270198413,929,436,0,0,0,2,4,2,24,0002-00-0007-09.png,0005-00-0004-34.png
00000009,750,0,1445270201434,1445270202671,410,282,0,0,0,2,1,1,21,0002-00-0007-74.png,0004-00-0003-83.png
00000009,751,1,1445270206451,1445270206519,913,332,0,0,0,5,4,1,54,0001-00-0001-55.png,0005-00-0002-58.png
00000009,752,0,1445270207584,1445270207612,861,403,0,0,0,1,2,1,12,0004-00-0006-62.png,0002-00-0000-85.png
00000009,753,1,1445270210784,1445270211297,1091,281,0,0,0,5,2,3,52,0001-00-0007-87.png,0002-00-0009-14.png
00000009,754,0,1445270212681,1445270212741,888,358,0,0,0,1,4,3,14,0004-00-0005-63.png,0005-00-0004-05.png
00000009,755,1,1445270215842,1445270216347,376,372,0,0,0,1,3,2,13,0004-00-0009-96.png,0003-00-0000-93.png
00000009,756,0,1445270217829,1445270218563,982,285,0,0,0,2,5,3,25,0002-00-0001-68.png,0001-00-0008-43.png
00000009,757,1,1445270221984,1445270222796,961,336,0,0,0,5,3,2,53,0001-00-0006-64.png,0003-00-0003-72.png
00000009,758,0,1445270223691,1445270223719,886,438,0,0,0,2,3,1,23,0002-00-0008-10.png,0003-00-0001-91.png
00000009,759,1,1445270226684,1445270227216,939,323,0,0,0,5,1,4,51,0001-00-0009-58.png,0004-00-0000-80.png
00000009,760,0,1445270228063,1445270228095,915,421,0,0,0,1,5,4,15,0004-00-0004-41.png,0001-00-0004-06.png
00000009,761,1,1445270230945,1445270231602,939,285,0,0,0,4,2,2,42,0005-00-0000-65.png,0002-00-0008-09.png
00000009,762,0,1445270233023,1445270233435,1018,562,0,0,0,1,5,4,15,0004-00-0004-56.png,0001-00-0005-28.png
00000009,763,1,1445270237506,1445270237606,870,332,0,0,0,4,3,1,43,0005-00-0007-98.png,0003-00-0005-93.png
00000009,764,1,1445270238657,1445270239282,474,241,0,0,0,2,5,3,25,0002-00-0001-55.png,0001-00-0002-67.png
00000009,765,0,1445270240118,1445270241250,459,289,0,0,0,3,2,1,32,0003-00-0000-08.png,0002-00-0007-18.png
00000009,766,1,1445270244381,1445270244979,444,278,0,0,0,2,4,2,24,0002-00-0001-44.png,0005-00-0008-29.png
00000009,767,1,1445270245821,1445270245863,876,410,0,0,0,3,1,2,31,0003-00-0001-43.png,0004-00-0000-60.png
00000009,768,0,1445270246886,1445270246962,904,410,0,0,0,1,3,2,13,0004-00-0000-70.png,0003-00-0002-08.png
00000009,769,1,1445270250146,1445270250639,453,279,0,0,0,1,2,1,12,0004-00-0001-89.png,0002-00-0002-55.png
00000009,770,1,1445270251555,1445270251607,943,394,0,0,0,5,4,1,54,0001-00-0007-23.png,0005-00-0004-33.png
00000009,771,1,1445270252576,1445270252604,886,418,0,0,0,5,1,4,51,0001-00-0008-46.png,0004-00-0004-34.png
00000009,772,1,1445270253831,1445270253871,904,426,0,0,0,2,1,1,21,0002-00-0003-37.png,0004-00-0004-84.png
00000009,773,1,1445270255188,1445270256263,1043,370,0,0,0,5,3,2,53,0001-00-0008-47.png,0003-00-0008-39.png
00000009,774,0,1445270257240,1445270257268,900,433,0,0,0,1,4,3,14,0004-00-0003-27.png,0005-00-0000-15.png
00000009,775,1,1445270260124,1445270260625,939,374,0,0,0,5,2,3,52,0001-00-0008-52.png,0002-00-0000-68.png
00000009,776,1,1445270261972,1445270263010,360,428,0,0,0,2,3,1,23,0002-00-0009-27.png,0003-00-0002-14.png
00000009,777,0,1445270263946,1445270264734,942,325,0,0,0,4,5,1,45,0005-00-0002-35.png,0001-00-0002-55.png
00000009,778,1,1445270267879,1445270268435,957,393,0,0,0,4,1,3,41,0005-00-0006-38.png,0004-00-0009-76.png
00000009,779,0,1445270269322,1445270269362,898,436,0,0,0,3,5,2,35,0003-00-0001-89.png,0001-00-0001-39.png
00000009,780,1,1445270272394,1445270272894,453,293,0,0,0,3,4,1,34,0003-00-0007-37.png,0005-00-0008-59.png
00000009,781,1,1445270273795,1445270273839,911,425,0,0,0,3,2,1,32,0003-00-0002-71.png,0002-00-0001-42.png
00000009,782,0,1445270274768,1445270274808,898,384,0,0,0,3,4,1,34,0003-00-0006-27.png,0005-00-0005-43.png
00000009,783,1,1445270277649,1445270278534,333,355,0,0,0,4,5,1,45,0005-00-0009-47.png,0001-00-0000-86.png
00000009,784,1,1445270279439,1445270279467,914,387,0,0,0,4,1,3,41,0005-00-0002-87.png,0004-00-0000-98.png
00000009,785,0,1445270280532,1445270280610,913,449,0,0,0,1,5,4,15,0004-00-0005-27.png,0001-00-0003-56.png
00000009,786,1,1445270283631,1445270284188,939,323,0,0,0,3,1,2,31,0003-00-0000-25.png,0004-00-0001-23.png
00000009,787,1,1445270285051,1445270285119,939,436,0,0,0,4,3,1,43,0005-00-0001-16.png,0003-00-0000-86.png
00000009,788,1,1445270286135,1445270286176,937,380,0,0,0,5,1,4,51,0001-00-0000-39.png,0004-00-0003-24.png
00000009,789,0,1445270287290,1445270287366,922,498,0,0,0,2,5,3,25,0002-00-0008-45.png,0001-00-0001-59.png
00000009,790,1,1445270290467,1445270291348,417,312,0,0,0,1,4,3,14,0004-00-0008-33.png,0005-00-0000-33.png
00000009,791,0,1445270292326,1445270292358,864,453,0,0,0,2,4,2,24,0002-00-0003-66.png,0005-00-0005-94.png
00000009,792,1,1445270295497,1445270296022,467,279,0,0,0,2,3,1,23,0002-00-0005-77.png,0003-00-0003-50.png
00000009,793,1,1445270296948,1445270297949,453,265,0,0,0,3,5,2,35,0003-00-0009-15.png,0001-00-0007-10.png
00000009,794,1,1445270298933,1445270298977,872,436,0,0,0,5,2,3,52,0001-00-0003-21.png,0002-00-0009-82.png
00000009,795,0,1445270300078,1445270300098,913,386,0,0,0,1,3,2,13,0004-00-0003-73.png,0003-00-0000-23.png
00000009,796,0,1445270303456,1445270304059,964,347,0,0,0,1,2,1,12,0004-00-0001-16.png,0002-00-0006-11.png
00000009,797,0,1445270307400,1445270307866,389,410,0,0,0,5,4,1,54,0001-00-0000-67.png,0005-00-0004-80.png
00000009,798,1,1445270311079,1445270311698,931,334,0,0,0,4,2,2,42,0005-00-0002-20.png,0002-00-0002-37.png
00000009,799,0,1445270312758,1445270313397,476,238,0,0,0,2,1,1,21,0002-00-0003-40.png,0004-00-0000-15.png
00000009,800,1,1445270316605,1445270317148,944,337,0,0,0,5,3,2,53,0001-00-0006-22.png,0003-00-0002-90.png
00000009,801,0,1445270318003,1445270319333,1067,279,0,0,0,4,5,1,45,0005-00-0008-05.png,0001-00-0005-82.png
00000009,802,1,1445270322477,1445270322516,896,336,0,0,0,3,1,2,31,0003-00-0003-20.png,0004-00-0007-93.png
00000009,803,1,1445270323549,1445270324266,472,235,0,0,0,2,4,2,24,0002-00-0005-09.png,0005-00-0006-65.png
00000009,804,1,1445270325179,1445270326066,936,324,0,0,0,3,2,1,32,0003-00-0001-65.png,0002-00-0009-78.png
00000009,805,0,1445270327034,1445270327066,907,405,0,0,0,3,4,1,34,0003-00-0006-47.png,0005-00-0004-57.png
00000009,806,1,1445270331389,1445270331923,471,287,0,0,0,2,3,1,23,0002-00-0008-90.png,0003-00-0003-35.png
00000009,807,1,1445270332819,1445270334105,412,301,0,0,0,1,2,1,12,0004-00-0009-83.png,0002-00-0006-05.png
00000009,808,1,1445270335059,1445270335087,887,437,0,0,0,2,1,1,21,0002-00-0006-04.png,0004-00-0005-77.png
00000009,809,1,1445270336196,1445270336256,914,402,0,0,0,4,3,1,43,0005-00-0008-68.png,0003-00-0008-88.png
00000009,810,0,1445270337399,1445270337460,913,436,0,0,0,1,4,3,14,0004-00-0009-13.png,0005-00-0004-47.png
00000009,811,1,1445270340622,1445270341103,446,321,0,0,0,2,5,3,25,0002-00-0002-53.png,0001-00-0004-07.png
00000009,812,0,1445270342020,1445270342698,401,410,0,0,0,4,1,3,41,0005-00-0009-99.png,0004-00-0001-43.png
00000009,813,1,1445270345908,1445270346441,977,304,0,0,0,5,1,4,51,0001-00-0008-85.png,0004-00-0004-43.png
00000009,814,1,1445270347318,1445270347346,890,415,0,0,0,4,2,2,42,0005-00-0007-46.png,0002-00-0004-05.png
00000009,815,1,1445270348348,1445270348372,885,400,0,0,0,5,4,1,54,0001-00-0001-51.png,0005-00-0004-22.png
00000009,816,0,1445270349513,1445270349553,870,455,0,0,0,3,5,2,35,0003-00-0006-35.png,0001-00-0000-77.png
00000009,817,1,1445270352724,1445270352764,888,332,0,0,0,5,3,2,53,0001-00-0003-92.png,0003-00-0006-82.png
00000009,818,1,1445270353776,1445270353796,874,426,0,0,0,5,2,3,52,0001-00-0009-47.png,0002-00-0009-38.png
00000009,819,1,1445270354809,1445270355684,444,234,0,0,0,1,5,4,15,0004-00-0006-02.png,0001-00-0007-99.png
00000009,820,0,1445270356670,1445270356726,897,518,0,0,0,1,3,2,13,0004-00-0004-02.png,0003-00-0000-90.png
00000009,821,1,1445270365324,1445270365830,1047,309,0,0,0,5,2,3,52,0001-00-0009-74.png,0002-00-0001-17.png
00000009,822,1,1445270366766,1445270367120,968,513,0,0,0,5,4,1,54,0001-00-0004-72.png,0005-00-0007-73.png
00000009,823,1,1445270368189,1445270368249,913,410,0,0,0,5,1,4,51,0001-00-0003-74.png,0004-00-0007-59.png
00000009,824,0,1445270369362,1445270369398,880,443,0,0,0,1,2,1,12,0004-00-0004-52.png,0002-00-0009-96.png
00000009,825,1,1445270373050,1445270373588,1023,282,0,0,0,4,2,2,42,0005-00-0009-60.png,0002-00-0007-05.png
00000009,826,1,1445270374426,1445270374470,862,436,0,0,0,4,3,1,43,0005-00-0004-78.png,0003-00-0002-65.png
00000009,827,1,1445270375294,1445270376146,431,272,0,0,0,2,4,2,24,0002-00-0007-07.png,0005-00-0005-26.png
00000009,828,1,1445270377569,1445270378249,475,243,0,0,0,2,3,1,23,0002-00-0004-35.png,0003-00-0001-75.png
00000009,829,1,1445270379078,1445270380071,918,341,0,0,0,3,2,1,32,0003-00-0001-98.png,0002-00-0000-18.png
00000009,830,0,1445270381673,1445270381681,878,365,0,0,0,3,4,1,34,0003-00-0006-11.png,0005-00-0000-90.png
00000009,831,0,1445270384794,1445270385439,1061,272,0,0,0,3,5,2,35,0003-00-0009-82.png,0001-00-0004-38.png
00000009,832,0,1445270388678,1445270389315,1064,295,0,0,0,1,5,4,15,0004-00-0007-77.png,0001-00-0009-40.png
00000009,833,1,1445270398394,1445270398896,1016,279,0,0,0,4,1,3,41,0005-00-0001-35.png,0004-00-0005-46.png
00000009,834,1,1445270399916,1445270400616,415,358,0,0,0,1,4,3,14,0004-00-0005-34.png,0005-00-0005-44.png
00000009,835,0,1445270402002,1445270402653,1033,273,0,0,0,4,5,1,45,0005-00-0002-02.png,0001-00-0009-60.png
00000009,836,1,1445270405539,1445270406227,429,262,0,0,0,2,5,3,25,0002-00-0001-23.png,0001-00-0003-48.png
00000009,837,1,1445270407547,1445270407905,992,511,0,0,0,2,1,1,21,0002-00-0005-12.png,0004-00-0006-58.png
00000009,838,1,1445270408938,1445270409681,903,292,0,0,0,3,1,2,31,0003-00-0001-28.png,0004-00-0007-81.png
00000009,839,1,1445270410607,1445270411317,327,386,0,0,0,1,3,2,13,0004-00-0001-51.png,0003-00-0008-62.png
00000009,840,0,1445270412375,1445270413248,492,306,0,0,0,5,3,2,53,0001-00-0003-13.png,0003-00-0004-47.png
00000009,841,0,1445270416419,1445270416960,440,296,0,0,0,2,1,1,21,0002-00-0005-35.png,0004-00-0009-89.png
00000009,842,1,1445270419938,1445270420444,962,340,0,0,0,4,1,3,41,0005-00-0002-08.png,0004-00-0007-80.png
00000009,843,1,1445270421310,1445270421390,888,423,0,0,0,5,3,2,53,0001-00-0007-31.png,0003-00-0002-61.png
00000009,844,0,1445270422453,1445270422537,888,436,0,0,0,3,4,1,34,0003-00-0003-28.png,0005-00-0005-10.png
00000009,845,1,1445270427800,1445270427936,895,355,0,0,0,5,2,3,52,0001-00-0003-61.png,0002-00-0005-62.png
00000009,846,1,1445270429171,1445270429859,941,375,0,0,0,5,1,4,51,0001-00-0006-76.png,0004-00-0000-89.png
00000009,847,1,1445270430781,1445270431426,355,385,0,0,0,2,3,1,23,0002-00-0006-15.png,0003-00-0003-04.png
00000009,848,1,1445270432481,1445270433235,329,397,0,0,0,1,4,3,14,0004-00-0009-07.png,0005-00-0005-59.png
00000009,849,1,1445270434158,1445270435120,931,348,0,0,0,4,3,1,43,0005-00-0000-29.png,0003-00-0007-25.png
00000009,850,0,1445270436127,1445270436187,913,410,0,0,0,1,2,1,12,0004-00-0005-70.png,0002-00-0006-90.png
00000009,851,1,1445270446749,1445270447364,439,279,0,0,0,1,3,2,13,0004-00-0006-35.png,0003-00-0003-02.png
00000009,852,1,1445270448311,1445270449161,438,243,0,0,0,2,4,2,24,0002-00-0006-03.png,0005-00-0001-87.png
00000009,853,0,1445270450019,1445270450733,1021,315,0,0,0,1,5,4,15,0004-00-0001-43.png,0001-00-0002-52.png
00000009,854,1,1445270454018,1445270454537,1035,289,0,0,0,3,1,2,31,0003-00-0006-71.png,0004-00-0005-26.png
00000009,855,1,1445270455833,1445270456683,1005,291,0,0,0,5,4,1,54,0001-00-0001-09.png,0005-00-0008-10.png
00000009,856,1,1445270457525,1445270458266,434,259,0,0,0,2,5,3,25,0002-00-0000-33.png,0001-00-0007-16.png
00000009,857,0,1445270459243,1445270460486,1029,290,0,0,0,4,5,1,45,0005-00-0004-05.png,0001-00-0001-43.png
00000009,858,1,1445270464183,1445270464735,972,350,0,0,0,4,2,2,42,0005-00-0007-36.png,0002-00-0003-00.png
00000009,859,1,1445270465601,1445270466315,450,277,0,0,0,3,5,2,35,0003-00-0009-92.png,0001-00-0006-67.png
00000009,860,1,1445270467231,1445270467283,888,397,0,0,0,3,2,1,32,0003-00-0000-98.png,0002-00-0006-92.png
00000009,861,1,1445270468395,1445270469120,470,287,0,0,0,1,5,4,15,0004-00-0001-01.png,0001-00-0001-13.png
00000009,862,1,1445270470023,1445270470752,439,305,0,0,0,1,2,1,12,0004-00-0002-36.png,0002-00-0000-60.png
00000009,863,0,1445270471865,1445270471913,936,410,0,0,0,4,5,1,45,0005-00-0007-17.png,0001-00-0003-85.png
00000009,864,1,1445270474783,1445270475406,944,360,0,0,0,5,4,1,54,0001-00-0002-35.png,0005-00-0004-67.png
00000009,865,1,1445270476332,1445270477334,925,329,0,0,0,5,1,4,51,0001-00-0002-38.png,0004-00-0007-33.png
00000009,866,0,1445270478211,1445270478255,929,400,0,0,0,1,4,3,14,0004-00-0002-27.png,0005-00-0006-67.png
00000009,867,1,1445270481313,1445270481333,877,356,0,0,0,5,3,2,53,0001-00-0006-07.png,0003-00-0007-17.png
00000009,868,0,1445270482329,1445270483559,908,323,0,0,0,2,3,1,23,0002-00-0006-56.png,0003-00-0005-37.png
00000009,869,1,1445270486929,1445270487852,939,423,0,0,0,4,3,1,43,0005-00-0002-13.png,0003-00-0003-83.png
00000009,870,1,1445270488895,1445270488955,888,436,0,0,0,3,2,1,32,0003-00-0003-27.png,0002-00-0005-94.png
00000009,871,1,1445270489899,1445270489931,912,390,0,0,0,2,1,1,21,0002-00-0001-96.png,0004-00-0008-12.png
00000009,872,1,1445270491180,1445270491228,939,462,0,0,0,4,2,2,42,0005-00-0006-14.png,0002-00-0009-13.png
00000009,873,0,1445270492474,1445270492530,960,417,0,0,0,3,5,2,35,0003-00-0006-59.png,0001-00-0003-55.png
00000009,874,0,1445270495780,1445270496547,942,358,0,0,0,3,4,1,34,0003-00-0001-28.png,0005-00-0004-32.png
00000009,875,1,1445270499618,1445270500948,325,369,0,0,0,2,5,3,25,0002-00-0003-63.png,0001-00-0003-01.png
00000009,876,1,1445270501854,1445270503044,912,326,0,0,0,5,2,3,52,0001-00-0008-40.png,0002-00-0008-67.png
00000009,877,0,1445270503911,1445270503931,913,359,0,0,0,1,3,2,13,0004-00-0008-06.png,0003-00-0004-59.png
00000009,878,1,1445270507041,1445270507665,382,351,0,0,0,2,4,2,24,0002-00-0006-72.png,0005-00-0005-83.png
00000009,879,1,1445270508489,1445270509507,1049,298,0,0,0,4,1,3,41,0005-00-0007-05.png,0004-00-0003-70.png
00000009,880,1,1445270510480,1445270510556,922,456,0,0,0,3,1,2,31,0003-00-0001-16.png,0004-00-0002-56.png
00000009,881,0,1445270511613,1445270511637,879,462,0,0,0,3,4,1,34,0003-00-0004-51.png,0005-00-0009-41.png
00000009,882,1,1445270514857,1445270515393,453,292,0,0,0,2,4,2,24,0002-00-0004-10.png,0005-00-0001-48.png
00000009,883,0,1445270516313,1445270516357,888,451,0,0,0,3,5,2,35,0003-00-0006-61.png,0001-00-0003-63.png
00000009,884,0,1445270519937,1445270520451,968,394,0,0,0,4,5,1,45,0005-00-0002-64.png,0001-00-0002-70.png
00000009,885,0,1445270530933,1445270530967,884,354,0,0,0,1,4,3,14,0004-00-0005-88.png,0005-00-0004-43.png
00000009,886,1,1445270534000,1445270534551,960,394,0,0,0,5,2,3,52,0001-00-0000-63.png,0002-00-0001-58.png
00000009,887,1,1445270535975,1445270536622,470,240,0,0,0,2,3,1,23,0002-00-0002-60.png,0003-00-0005-25.png
00000009,888,1,1445270537543,1445270538579,923,328,0,0,0,4,3,1,43,0005-00-0005-30.png,0003-00-0007-68.png
00000009,889,1,1445270539450,1445270539589,916,485,0,0,0,3,2,1,32,0003-00-0003-56.png,0002-00-0009-71.png
00000009,890,1,1445270540625,1445270540641,865,460,0,0,0,4,1,3,41,0005-00-0003-96.png,0004-00-0005-40.png
00000009,891,0,1445270542424,1445270542448,862,393,0,0,0,1,3,2,13,0004-00-0002-00.png,0003-00-0006-95.png
00000009,892,1,1445270551237,1445270551787,967,323,0,0,0,2,1,1,21,0002-00-0008-36.png,0004-00-0003-20.png
00000009,893,1,1445270552767,1445270552846,904,443,0,0,0,4,2,2,42,0005-00-0009-61.png,0002-00-0008-80.png
00000009,894,1,1445270553872,1445270553900,900,424,0,0,0,5,4,1,54,0001-00-0001-35.png,0005-00-0003-15.png
00000009,895,0,1445270555073,1445270555121,939,436,0,0,0,2,5,3,25,0002-00-0004-30.png,0001-00-0003-25.png
00000009,896,1,1445270567013,1445270567616,463,290,0,0,0,1,2,1,12,0004-00-0006-96.png,0002-00-0000-90.png
00000009,897,1,1445270568664,1445270568732,872,408,0,0,0,5,1,4,51,0001-00-0000-52.png,0004-00-0000-84.png
00000009,898,1,1445270569766,1445270569786,861,393,0,0,0,5,3,2,53,0001-00-0003-02.png,0003-00-0004-54.png
00000009,899,0,1445270570998,1445270571030,878,410,0,0,0,1,5,4,15,0004-00-0001-88.png,0001-00-0009-51.png
00000009,900,1,1445270574020,1445270574547,965,415,0,0,0,3,1,2,31,0003-00-0001-71.png,0004-00-0003-88.png
00000009,901,0,1445270575858,1445270576336,995,563,0,0,0,2,4,2,24,0002-00-0005-79.png,0005-00-0002-38.png
00000009,902,0,1445270579646,1445270579917,931,325,0,0,0,4,5,1,45,0005-00-0001-29.png,0001-00-0002-08.png
00000009,903,1,1445270586551,1445270587054,945,350,0,0,0,3,1,2,31,0003-00-0008-23.png,0004-00-0006-87.png
00000009,904,0,1445270587961,1445270588021,862,462,0,0,0,3,5,2,35,0003-00-0003-74.png,0001-00-0009-90.png
00000009,905,0,1445270591190,1445270591699,453,281,0,0,0,5,4,1,54,0001-00-0009-45.png,0005-00-0006-31.png
00000009,906,1,1445270594747,1445270595263,1062,334,0,0,0,5,1,4,51,0001-00-0000-76.png,0004-00-0004-90.png
00000009,907,0,1445270603636,1445270604431,289,361,0,0,0,5,3,2,53,0001-00-0007-23.png,0003-00-0005-79.png
00000009,908,0,1445270607608,1445270607662,910,358,0,0,0,2,3,1,23,0002-00-0006-04.png,0003-00-0000-44.png
00000009,909,1,1445270613036,1445270613648,488,279,0,0,0,2,5,3,25,0002-00-0006-57.png,0001-00-0007-72.png
00000009,910,0,1445270614527,1445270615329,1052,279,0,0,0,1,4,3,14,0004-00-0004-49.png,0005-00-0000-10.png
00000009,911,1,1445270622388,1445270622932,964,398,0,0,0,5,2,3,52,0001-00-0006-08.png,0002-00-0009-18.png
00000009,912,0,1445270623980,1445270624064,898,410,0,0,0,1,5,4,15,0004-00-0005-43.png,0001-00-0009-13.png
00000009,913,1,1445270627170,1445270627870,468,280,0,0,0,1,2,1,12,0004-00-0008-11.png,0002-00-0009-52.png
00000009,914,1,1445270628738,1445270629395,1049,310,0,0,0,4,1,3,41,0005-00-0005-53.png,0004-00-0002-91.png
00000009,915,1,1445270630218,1445270630258,914,394,0,0,0,4,3,1,43,0005-00-0000-02.png,0003-00-0003-72.png
00000009,916,1,1445270631284,1445270632106,1028,310,0,0,0,3,2,1,32,0003-00-0008-87.png,0002-00-0008-89.png
00000009,917,1,1445270633101,1445270633145,925,444,0,0,0,2,1,1,21,0002-00-0005-26.png,0004-00-0005-02.png
00000009,918,1,1445270634264,1445270635007,427,266,0,0,0,1,3,2,13,0004-00-0003-00.png,0003-00-0008-51.png
00000009,919,0,1445270636003,1445270636091,927,462,0,0,0,3,4,1,34,0003-00-0004-44.png,0005-00-0000-76.png
00000009,920,1,1445270639275,1445270639860,936,351,0,0,0,4,2,2,42,0005-00-0007-21.png,0002-00-0006-18.png
00000009,921,1,1445270641140,1445270641751,1059,306,0,0,0,4,1,3,41,0005-00-0000-19.png,0004-00-0007-64.png
00000009,922,1,1445270642671,1445270642695,910,397,0,0,0,5,3,2,53,0001-00-0006-38.png,0003-00-0000-14.png
00000009,923,1,1445270643775,1445270643796,871,364,0,0,0,5,1,4,51,0001-00-0005-04.png,0004-00-0000-17.png
00000009,924,1,1445270644990,1445270645054,927,523,0,0,0,3,2,1,32,0003-00-0001-14.png,0002-00-0005-47.png
00000009,925,0,1445270646180,1445270646212,915,437,0,0,0,1,3,2,13,0004-00-0005-65.png,0003-00-0001-95.png
00000009,926,1,1445270649131,1445270649636,938,344,0,0,0,5,2,3,52,0001-00-0006-89.png,0002-00-0000-77.png
00000009,927,1,1445270650967,1445270651279,859,497,0,0,0,4,3,1,43,0005-00-0007-42.png,0003-00-0008-90.png
00000009,928,1,1445270652310,1445270653103,440,279,0,0,0,2,4,2,24,0002-00-0004-60.png,0005-00-0004-71.png
00000009,929,0,1445270654241,1445270654258,964,358,0,0,0,2,5,3,25,0002-00-0005-43.png,0001-00-0007-28.png
00000009,930,1,1445270657438,1445270658011,461,270,0,0,0,1,4,3,14,0004-00-0008-55.png,0005-00-0009-79.png
00000009,931,0,1445270658877,1445270658889,860,408,0,0,0,1,2,1,12,0004-00-0000-51.png,0002-00-0000-73.png
00000009,932,1,1445270662078,1445270662295,865,436,0,0,0,3,1,2,31,0003-00-0009-38.png,0004-00-0005-91.png
00000009,933,0,1445270663320,1445270663348,888,453,0,0,0,4,5,1,45,0005-00-0001-25.png,0001-00-0005-66.png
00000009,934,1,1445270675387,1445270675876,471,282,0,0,0,1,5,4,15,0004-00-0005-27.png,0001-00-0007-08.png
00000009,935,1,1445270676911,1445270677611,929,345,0,0,0,2,1,1,21,0002-00-0004-25.png,0004-00-0002-77.png
00000009,936,1,1445270678456,1445270678520,907,396,0,0,0,4,2,2,42,0005-00-0000-72.png,0002-00-0008-32.png
00000009,937,1,1445270679403,1445270680225,499,390,0,0,0,3,4,1,34,0003-00-0004-89.png,0005-00-0004-25.png
00000009,938,0,1445270681222,1445270681254,891,362,0,0,0,2,3,1,23,0002-00-0001-64.png,0003-00-0004-51.png
00000009,939,0,1445270684391,1445270684431,888,358,0,0,0,3,5,2,35,0003-00-0009-86.png,0001-00-0006-02.png
00000009,940,1,1445270692275,1445270692858,1105,336,0,0,0,5,4,1,54,0001-00-0009-41.png,0005-00-0003-35.png
00000009,941,0,1445270693822,1445270694530,923,361,0,0,0,1,2,1,12,0004-00-0005-98.png,0002-00-0004-37.png
