subject_id,trial,correct_response,stim_time,response_time,x_coord,y_coord,trial_timeout,timeout_time,interTrial_timeout,left_rank,right_rank,distance,joint_rank,left_image,right_image
00000009,1,1,1445009999079,1445009999609,1068,355,0,0,0,4,2,2,42,0005-00-0008-73.png,0002-00-0006-20.png
00000009,2,1,1445010001674,1445010002109,1039,276,0,0,0,4,1,3,41,0005-00-0007-32.png,0004-00-0000-41.png
00000009,3,1,1445010003055,1445010003658,1063,253,0,0,0,3,1,2,31,0003-00-0005-89.png,0004-00-0001-37.png
00000009,4,0,1445010004610,1445010005619,360,383,0,0,0,5,3,2,53,0001-00-0009-60.png,0003-00-0001-46.png
00000009,5,1,1445010008780,1445010009432,445,230,0,0,0,2,3,1,23,0002-00-0002-91.png,0003-00-0000-15.png
00000009,6,1,1445010010389,1445010011182,411,230,0,0,0,2,4,2,24,0002-00-0001-15.png,0005-00-0006-23.png
00000009,7,1,1445010012018,1445010012162,875,436,0,0,0,5,1,4,51,0001-00-0000-85.png,0004-00-0002-77.png
00000009,8,1,1445010013143,1445010013806,415,279,0,0,0,1,2,1,12,0004-00-0007-75.png,0002-00-0008-72.png
00000009,9,1,1445010014632,1445010015290,899,324,0,0,0,5,2,3,52,0001-00-0001-19.png,0002-00-0006-26.png
00000009,10,1,1445010016173,1445010016849,1033,247,0,0,0,3,2,1,32,0003-00-0004-84.png,0002-00-0007-77.png
00000009,11,0,1445010017750,1445010017801,867,397,0,0,0,2,5,3,25,0002-00-0004-65.png,0001-00-0006-51.png
00000009,12,1,1445010020835,1445010021644,936,397,0,0,0,5,4,1,54,0001-00-0004-35.png,0005-00-0007-32.png
00000009,13,0,1445010022505,1445010023445,336,365,0,0,0,4,3,1,43,0005-00-0003-37.png,0003-00-0008-02.png
00000009,14,0,1445010026579,1445010026800,1027,288,0,0,0,3,5,2,35,0003-00-0009-11.png,0001-00-0003-43.png
00000009,15,1,1445010029736,1445010030255,366,413,0,0,0,1,5,4,15,0004-00-0002-11.png,0001-00-0009-22.png
00000009,16,1,1445010031148,1445010031905,388,294,0,0,0,1,4,3,14,0004-00-0007-39.png,0005-00-0002-52.png
00000009,17,0,1445010032736,1445010033624,1022,273,0,0,0,3,4,1,34,0003-00-0004-49.png,0005-00-0009-23.png
00000009,18,1,1445010036756,1445010037237,949,324,0,0,0,2,1,1,21,0002-00-0001-51.png,0004-00-0008-47.png
00000009,19,1,1445010038099,1445010038798,411,251,0,0,0,1,3,2,13,0004-00-0008-67.png,0003-00-0006-35.png
00000009,20,1,1445010039654,1445010040595,364,363,0,0,0,4,5,1,45,0005-00-0001-66.png,0001-00-0006-01.png
00000009,21,1,1445010041504,1445010042112,1037,305,0,0,0,4,2,2,42,0005-00-0005-84.png,0002-00-0007-74.png
00000009,22,0,1445010043013,1445010043085,870,403,0,0,0,2,3,1,23,0002-00-0006-04.png,0003-00-0005-54.png
00000009,23,1,1445010046224,1445010046383,862,410,0,0,0,5,4,1,54,0001-00-0009-44.png,0005-00-0005-15.png
00000009,24,1,1445010047299,1445010048152,332,394,0,0,0,2,4,2,24,0002-00-0000-02.png,0005-00-0004-43.png
00000009,25,0,1445010049526,1445010050028,960,350,0,0,0,1,2,1,12,0004-00-0003-99.png,0002-00-0005-66.png
00000009,26,1,1445010053183,1445010053625,932,301,0,0,0,2,1,1,21,0002-00-0005-88.png,0004-00-0002-56.png
00000009,27,1,1445010054450,1445010054546,912,430,0,0,0,3,1,2,31,0003-00-0005-48.png,0004-00-0001-36.png
00000009,28,0,1445010055405,1445010056171,413,344,0,0,0,5,2,3,52,0001-00-0002-19.png,0002-00-0007-55.png
00000009,29,0,1445010059315,1445010059892,376,390,0,0,0,5,3,2,53,0001-00-0004-80.png,0003-00-0008-57.png
00000009,30,0,1445010062906,1445010063828,1067,306,0,0,0,3,5,2,35,0003-00-0004-92.png,0001-00-0008-81.png
00000009,31,1,1445010066754,1445010067220,962,320,0,0,0,4,1,3,41,0005-00-0004-13.png,0004-00-0006-57.png
00000009,32,0,1445010068087,1445010068155,900,384,0,0,0,2,5,3,25,0002-00-0005-07.png,0001-00-0001-88.png
00000009,33,1,1445010071286,1445010071740,939,323,0,0,0,3,2,1,32,0003-00-0000-68.png,0002-00-0006-26.png
00000009,34,1,1445010073096,1445010073738,379,379,0,0,0,1,5,4,15,0004-00-0004-96.png,0001-00-0006-33.png
00000009,35,0,1445010074585,1445010075302,1041,290,0,0,0,3,4,1,34,0003-00-0008-36.png,0005-00-0006-56.png
00000009,36,0,1445010078354,1445010078382,888,279,0,0,0,1,3,2,13,0004-00-0001-80.png,0003-00-0008-31.png
00000009,37,0,1445010081481,1445010081947,960,328,0,0,0,1,4,3,14,0004-00-0002-37.png,0005-00-0007-95.png
00000009,38,1,1445010085121,1445010085637,940,329,0,0,0,5,1,4,51,0001-00-0002-52.png,0004-00-0006-36.png
00000009,39,1,1445010086907,1445010087862,504,256,0,0,0,4,5,1,45,0005-00-0007-91.png,0001-00-0005-42.png
00000009,40,0,1445010088865,1445010089543,358,403,0,0,0,4,3,1,43,0005-00-0000-29.png,0003-00-0000-62.png
00000009,41,1,1445010092672,1445010093216,370,381,0,0,0,2,5,3,25,0002-00-0006-39.png,0001-00-0008-69.png
00000009,42,1,1445010094062,1445010094943,1032,279,0,0,0,4,3,1,43,0005-00-0007-74.png,0003-00-0005-26.png
00000009,43,0,1445010095871,1445010096876,913,399,0,0,0,2,4,2,24,0002-00-0005-02.png,0005-00-0008-99.png
00000009,44,1,1445010100027,1445010100708,360,362,0,0,0,1,4,3,14,0004-00-0001-00.png,0005-00-0003-68.png
00000009,45,1,1445010102033,1445010102732,944,347,0,0,0,4,1,3,41,0005-00-0004-24.png,0004-00-0004-32.png
00000009,46,0,1445010103549,1445010103613,864,386,0,0,0,3,4,1,34,0003-00-0006-32.png,0005-00-0000-14.png
00000009,47,0,1445010106516,1445010107130,381,383,0,0,0,5,2,3,52,0001-00-0001-30.png,0002-00-0009-24.png
00000009,48,1,1445010110272,1445010110384,888,436,0,0,0,5,4,1,54,0001-00-0007-46.png,0005-00-0002-50.png
00000009,49,1,1445010111304,1445010111999,942,343,0,0,0,3,2,1,32,0003-00-0000-46.png,0002-00-0001-07.png
00000009,50,0,1445010112878,1445010112942,893,426,0,0,0,1,2,1,12,0004-00-0000-70.png,0002-00-0003-00.png
00000009,51,1,1445010116179,1445010116810,499,247,0,0,0,1,5,4,15,0004-00-0006-90.png,0001-00-0003-02.png
00000009,52,0,1445010117663,1445010118324,919,345,0,0,0,2,3,1,23,0002-00-0009-16.png,0003-00-0007-30.png
00000009,53,0,1445010121445,1445010121961,940,331,0,0,0,3,5,2,35,0003-00-0001-07.png,0001-00-0002-94.png
00000009,54,1,1445010125111,1445010125594,944,334,0,0,0,3,1,2,31,0003-00-0007-18.png,0004-00-0008-17.png
00000009,55,1,1445010126939,1445010127528,944,319,0,0,0,2,1,1,21,0002-00-0005-59.png,0004-00-0006-49.png
00000009,56,0,1445010128379,1445010128415,862,359,0,0,0,4,5,1,45,0005-00-0006-90.png,0001-00-0006-99.png
00000009,57,1,1445010131530,1445010132040,374,405,0,0,0,1,3,2,13,0004-00-0009-14.png,0003-00-0000-00.png
00000009,58,1,1445010133331,1445010134521,917,337,0,0,0,5,3,2,53,0001-00-0007-01.png,0003-00-0006-58.png
00000009,59,1,1445010135490,1445010136177,928,383,0,0,0,5,1,4,51,0001-00-0007-55.png,0004-00-0007-36.png
00000009,60,1,1445010137097,1445010137153,860,396,0,0,0,4,2,2,42,0005-00-0008-00.png,0002-00-0002-72.png
00000009,61,0,1445010138288,1445010138385,891,445,0,0,0,1,2,1,12,0004-00-0001-59.png,0002-00-0007-08.png
00000009,62,0,1445010141488,1445010141978,993,317,0,0,0,4,5,1,45,0005-00-0008-35.png,0001-00-0008-53.png
00000009,63,0,1445010145067,1445010145237,870,355,0,0,0,3,4,1,34,0003-00-0003-45.png,0005-00-0007-15.png
00000009,64,1,1445010148316,1445010149298,494,269,0,0,0,2,3,1,23,0002-00-0008-99.png,0003-00-0006-62.png
00000009,65,1,1445010150151,1445010150723,968,324,0,0,0,4,2,2,42,0005-00-0008-63.png,0002-00-0005-23.png
00000009,66,1,1445010152122,1445010152239,892,408,0,0,0,5,4,1,54,0001-00-0001-13.png,0005-00-0005-48.png
00000009,67,0,1445010153202,1445010154250,358,365,0,0,0,4,3,1,43,0005-00-0005-60.png,0003-00-0001-03.png
00000009,68,1,1445010157159,1445010157781,433,270,0,0,0,2,5,3,25,0002-00-0007-00.png,0001-00-0000-55.png
00000009,69,1,1445010159069,1445010159704,918,377,0,0,0,3,1,2,31,0003-00-0000-65.png,0004-00-0006-10.png
00000009,70,0,1445010160555,1445010162082,405,244,0,0,0,5,3,2,53,0001-00-0003-59.png,0003-00-0000-90.png
00000009,71,1,1445010165169,1445010165335,888,436,0,0,0,5,2,3,52,0001-00-0003-87.png,0002-00-0001-10.png
00000009,72,1,1445010166294,1445010166870,917,348,0,0,0,4,1,3,41,0005-00-0003-75.png,0004-00-0007-18.png
00000009,73,0,1445010167733,1445010167793,868,420,0,0,0,3,5,2,35,0003-00-0002-59.png,0001-00-0007-64.png
00000009,74,1,1445010170884,1445010171502,462,279,0,0,0,1,5,4,15,0004-00-0000-86.png,0001-00-0005-55.png
00000009,75,1,1445010172322,1445010173041,344,395,0,0,0,1,4,3,14,0004-00-0006-84.png,0005-00-0001-01.png
00000009,76,1,1445010173983,1445010174828,473,240,0,0,0,2,4,2,24,0002-00-0006-07.png,0005-00-0006-85.png
00000009,77,1,1445010175820,1445010176636,913,342,0,0,0,3,2,1,32,0003-00-0004-71.png,0002-00-0007-87.png
00000009,78,1,1445010177642,1445010178383,1029,279,0,0,0,2,1,1,21,0002-00-0002-87.png,0004-00-0008-39.png
00000009,79,1,1445010179361,1445010179421,887,407,0,0,0,5,1,4,51,0001-00-0007-37.png,0004-00-0007-31.png
00000009,80,1,1445010180513,1445010181164,371,396,0,0,0,1,3,2,13,0004-00-0005-74.png,0003-00-0009-80.png
00000009,81,1,1445010182195,1445010182852,885,361,0,0,0,4,1,3,41,0005-00-0009-00.png,0004-00-0000-74.png
00000009,82,0,1445010183801,1445010184952,918,359,0,0,0,3,5,2,35,0003-00-0009-20.png,0001-00-0006-45.png
00000009,83,1,1445010187985,1445010189124,365,377,0,0,0,3,4,1,34,0003-00-0005-69.png,0005-00-0003-75.png
00000009,84,0,1445010190062,1445010191068,914,360,0,0,0,4,5,1,45,0005-00-0009-63.png,0001-00-0001-14.png
00000009,85,1,1445010194087,1445010194603,467,250,0,0,0,2,5,3,25,0002-00-0007-78.png,0001-00-0008-81.png
00000009,86,1,1445010196302,1445010196855,395,280,0,0,0,1,4,3,14,0004-00-0008-47.png,0005-00-0002-93.png
00000009,87,1,1445010197700,1445010198349,1050,288,0,0,0,5,2,3,52,0001-00-0005-89.png,0002-00-0000-90.png
00000009,88,1,1445010199201,1445010199241,864,409,0,0,0,5,1,4,51,0001-00-0002-14.png,0004-00-0005-65.png
00000009,89,0,1445010200309,1445010201107,464,248,0,0,0,5,3,2,53,0001-00-0008-39.png,0003-00-0001-12.png
00000009,90,1,1445010204252,1445010204736,964,333,0,0,0,3,2,1,32,0003-00-0004-65.png,0002-00-0008-52.png
00000009,91,1,1445010206122,1445010206795,432,284,0,0,0,1,5,4,15,0004-00-0006-09.png,0001-00-0004-82.png
00000009,92,1,1445010207628,1445010208362,363,380,0,0,0,1,2,1,12,0004-00-0006-09.png,0002-00-0008-84.png
00000009,93,0,1445010209411,1445010210142,375,387,0,0,0,5,4,1,54,0001-00-0000-26.png,0005-00-0008-79.png
00000009,94,1,1445010213733,1445010214673,974,358,0,0,0,4,3,1,43,0005-00-0008-44.png,0003-00-0002-44.png
00000009,95,0,1445010215591,1445010216304,357,401,0,0,0,2,1,1,21,0002-00-0001-04.png,0004-00-0000-78.png
00000009,96,1,1445010219487,1445010220090,325,427,0,0,0,2,4,2,24,0002-00-0008-74.png,0005-00-0004-48.png
00000009,97,1,1445010220956,1445010221622,489,252,0,0,0,1,3,2,13,0004-00-0006-30.png,0003-00-0006-88.png
00000009,98,1,1445010222578,1445010223598,916,347,0,0,0,4,2,2,42,0005-00-0004-57.png,0002-00-0007-17.png
00000009,99,1,1445010224534,1445010225254,369,367,0,0,0,2,3,1,23,0002-00-0008-45.png,0003-00-0008-37.png
00000009,100,1,1445010226205,1445010226899,918,325,0,0,0,3,1,2,31,0003-00-0005-18.png,0004-00-0009-01.png
00000009,101,1,1445010227804,1445010227840,868,414,0,0,0,4,1,3,41,0005-00-0004-88.png,0004-00-0008-82.png
00000009,102,1,1445010228967,1445010229835,1067,279,0,0,0,3,2,1,32,0003-00-0008-96.png,0002-00-0009-38.png
00000009,103,1,1445010230775,1445010231768,453,220,0,0,0,1,5,4,15,0004-00-0001-85.png,0001-00-0000-20.png
00000009,104,1,1445010232894,1445010233511,372,344,0,0,0,3,5,2,35,0003-00-0002-53.png,0001-00-0009-98.png
00000009,105,0,1445010234481,1445010235318,462,271,0,0,0,2,1,1,21,0002-00-0003-36.png,0004-00-0007-50.png
00000009,106,1,1445010238445,1445010239295,921,335,0,0,0,4,3,1,43,0005-00-0002-92.png,0003-00-0000-43.png
00000009,107,1,1445010240175,1445010241181,355,374,0,0,0,2,4,2,24,0002-00-0006-45.png,0005-00-0000-23.png
00000009,108,1,1445010242031,1445010242836,380,370,0,0,0,2,3,1,23,0002-00-0000-41.png,0003-00-0002-24.png
00000009,109,1,1445010243743,1445010244705,400,340,0,0,0,1,4,3,14,0004-00-0006-64.png,0005-00-0005-83.png
00000009,110,1,1445010245846,1445010246578,1016,270,0,0,0,5,4,1,54,0001-00-0003-75.png,0005-00-0008-84.png
00000009,111,1,1445010247729,1445010248737,896,353,0,0,0,3,1,2,31,0003-00-0000-31.png,0004-00-0004-41.png
00000009,112,1,1445010249696,1445010249732,882,429,0,0,0,5,1,4,51,0001-00-0004-43.png,0004-00-0006-22.png
00000009,113,0,1445010250895,1445010250973,862,421,0,0,0,4,5,1,45,0005-00-0005-59.png,0001-00-0003-85.png
00000009,114,1,1445010254114,1445010254764,464,256,0,0,0,2,5,3,25,0002-00-0003-87.png,0001-00-0009-05.png
00000009,115,1,1445010256105,1445010256720,463,271,0,0,0,1,2,1,12,0004-00-0007-13.png,0002-00-0000-96.png
00000009,116,1,1445010257556,1445010258472,931,332,0,0,0,4,2,2,42,0005-00-0000-94.png,0002-00-0000-41.png
00000009,117,0,1445010259354,1445010259449,897,430,0,0,0,3,4,1,34,0003-00-0002-95.png,0005-00-0001-81.png
00000009,118,0,1445010262486,1445010262640,884,364,0,0,0,1,3,2,13,0004-00-0004-31.png,0003-00-0009-36.png
00000009,119,0,1445010265764,1445010266487,394,403,0,0,0,5,3,2,53,0001-00-0009-54.png,0003-00-0009-98.png
00000009,120,1,1445010269677,1445010270187,914,358,0,0,0,5,2,3,52,0001-00-0003-38.png,0002-00-0001-75.png
00000009,121,1,1445010271056,1445010271735,468,229,0,0,0,1,5,4,15,0004-00-0006-59.png,0001-00-0006-55.png
00000009,122,0,1445010273109,1445010273958,911,368,0,0,0,3,4,1,34,0003-00-0008-38.png,0005-00-0007-95.png
00000009,123,0,1445010277081,1445010277544,498,248,0,0,0,2,1,1,21,0002-00-0006-39.png,0004-00-0007-69.png
00000009,124,0,1445010280660,1445010281323,425,322,0,0,0,5,4,1,54,0001-00-0004-25.png,0005-00-0003-67.png
00000009,125,0,1445010284466,1445010284550,942,277,0,0,0,1,3,2,13,0004-00-0004-20.png,0003-00-0002-86.png
00000009,126,0,1445010287665,1445010288174,943,319,0,0,0,4,5,1,45,0005-00-0008-75.png,0001-00-0005-10.png
00000009,127,1,1445010291323,1445010291816,966,296,0,0,0,3,1,2,31,0003-00-0008-88.png,0004-00-0009-47.png
00000009,128,1,1445010293171,1445010294041,1092,288,0,0,0,5,2,3,52,0001-00-0003-35.png,0002-00-0002-84.png
00000009,129,0,1445010294931,1445010294975,872,384,0,0,0,2,4,2,24,0002-00-0009-15.png,0005-00-0000-90.png
00000009,130,0,1445010298241,1445010298737,935,309,0,0,0,1,2,1,12,0004-00-0009-40.png,0002-00-0005-19.png
00000009,131,1,1445010301769,1445010302284,1052,290,0,0,0,5,1,4,51,0001-00-0000-35.png,0004-00-0005-63.png
00000009,132,1,1445010303557,1445010304958,930,334,0,0,0,4,3,1,43,0005-00-0006-61.png,0003-00-0009-83.png
00000009,133,1,1445010305895,1445010306766,1025,279,0,0,0,4,1,3,41,0005-00-0009-15.png,0004-00-0009-86.png
00000009,134,1,1445010307641,1445010307756,913,436,0,0,0,5,3,2,53,0001-00-0005-95.png,0003-00-0001-43.png
00000009,135,0,1445010308875,1445010308955,862,410,0,0,0,3,5,2,35,0003-00-0000-37.png,0001-00-0004-55.png
00000009,136,1,1445010311867,1445010312438,496,285,0,0,0,2,5,3,25,0002-00-0008-40.png,0001-00-0001-45.png
00000009,137,1,1445010313260,1445010313852,918,354,0,0,0,4,2,2,42,0005-00-0006-23.png,0002-00-0000-96.png
00000009,138,1,1445010315225,1445010315865,342,376,0,0,0,2,3,1,23,0002-00-0004-33.png,0003-00-0001-33.png
00000009,139,1,1445010316992,1445010317707,346,399,0,0,0,1,4,3,14,0004-00-0008-49.png,0005-00-0006-49.png
00000009,140,1,1445010319001,1445010319112,882,444,0,0,0,3,2,1,32,0003-00-0001-03.png,0002-00-0000-86.png
00000009,141,0,1445010320124,1445010320787,916,328,0,0,0,1,2,1,12,0004-00-0000-45.png,0002-00-0004-47.png
00000009,142,1,1445010323917,1445010323973,893,306,0,0,0,2,1,1,21,0002-00-0009-31.png,0004-00-0009-97.png
00000009,143,1,1445010324921,1445010325529,489,238,0,0,0,2,3,1,23,0002-00-0008-99.png,0003-00-0004-96.png
00000009,144,1,1445010326380,1445010327095,918,327,0,0,0,5,2,3,52,0001-00-0000-67.png,0002-00-0006-59.png
00000009,145,0,1445010328001,1445010328037,888,410,0,0,0,3,5,2,35,0003-00-0001-63.png,0001-00-0007-69.png
00000009,146,1,1445010331390,1445010331963,453,251,0,0,0,1,5,4,15,0004-00-0007-06.png,0001-00-0002-63.png
00000009,147,1,1445010333290,1445010333851,483,252,0,0,0,2,5,3,25,0002-00-0002-48.png,0001-00-0004-20.png
00000009,148,0,1445010334689,1445010335414,434,270,0,0,0,5,3,2,53,0001-00-0002-96.png,0003-00-0000-80.png
00000009,149,1,1445010338457,1445010339052,378,421,0,0,0,1,4,3,14,0004-00-0007-35.png,0005-00-0004-01.png
00000009,150,1,1445010340355,1445010341075,950,353,0,0,0,4,1,3,41,0005-00-0000-63.png,0004-00-0000-14.png
00000009,151,1,1445010341911,1445010341983,873,421,0,0,0,4,2,2,42,0005-00-0001-58.png,0002-00-0007-45.png
00000009,152,1,1445010343087,1445010343155,888,420,0,0,0,3,1,2,31,0003-00-0002-63.png,0004-00-0001-06.png
00000009,153,1,1445010344321,1445010344357,894,427,0,0,0,3,2,1,32,0003-00-0003-20.png,0002-00-0005-40.png
00000009,154,1,1445010345573,1445010345577,870,426,0,0,0,5,1,4,51,0001-00-0005-43.png,0004-00-0004-42.png
00000009,155,0,1445010346655,1445010347401,430,301,0,0,0,4,3,1,43,0005-00-0004-45.png,0003-00-0004-90.png
00000009,156,0,1445010350738,1445010350766,917,321,0,0,0,4,5,1,45,0005-00-0009-02.png,0001-00-0001-12.png
00000009,157,1,1445010353639,1445010354187,929,363,0,0,0,5,4,1,54,0001-00-0008-65.png,0005-00-0004-25.png
00000009,158,0,1445010355060,1445010355705,947,333,0,0,0,3,4,1,34,0003-00-0007-87.png,0005-00-0008-03.png
00000009,159,1,1445010358849,1445010359395,443,283,0,0,0,1,3,2,13,0004-00-0006-38.png,0003-00-0004-35.png
00000009,160,1,1445010360717,1445010361558,447,260,0,0,0,2,4,2,24,0002-00-0000-10.png,0005-00-0007-37.png
00000009,161,1,1445010362423,1445010363077,433,250,0,0,0,2,3,1,23,0002-00-0006-13.png,0003-00-0000-20.png
00000009,162,1,1445010364108,1445010364819,908,375,0,0,0,5,2,3,52,0001-00-0009-24.png,0002-00-0005-90.png
00000009,163,1,1445010365693,1445010366523,447,339,0,0,0,2,4,2,24,0002-00-0007-06.png,0005-00-0008-69.png
00000009,164,1,1445010367668,1445010368463,957,352,0,0,0,5,3,2,53,0001-00-0004-51.png,0003-00-0003-83.png
00000009,165,0,1445010369542,1445010369598,867,442,0,0,0,1,5,4,15,0004-00-0005-30.png,0001-00-0000-10.png
00000009,166,0,1445010372584,1445010373107,922,332,0,0,0,1,2,1,12,0004-00-0002-20.png,0002-00-0002-47.png
00000009,167,1,1445010376170,1445010376381,878,436,0,0,0,4,1,3,41,0005-00-0009-42.png,0004-00-0001-56.png
00000009,168,0,1445010377332,1445010378463,367,373,0,0,0,5,4,1,54,0001-00-0005-68.png,0005-00-0005-37.png
00000009,169,1,1445010381586,1445010382076,944,345,0,0,0,4,2,2,42,0005-00-0000-88.png,0002-00-0004-02.png
00000009,170,0,1445010383374,1445010384041,456,249,0,0,0,4,3,1,43,0005-00-0003-22.png,0003-00-0009-34.png
00000009,171,1,1445010387525,1445010388053,1065,318,0,0,0,5,1,4,51,0001-00-0004-42.png,0004-00-0000-57.png
00000009,172,1,1445010388919,1445010389595,435,269,0,0,0,2,5,3,25,0002-00-0008-13.png,0001-00-0005-53.png
00000009,173,1,1445010390483,1445010391206,462,244,0,0,0,4,5,1,45,0005-00-0008-87.png,0001-00-0004-79.png
00000009,174,0,1445010392198,1445010393266,915,347,0,0,0,3,5,2,35,0003-00-0006-38.png,0001-00-0008-00.png
00000009,175,0,1445010396332,1445010396400,963,335,0,0,0,3,4,1,34,0003-00-0003-26.png,0005-00-0000-28.png
00000009,176,1,1445010399523,1445010400059,470,268,0,0,0,1,4,3,14,0004-00-0002-33.png,0005-00-0002-10.png
00000009,177,1,1445010401321,1445010401998,1067,306,0,0,0,2,1,1,21,0002-00-0004-02.png,0004-00-0004-69.png
00000009,178,1,1445010403257,1445010403932,912,370,0,0,0,3,1,2,31,0003-00-0004-90.png,0004-00-0008-77.png
00000009,179,1,1445010404819,1445010404903,888,419,0,0,0,3,2,1,32,0003-00-0007-19.png,0002-00-0001-96.png
00000009,180,0,1445010406053,1445010406137,913,434,0,0,0,1,3,2,13,0004-00-0000-91.png,0003-00-0003-58.png
00000009,181,0,1445010409280,1445010409705,959,304,0,0,0,3,5,2,35,0003-00-0006-63.png,0001-00-0000-17.png
00000009,182,1,1445010412820,1445010413287,944,325,0,0,0,5,2,3,52,0001-00-0002-46.png,0002-00-0000-63.png
00000009,183,1,1445010414568,1445010415206,450,266,0,0,0,1,3,2,13,0004-00-0001-32.png,0003-00-0005-01.png
00000009,184,1,1445010416033,1445010416721,1058,299,0,0,0,4,1,3,41,0005-00-0005-44.png,0004-00-0007-27.png
00000009,185,0,1445010417673,1445010417749,884,414,0,0,0,1,4,3,14,0004-00-0007-33.png,0005-00-0002-80.png
00000009,186,1,1445010420598,1445010420638,858,362,0,0,0,5,1,4,51,0001-00-0007-84.png,0004-00-0006-26.png
00000009,187,1,1445010421644,1445010421755,857,430,0,0,0,2,1,1,21,0002-00-0009-25.png,0004-00-0003-04.png
00000009,188,0,1445010422719,1445010422824,862,449,0,0,0,2,5,3,25,0002-00-0009-38.png,0001-00-0008-48.png
00000009,189,0,1445010425893,1445010426158,1009,302,0,0,0,1,5,4,15,0004-00-0006-53.png,0001-00-0005-24.png
00000009,190,0,1445010429264,1445010429303,939,332,0,0,0,3,4,1,34,0003-00-0004-65.png,0005-00-0008-90.png
00000009,191,0,1445010432194,1445010432875,940,351,0,0,0,4,5,1,45,0005-00-0002-30.png,0001-00-0009-29.png
00000009,192,1,1445010435783,1445010436693,1028,288,0,0,0,4,3,1,43,0005-00-0008-74.png,0003-00-0003-46.png
00000009,193,1,1445010437563,1445010437643,888,462,0,0,0,5,3,2,53,0001-00-0008-40.png,0003-00-0005-06.png
00000009,194,1,1445010438716,1445010438821,878,410,0,0,0,5,4,1,54,0001-00-0008-38.png,0005-00-0009-76.png
00000009,195,0,1445010439699,1445010439775,872,436,0,0,0,2,3,1,23,0002-00-0003-08.png,0003-00-0005-84.png
00000009,196,1,1445010442777,1445010443040,920,342,0,0,0,3,1,2,31,0003-00-0005-28.png,0004-00-0006-94.png
00000009,197,1,1445010443880,1445010443983,888,462,0,0,0,3,2,1,32,0003-00-0002-37.png,0002-00-0005-11.png
00000009,198,1,1445010444936,1445010445673,933,353,0,0,0,4,2,2,42,0005-00-0002-54.png,0002-00-0007-64.png
00000009,199,1,1445010447054,1445010447705,498,235,0,0,0,2,4,2,24,0002-00-0009-11.png,0005-00-0001-29.png
00000009,200,0,1445010448665,1445010449337,927,375,0,0,0,1,2,1,12,0004-00-0005-52.png,0002-00-0007-43.png
00000009,201,1,1445010452349,1445010452801,490,278,0,0,0,1,4,3,14,0004-00-0001-56.png,0005-00-0006-40.png
00000009,202,1,1445010454089,1445010454753,1041,279,0,0,0,5,1,4,51,0001-00-0005-15.png,0004-00-0006-48.png
00000009,203,1,1445010455598,1445010455630,862,384,0,0,0,5,2,3,52,0001-00-0002-45.png,0002-00-0009-45.png
00000009,204,1,1445010456761,1445010456868,899,449,0,0,0,4,1,3,41,0005-00-0005-57.png,0004-00-0006-36.png
00000009,205,0,1445010458114,1445010458183,907,490,0,0,0,2,4,2,24,0002-00-0002-57.png,0005-00-0003-71.png
00000009,206,0,1445010461221,1445010461672,939,320,0,0,0,3,4,1,34,0003-00-0008-38.png,0005-00-0007-68.png
00000009,207,0,1445010473993,1445010474005,913,287,0,0,0,3,5,2,35,0003-00-0002-02.png,0001-00-0005-28.png
00000009,208,1,1445010477127,1445010477624,918,338,0,0,0,5,4,1,54,0001-00-0000-47.png,0005-00-0003-94.png
00000009,209,1,1445010478474,1445010479238,341,392,0,0,0,1,2,1,12,0004-00-0009-55.png,0002-00-0007-74.png
00000009,210,0,1445010480585,1445010481187,1057,306,0,0,0,4,5,1,45,0005-00-0002-24.png,0001-00-0006-96.png
00000009,211,1,1445010484341,1445010484878,1059,288,0,0,0,2,1,1,21,0002-00-0002-66.png,0004-00-0002-48.png
00000009,212,1,1445010486178,1445010486865,391,339,0,0,0,1,3,2,13,0004-00-0009-62.png,0003-00-0003-90.png
00000009,213,1,1445010487998,1445010488156,888,436,0,0,0,3,1,2,31,0003-00-0007-21.png,0004-00-0004-46.png
00000009,214,0,1445010489294,1445010489371,891,405,0,0,0,2,3,1,23,0002-00-0003-50.png,0003-00-0001-12.png
00000009,215,1,1445010492268,1445010492814,932,315,0,0,0,4,2,2,42,0005-00-0007-41.png,0002-00-0006-33.png
00000009,216,1,1445010494129,1445010494757,381,396,0,0,0,2,5,3,25,0002-00-0004-44.png,0001-00-0005-89.png
00000009,217,0,1445010495656,1445010496358,406,313,0,0,0,4,3,1,43,0005-00-0001-57.png,0003-00-0007-69.png
00000009,218,0,1445010499497,1445010500109,429,307,0,0,0,5,3,2,53,0001-00-0006-02.png,0003-00-0001-45.png
00000009,219,1,1445010503289,1445010503738,1040,277,0,0,0,3,2,1,32,0003-00-0007-43.png,0002-00-0002-49.png
00000009,220,1,1445010505029,1445010505798,465,247,0,0,0,1,5,4,15,0004-00-0002-45.png,0001-00-0006-04.png
00000009,221,1,1445010507138,1445010507801,431,311,0,0,0,1,3,2,13,0004-00-0009-12.png,0003-00-0003-43.png
00000009,222,1,1445010508935,1445010509752,396,316,0,0,0,2,5,3,25,0002-00-0005-41.png,0001-00-0008-35.png
00000009,223,0,1445010510963,1445010511944,1041,298,0,0,0,1,5,4,15,0004-00-0005-74.png,0001-00-0001-76.png
00000009,224,1,1445010515165,1445010516014,1048,323,0,0,0,5,2,3,52,0001-00-0006-10.png,0002-00-0009-68.png
00000009,225,1,1445010517014,1445010517054,868,481,0,0,0,3,2,1,32,0003-00-0005-87.png,0002-00-0004-63.png
00000009,226,0,1445010518057,1445010518118,871,436,0,0,0,2,3,1,23,0002-00-0009-37.png,0003-00-0009-17.png
00000009,227,1,1445010521229,1445010522050,381,268,0,0,0,3,5,2,35,0003-00-0006-71.png,0001-00-0000-52.png
00000009,228,1,1445010522882,1445010523623,449,258,0,0,0,2,4,2,24,0002-00-0002-98.png,0005-00-0008-96.png
00000009,229,1,1445010524579,1445010525271,440,334,0,0,0,1,4,3,14,0004-00-0007-74.png,0005-00-0006-49.png
00000009,230,0,1445010526433,1445010526489,865,424,0,0,0,4,5,1,45,0005-00-0005-37.png,0001-00-0002-21.png
00000009,231,0,1445010529335,1445010529864,374,343,0,0,0,4,3,1,43,0005-00-0006-77.png,0003-00-0006-92.png
00000009,232,1,1445010532703,1445010532991,930,368,0,0,0,5,1,4,51,0001-00-0007-69.png,0004-00-0007-89.png
00000009,233,1,1445010533918,1445010533994,879,462,0,0,0,4,1,3,41,0005-00-0008-78.png,0004-00-0001-91.png
00000009,234,0,1445010534918,1445010534958,862,436,0,0,0,1,2,1,12,0004-00-0008-23.png,0002-00-0009-08.png
00000009,235,0,1445010537942,1445010538475,1051,312,0,0,0,3,4,1,34,0003-00-0001-95.png,0005-00-0007-94.png
00000009,236,1,1445010541610,1445010542120,1058,279,0,0,0,3,1,2,31,0003-00-0000-84.png,0004-00-0008-68.png
00000009,237,1,1445010543385,1445010544325,939,320,0,0,0,5,4,1,54,0001-00-0001-21.png,0005-00-0005-34.png
00000009,238,1,1445010545237,1445010545286,894,429,0,0,0,5,3,2,53,0001-00-0008-10.png,0003-00-0007-55.png
00000009,239,1,1445010546441,1445010546509,888,410,0,0,0,2,1,1,21,0002-00-0005-39.png,0004-00-0001-01.png
00000009,240,1,1445010547788,1445010547860,888,447,0,0,0,4,2,2,42,0005-00-0008-01.png,0002-00-0003-22.png
00000009,241,1,1445010548892,1445010548952,862,436,0,0,0,5,1,4,51,0001-00-0000-16.png,0004-00-0005-00.png
00000009,242,1,1445010550079,1445010550125,899,462,0,0,0,4,1,3,41,0005-00-0004-41.png,0004-00-0003-35.png
00000009,243,1,1445010551409,1445010551485,882,477,0,0,0,5,4,1,54,0001-00-0009-28.png,0005-00-0009-78.png
00000009,244,1,1445010552780,1445010552848,884,463,0,0,0,5,2,3,52,0001-00-0000-44.png,0002-00-0003-23.png
00000009,245,1,1445010554131,1445010554191,877,471,0,0,0,4,2,2,42,0005-00-0007-00.png,0002-00-0009-81.png
00000009,246,0,1445010555449,1445010555505,873,490,0,0,0,1,5,4,15,0004-00-0003-49.png,0001-00-0004-67.png
00000009,247,1,1445010558404,1445010559040,373,391,0,0,0,2,5,3,25,0002-00-0001-83.png,0001-00-0005-60.png
00000009,248,0,1445010560620,1445010560628,887,270,0,0,0,4,5,1,45,0005-00-0009-05.png,0001-00-0008-87.png
00000009,249,0,1445010563731,1445010564378,371,414,0,0,0,3,1,2,31,0003-00-0006-00.png,0004-00-0003-92.png
00000009,250,1,1445010567232,1445010567799,454,268,0,0,0,1,2,1,12,0004-00-0008-59.png,0002-00-0007-12.png
00000009,251,0,1445010569085,1445010569113,862,358,0,0,0,2,3,1,23,0002-00-0000-29.png,0003-00-0009-58.png
00000009,252,1,1445010572247,1445010573398,449,263,0,0,0,3,5,2,35,0003-00-0008-66.png,0001-00-0005-28.png
00000009,253,1,1445010574780,1445010575384,479,258,0,0,0,1,3,2,13,0004-00-0003-24.png,0003-00-0001-92.png
00000009,254,1,1445010576248,1445010577155,1028,291,0,0,0,5,3,2,53,0001-00-0000-70.png,0003-00-0002-09.png
00000009,255,0,1445010578098,1445010578893,467,337,0,0,0,2,1,1,21,0002-00-0003-63.png,0004-00-0005-21.png
00000009,256,0,1445010582021,1445010582669,431,324,0,0,0,4,3,1,43,0005-00-0001-91.png,0003-00-0006-21.png
00000009,257,1,1445010585772,1445010586376,350,415,0,0,0,2,4,2,24,0002-00-0006-56.png,0005-00-0007-51.png
00000009,258,1,1445010587249,1445010587885,472,254,0,0,0,3,4,1,34,0003-00-0006-72.png,0005-00-0005-88.png
00000009,259,1,1445010588769,1445010589873,444,247,0,0,0,1,4,3,14,0004-00-0008-51.png,0005-00-0009-92.png
00000009,260,1,1445010591255,1445010591680,962,528,0,0,0,3,2,1,32,0003-00-0007-96.png,0002-00-0004-02.png
00000009,261,0,1445010592617,1445010592653,862,397,0,0,0,3,4,1,34,0003-00-0006-14.png,0005-00-0002-41.png
00000009,262,1,1445010595797,1445010595915,926,279,0,0,0,5,2,3,52,0001-00-0002-48.png,0002-00-0009-74.png
00000009,263,1,1445010597258,1445010597956,913,372,0,0,0,3,2,1,32,0003-00-0006-84.png,0002-00-0005-87.png
00000009,264,1,1445010598805,1445010598873,892,408,0,0,0,4,3,1,43,0005-00-0004-58.png,0003-00-0006-16.png
00000009,265,1,1445010599910,1445010599998,861,425,0,0,0,5,4,1,54,0001-00-0000-31.png,0005-00-0008-73.png
00000009,266,1,1445010601143,1445010601207,888,436,0,0,0,5,3,2,53,0001-00-0000-70.png,0003-00-0006-76.png
00000009,267,0,1445010602417,1445010602501,862,448,0,0,0,1,4,3,14,0004-00-0009-95.png,0005-00-0007-33.png
00000009,268,1,1445010605596,1445010606089,935,339,0,0,0,2,1,1,21,0002-00-0008-68.png,0004-00-0000-03.png
00000009,269,1,1445010607332,1445010607994,491,255,0,0,0,4,5,1,45,0005-00-0005-17.png,0001-00-0002-49.png
00000009,270,1,1445010609439,1445010610171,457,296,0,0,0,1,5,4,15,0004-00-0003-11.png,0001-00-0000-53.png
00000009,271,1,1445010611338,1445010611371,862,419,0,0,0,4,2,2,42,0005-00-0009-76.png,0002-00-0001-94.png
00000009,272,0,1445010612490,1445010612558,900,436,0,0,0,2,5,3,25,0002-00-0006-84.png,0001-00-0003-65.png
00000009,273,1,1445010615689,1445010615725,938,296,0,0,0,5,1,4,51,0001-00-0009-70.png,0004-00-0002-32.png
00000009,274,1,1445010616593,1445010617175,462,265,0,0,0,2,3,1,23,0002-00-0008-55.png,0003-00-0004-09.png
00000009,275,0,1445010618640,1445010619233,896,353,0,0,0,3,5,2,35,0003-00-0000-55.png,0001-00-0001-44.png
00000009,276,1,1445010622348,1445010622879,485,252,0,0,0,1,2,1,12,0004-00-0003-50.png,0002-00-0009-05.png
00000009,277,1,1445010624135,1445010624848,1049,274,0,0,0,3,1,2,31,0003-00-0003-11.png,0004-00-0009-21.png
00000009,278,0,1445010626174,1445010626583,1016,541,0,0,0,1,3,2,13,0004-00-0001-15.png,0003-00-0005-64.png
00000009,279,1,1445010629491,1445010630008,1041,279,0,0,0,4,1,3,41,0005-00-0008-86.png,0004-00-0007-03.png
00000009,280,1,1445010631230,1445010631834,472,255,0,0,0,2,4,2,24,0002-00-0002-01.png,0005-00-0004-40.png
00000009,281,0,1445010632720,1445010634161,392,376,0,0,0,5,4,1,54,0001-00-0002-54.png,0005-00-0009-00.png
00000009,282,1,1445010637321,1445010637798,469,262,0,0,0,1,3,2,13,0004-00-0004-32.png,0003-00-0006-86.png
00000009,283,1,1445010639082,1445010639723,426,301,0,0,0,2,5,3,25,0002-00-0000-44.png,0001-00-0006-00.png
00000009,284,0,1445010640548,1445010641397,1036,337,0,0,0,3,5,2,35,0003-00-0005-57.png,0001-00-0004-46.png
00000009,285,0,1445010644377,1445010645210,961,426,0,0,0,3,4,1,34,0003-00-0008-18.png,0005-00-0003-38.png
00000009,286,1,1445010648428,1445010648947,906,350,0,0,0,4,1,3,41,0005-00-0008-73.png,0004-00-0005-61.png
00000009,287,1,1445010650241,1445010651321,1047,310,0,0,0,5,3,2,53,0001-00-0002-53.png,0003-00-0007-56.png
00000009,288,0,1445010652207,1445010652267,865,389,0,0,0,1,5,4,15,0004-00-0002-30.png,0001-00-0001-17.png
00000009,289,0,1445010655378,1445010656218,930,443,0,0,0,4,5,1,45,0005-00-0005-37.png,0001-00-0004-45.png
00000009,290,0,1445010659184,1445010660033,368,374,0,0,0,4,2,2,42,0005-00-0001-07.png,0002-00-0008-50.png
00000009,291,1,1445010663169,1445010663841,362,417,0,0,0,1,2,1,12,0004-00-0006-67.png,0002-00-0001-66.png
00000009,292,1,1445010665077,1445010665797,408,367,0,0,0,2,4,2,24,0002-00-0001-82.png,0005-00-0006-90.png
00000009,293,1,1445010667214,1445010667830,921,359,0,0,0,3,1,2,31,0003-00-0001-65.png,0004-00-0004-32.png
00000009,294,1,1445010668814,1445010668882,893,403,0,0,0,4,3,1,43,0005-00-0004-96.png,0003-00-0006-70.png
00000009,295,0,1445010669987,1445010670035,879,404,0,0,0,1,4,3,14,0004-00-0007-59.png,0005-00-0009-62.png
00000009,296,1,1445010673164,1445010673204,907,326,0,0,0,3,2,1,32,0003-00-0004-34.png,0002-00-0002-00.png
00000009,297,1,1445010674099,1445010674865,916,348,0,0,0,2,1,1,21,0002-00-0008-40.png,0004-00-0009-31.png
00000009,298,0,1445010675728,1445010675788,893,446,0,0,0,2,3,1,23,0002-00-0000-43.png,0003-00-0005-00.png
00000009,299,0,1445010678800,1445010679282,484,269,0,0,0,5,2,3,52,0001-00-0007-14.png,0002-00-0008-72.png
00000009,300,1,1445010682378,1445010683162,916,351,0,0,0,5,1,4,51,0001-00-0009-12.png,0004-00-0003-67.png
00000009,301,1,1445010683974,1445010684620,918,351,0,0,0,5,1,4,51,0001-00-0008-12.png,0004-00-0003-68.png
00000009,302,0,1445010685463,1445010685515,888,423,0,0,0,1,3,2,13,0004-00-0009-33.png,0003-00-0007-52.png
00000009,303,0,1445010688359,1445010689027,915,385,0,0,0,1,2,1,12,0004-00-0001-75.png,0002-00-0000-11.png
00000009,304,1,1445010692086,1445010692858,484,264,0,0,0,3,4,1,34,0003-00-0008-33.png,0005-00-0004-77.png
00000009,305,0,1445010693746,1445010694412,474,226,0,0,0,4,3,1,43,0005-00-0003-30.png,0003-00-0003-76.png
00000009,306,1,1445010697284,1445010697817,363,367,0,0,0,1,5,4,15,0004-00-0006-40.png,0001-00-0002-35.png
00000009,307,1,1445010699093,1445010699671,483,251,0,0,0,1,4,3,14,0004-00-0007-42.png,0005-00-0009-92.png
00000009,308,1,1445010700551,1445010701456,1169,384,0,0,0,3,2,1,32,0003-00-0006-57.png,0002-00-0005-91.png
00000009,309,1,1445010702363,1445010702411,871,410,0,0,0,2,1,1,21,0002-00-0007-24.png,0004-00-0008-11.png
00000009,310,0,1445010703585,1445010703691,913,454,0,0,0,4,5,1,45,0005-00-0009-44.png,0001-00-0007-01.png
00000009,311,1,1445010706783,1445010706919,880,431,0,0,0,4,2,2,42,0005-00-0002-42.png,0002-00-0004-01.png
00000009,312,0,1445010707827,1445010708496,485,241,0,0,0,3,1,2,31,0003-00-0001-66.png,0004-00-0002-62.png
00000009,313,1,1445010711595,1445010712504,1041,289,0,0,0,4,1,3,41,0005-00-0001-59.png,0004-00-0000-17.png
00000009,314,0,1445010713828,1445010714686,1038,336,0,0,0,3,5,2,35,0003-00-0005-29.png,0001-00-0000-34.png
00000009,315,1,1445010717637,1445010718076,437,276,0,0,0,2,5,3,25,0002-00-0008-55.png,0001-00-0004-69.png
00000009,316,1,1445010719395,1445010720151,480,265,0,0,0,2,3,1,23,0002-00-0006-99.png,0003-00-0009-46.png
00000009,317,1,1445010721411,1445010721471,862,384,0,0,0,5,4,1,54,0001-00-0008-26.png,0005-00-0001-13.png
00000009,318,0,1445010722474,1445010723377,398,331,0,0,0,5,3,2,53,0001-00-0008-52.png,0003-00-0009-56.png
00000009,319,1,1445010726508,1445010726946,917,345,0,0,0,5,2,3,52,0001-00-0008-77.png,0002-00-0006-99.png
00000009,320,1,1445010728197,1445010728774,517,248,0,0,0,2,4,2,24,0002-00-0004-16.png,0005-00-0003-38.png
00000009,321,0,1445010729726,1445010729758,859,399,0,0,0,3,5,2,35,0003-00-0002-72.png,0001-00-0003-16.png
00000009,322,1,1445010732849,1445010733299,1072,275,0,0,0,4,1,3,41,0005-00-0005-93.png,0004-00-0004-32.png
00000009,323,0,1445010734488,1445010735122,397,359,0,0,0,5,3,2,53,0001-00-0003-18.png,0003-00-0008-90.png
00000009,324,1,1445010738193,1445010738446,1051,326,0,0,0,3,1,2,31,0003-00-0000-96.png,0004-00-0006-52.png
00000009,325,1,1445010739294,1445010739374,899,459,0,0,0,5,4,1,54,0001-00-0002-09.png,0005-00-0000-03.png
00000009,326,0,1445010740570,1445010740657,904,410,0,0,0,1,3,2,13,0004-00-0005-46.png,0003-00-0003-67.png
00000009,327,0,1445010743788,1445010743828,906,369,0,0,0,1,4,3,14,0004-00-0006-97.png,0005-00-0003-61.png
00000009,328,0,1445010746863,1445010747444,520,295,0,0,0,2,1,1,21,0002-00-0004-80.png,0004-00-0005-73.png
00000009,329,1,1445010750328,1445010751034,452,318,0,0,0,2,5,3,25,0002-00-0006-16.png,0001-00-0006-78.png
00000009,330,1,1445010752327,1445010753270,1050,307,0,0,0,4,2,2,42,0005-00-0004-25.png,0002-00-0005-09.png
00000009,331,1,1445010754700,1445010754957,888,436,0,0,0,5,2,3,52,0001-00-0005-28.png,0002-00-0007-69.png
00000009,332,0,1445010755965,1445010756009,888,410,0,0,0,2,3,1,23,0002-00-0001-24.png,0003-00-0001-86.png
00000009,333,1,1445010759131,1445010760086,452,288,0,0,0,1,2,1,12,0004-00-0003-09.png,0002-00-0005-05.png
00000009,334,1,1445010761380,1445010762042,448,268,0,0,0,2,4,2,24,0002-00-0001-14.png,0005-00-0009-33.png
00000009,335,1,1445010762916,1445010763959,913,351,0,0,0,5,1,4,51,0001-00-0006-26.png,0004-00-0005-84.png
00000009,336,1,1445010764867,1445010764907,871,410,0,0,0,3,2,1,32,0003-00-0007-59.png,0002-00-0009-79.png
00000009,337,0,1445010766135,1445010766221,897,450,0,0,0,4,5,1,45,0005-00-0001-65.png,0001-00-0000-70.png
00000009,338,1,1445010769128,1445010770215,1049,312,0,0,0,4,3,1,43,0005-00-0004-49.png,0003-00-0005-80.png
00000009,339,1,1445010771064,1445010771718,408,400,0,0,0,1,5,4,15,0004-00-0005-02.png,0001-00-0001-88.png
00000009,340,1,1445010772599,1445010774095,436,245,0,0,0,3,4,1,34,0003-00-0000-71.png,0005-00-0006-70.png
00000009,341,1,1445010774974,1445010775976,472,260,0,0,0,2,3,1,23,0002-00-0000-38.png,0003-00-0004-48.png
00000009,342,1,1445010776890,1445010777510,450,323,0,0,0,1,3,2,13,0004-00-0006-38.png,0003-00-0007-48.png
00000009,343,1,1445010778650,1445010778901,913,436,0,0,0,4,3,1,43,0005-00-0003-57.png,0003-00-0001-61.png
00000009,344,1,1445010780048,1445010780931,895,346,0,0,0,5,2,3,52,0001-00-0005-04.png,0002-00-0008-13.png
00000009,345,1,1445010781830,1445010781850,893,412,0,0,0,2,1,1,21,0002-00-0006-43.png,0004-00-0008-53.png
00000009,346,1,1445010782983,1445010783059,886,463,0,0,0,4,2,2,42,0005-00-0000-88.png,0002-00-0005-22.png
00000009,347,0,1445010784156,1445010784216,884,462,0,0,0,2,4,2,24,0002-00-0004-49.png,0005-00-0009-01.png
00000009,348,1,1445010787385,1445010787949,1047,308,0,0,0,3,1,2,31,0003-00-0008-78.png,0004-00-0002-25.png
00000009,349,0,1445010789234,1445010789847,932,342,0,0,0,1,2,1,12,0004-00-0007-24.png,0002-00-0009-42.png
00000009,350,1,1445010792929,1445010793436,496,266,0,0,0,1,4,3,14,0004-00-0009-62.png,0005-00-0008-37.png
00000009,351,1,1445010794727,1445010795305,482,244,0,0,0,2,5,3,25,0002-00-0003-32.png,0001-00-0002-79.png
00000009,352,1,1445010796134,1445010797679,446,257,0,0,0,3,4,1,34,0003-00-0006-85.png,0005-00-0006-34.png
00000009,353,1,1445010798574,1445010799556,470,256,0,0,0,3,5,2,35,0003-00-0009-30.png,0001-00-0004-58.png
00000009,354,1,1445010800532,1445010801543,1030,306,0,0,0,5,1,4,51,0001-00-0007-58.png,0004-00-0005-52.png
00000009,355,0,1445010802428,1445010802448,893,438,0,0,0,4,5,1,45,0005-00-0009-01.png,0001-00-0006-75.png
00000009,356,1,1445010805587,1445010805801,862,358,0,0,0,5,4,1,54,0001-00-0006-73.png,0005-00-0007-25.png
00000009,357,1,1445010806753,1445010806821,862,488,0,0,0,5,3,2,53,0001-00-0000-47.png,0003-00-0006-44.png
00000009,358,0,1445010807825,1445010807895,868,427,0,0,0,1,5,4,15,0004-00-0002-81.png,0001-00-0002-17.png
00000009,359,1,1445010810724,1445010811320,909,324,0,0,0,4,1,3,41,0005-00-0009-52.png,0004-00-0003-17.png
00000009,360,1,1445010812596,1445010813267,931,340,0,0,0,3,2,1,32,0003-00-0006-18.png,0002-00-0007-90.png
00000009,361,0,1445010814709,1445010814793,888,421,0,0,0,1,5,4,15,0004-00-0009-25.png,0001-00-0007-82.png
00000009,362,0,1445010817923,1445010818924,498,301,0,0,0,4,3,1,43,0005-00-0004-61.png,0003-00-0004-76.png
00000009,363,0,1445010822028,1445010822145,978,302,0,0,0,3,4,1,34,0003-00-0003-29.png,0005-00-0003-05.png
00000009,364,1,1445010825007,1445010826018,323,401,0,0,0,4,5,1,45,0005-00-0008-48.png,0001-00-0006-98.png
00000009,365,1,1445010826894,1445010826986,862,462,0,0,0,4,1,3,41,0005-00-0001-43.png,0004-00-0002-27.png
00000009,366,1,1445010827968,1445010828036,884,435,0,0,0,3,2,1,32,0003-00-0004-00.png,0002-00-0008-35.png
00000009,367,1,1445010829162,1445010829214,862,400,0,0,0,5,3,2,53,0001-00-0007-34.png,0003-00-0001-92.png
00000009,368,1,1445010830485,1445010830570,895,453,0,0,0,5,4,1,54,0001-00-0009-15.png,0005-00-0005-40.png
00000009,369,0,1445010831726,1445010831762,870,444,0,0,0,1,3,2,13,0004-00-0007-95.png,0003-00-0009-03.png
00000009,370,1,1445010834707,1445010835172,918,341,0,0,0,4,2,2,42,0005-00-0004-46.png,0002-00-0006-24.png
00000009,371,1,1445010836406,1445010836849,1013,521,0,0,0,2,1,1,21,0002-00-0003-06.png,0004-00-0003-61.png
00000009,372,1,1445010837802,1445010837845,871,413,0,0,0,3,1,2,31,0003-00-0002-98.png,0004-00-0000-06.png
00000009,373,0,1445010838881,1445010838949,873,421,0,0,0,2,3,1,23,0002-00-0002-34.png,0003-00-0003-22.png
00000009,374,0,1445010842026,1445010842175,888,423,0,0,0,3,5,2,35,0003-00-0007-99.png,0001-00-0008-05.png
00000009,375,1,1445010845300,1445010845774,375,405,0,0,0,1,4,3,14,0004-00-0009-18.png,0005-00-0009-09.png
00000009,376,1,1445010847102,1445010847724,372,378,0,0,0,2,5,3,25,0002-00-0007-12.png,0001-00-0004-28.png
00000009,377,1,1445010848599,1445010849384,959,347,0,0,0,5,2,3,52,0001-00-0009-23.png,0002-00-0005-99.png
00000009,378,1,1445010850280,1445010850300,867,415,0,0,0,5,1,4,51,0001-00-0004-77.png,0004-00-0001-38.png
00000009,379,0,1445010851352,1445010851400,883,411,0,0,0,1,2,1,12,0004-00-0008-62.png,0002-00-0006-02.png
00000009,380,1,1445010854396,1445010854998,471,294,0,0,0,2,4,2,24,0002-00-0004-43.png,0005-00-0002-54.png
00000009,381,0,1445010856302,1445010856921,480,273,0,0,0,5,4,1,54,0001-00-0005-24.png,0005-00-0007-62.png
00000009,382,1,1445010860080,1445010860350,987,335,0,0,0,3,2,1,32,0003-00-0006-98.png,0002-00-0008-23.png
00000009,383,0,1445010861252,1445010862326,1022,287,0,0,0,4,5,1,45,0005-00-0002-08.png,0001-00-0007-01.png
00000009,384,1,1445010865466,1445010865639,888,422,0,0,0,2,1,1,21,0002-00-0006-92.png,0004-00-0007-83.png
00000009,385,1,1445010866529,1445010866586,888,410,0,0,0,4,3,1,43,0005-00-0008-48.png,0003-00-0000-67.png
00000009,386,1,1445010867568,1445010868398,435,328,0,0,0,1,5,4,15,0004-00-0009-98.png,0001-00-0000-47.png
00000009,387,1,1445010869489,1445010870239,903,359,0,0,0,5,1,4,51,0001-00-0006-80.png,0004-00-0000-81.png
00000009,388,0,1445010871078,1445010871106,913,421,0,0,0,1,3,2,13,0004-00-0009-57.png,0003-00-0006-42.png
00000009,389,1,1445010873999,1445010874467,938,345,0,0,0,4,2,2,42,0005-00-0008-83.png,0002-00-0005-05.png
00000009,390,0,1445010875707,1445010875764,872,384,0,0,0,2,5,3,25,0002-00-0002-84.png,0001-00-0009-15.png
00000009,391,1,1445010878634,1445010879125,410,376,0,0,0,2,3,1,23,0002-00-0006-19.png,0003-00-0004-14.png
00000009,392,0,1445010880360,1445010880400,862,358,0,0,0,3,5,2,35,0003-00-0008-30.png,0001-00-0004-41.png
00000009,393,1,1445010883531,1445010884488,448,270,0,0,0,3,4,1,34,0003-00-0007-88.png,0005-00-0008-44.png
00000009,394,0,1445010885817,1445010886511,468,235,0,0,0,4,1,3,41,0005-00-0009-11.png,0004-00-0003-04.png
00000009,395,1,1445010889652,1445010890443,425,298,0,0,0,1,4,3,14,0004-00-0005-71.png,0005-00-0007-00.png
00000009,396,1,1445010891729,1445010892369,1033,279,0,0,0,5,2,3,52,0001-00-0000-62.png,0002-00-0003-13.png
00000009,397,0,1445010893245,1445010893308,897,436,0,0,0,1,2,1,12,0004-00-0008-19.png,0002-00-0008-87.png
00000009,398,0,1445010896469,1445010896962,914,340,0,0,0,2,4,2,24,0002-00-0004-44.png,0005-00-0000-66.png
00000009,399,1,1445010900114,1445010900210,924,278,0,0,0,3,1,2,31,0003-00-0005-15.png,0004-00-0001-69.png
00000009,400,0,1445010901099,1445010901804,375,372,0,0,0,5,3,2,53,0001-00-0003-27.png,0003-00-0009-19.png
00000009,401,1,1445010904937,1445010905091,888,410,0,0,0,5,3,2,53,0001-00-0000-01.png,0003-00-0002-77.png
00000009,402,0,1445010905938,1445010906688,490,272,0,0,0,4,3,1,43,0005-00-0005-22.png,0003-00-0001-73.png
00000009,403,0,1445010909727,1445010909899,875,436,0,0,0,4,5,1,45,0005-00-0003-58.png,0001-00-0006-26.png
00000009,404,1,1445010913088,1445010913645,1079,297,0,0,0,4,2,2,42,0005-00-0002-49.png,0002-00-0002-37.png
00000009,405,1,1445010914914,1445010916004,461,253,0,0,0,1,5,4,15,0004-00-0005-84.png,0001-00-0003-43.png
00000009,406,0,1445010917346,1445010917641,918,446,0,0,0,2,5,3,25,0002-00-0006-83.png,0001-00-0008-76.png
00000009,407,0,1445010920718,1445010921022,1006,335,0,0,0,2,4,2,24,0002-00-0003-21.png,0005-00-0009-53.png
00000009,408,0,1445010924172,1445010924733,471,301,0,0,0,3,2,1,32,0003-00-0002-29.png,0002-00-0003-95.png
00000009,409,1,1445010927883,1445010928506,486,270,0,0,0,1,2,1,12,0004-00-0002-61.png,0002-00-0001-95.png
00000009,410,1,1445010929762,1445010929802,863,356,0,0,0,2,1,1,21,0002-00-0005-60.png,0004-00-0004-92.png
00000009,411,1,1445010930834,1445010930931,879,435,0,0,0,5,2,3,52,0001-00-0008-58.png,0002-00-0002-57.png
00000009,412,1,1445010932079,1445010932175,888,448,0,0,0,5,4,1,54,0001-00-0004-97.png,0005-00-0008-85.png
00000009,413,1,1445010933318,1445010933390,888,436,0,0,0,3,1,2,31,0003-00-0003-71.png,0004-00-0008-37.png
00000009,414,0,1445010934667,1445010934727,878,462,0,0,0,3,4,1,34,0003-00-0002-26.png,0005-00-0006-57.png
00000009,415,1,1445010937887,1445010937995,959,290,0,0,0,4,1,3,41,0005-00-0000-75.png,0004-00-0006-96.png
00000009,416,0,1445010938900,1445010939278,969,548,0,0,0,1,3,2,13,0004-00-0007-06.png,0003-00-0001-86.png
00000009,417,1,1445010942427,1445010942714,1111,323,0,0,0,5,1,4,51,0001-00-0005-98.png,0004-00-0009-98.png
00000009,418,1,1445010944074,1445010944722,498,236,0,0,0,1,4,3,14,0004-00-0009-97.png,0005-00-0004-79.png
00000009,419,0,1445010946075,1445010946508,924,546,0,0,0,3,5,2,35,0003-00-0008-87.png,0001-00-0009-22.png
00000009,420,1,1445010949661,1445010950343,463,286,0,0,0,2,3,1,23,0002-00-0009-48.png,0003-00-0001-38.png
00000009,421,1,1445010951602,1445010952251,382,379,0,0,0,1,2,1,12,0004-00-0003-37.png,0002-00-0000-94.png
00000009,422,1,1445010953100,1445010953915,890,399,0,0,0,3,2,1,32,0003-00-0004-61.png,0002-00-0004-27.png
00000009,423,1,1445010954832,1445010954876,913,448,0,0,0,5,2,3,52,0001-00-0001-67.png,0002-00-0003-98.png
00000009,424,0,1445010956064,1445010956133,909,477,0,0,0,3,5,2,35,0003-00-0003-24.png,0001-00-0001-23.png
00000009,425,1,1445010959284,1445010959800,1067,279,0,0,0,4,2,2,42,0005-00-0003-27.png,0002-00-0001-81.png
00000009,426,1,1445010961058,1445010961485,1011,525,0,0,0,5,3,2,53,0001-00-0008-50.png,0003-00-0000-05.png
00000009,427,1,1445010962494,1445010962551,862,397,0,0,0,3,1,2,31,0003-00-0009-92.png,0004-00-0009-31.png
00000009,428,1,1445010963649,1445010963677,893,436,0,0,0,5,1,4,51,0001-00-0005-56.png,0004-00-0008-53.png
00000009,429,0,1445010964857,1445010964930,857,473,0,0,0,1,3,2,13,0004-00-0004-14.png,0003-00-0001-09.png
00000009,430,0,1445010968069,1445010968192,952,295,0,0,0,2,5,3,25,0002-00-0004-78.png,0001-00-0008-08.png
00000009,431,1,1445010971319,1445010971602,1004,340,0,0,0,5,4,1,54,0001-00-0000-67.png,0005-00-0004-68.png
00000009,432,0,1445010972511,1445010972559,862,436,0,0,0,2,3,1,23,0002-00-0005-29.png,0003-00-0004-46.png
00000009,433,1,1445010975719,1445010976289,485,259,0,0,0,1,4,3,14,0004-00-0004-76.png,0005-00-0000-27.png
00000009,434,0,1445010977483,1445010978423,1041,279,0,0,0,4,5,1,45,0005-00-0004-52.png,0001-00-0001-08.png
00000009,435,1,1445010981503,1445010982063,472,293,0,0,0,3,4,1,34,0003-00-0008-33.png,0005-00-0002-21.png
00000009,436,1,1445010983400,1445010983760,991,500,0,0,0,4,1,3,41,0005-00-0004-82.png,0004-00-0009-95.png
00000009,437,0,1445010984681,1445010984747,904,436,0,0,0,1,5,4,15,0004-00-0007-50.png,0001-00-0004-37.png
00000009,438,1,1445010987606,1445010988139,488,258,0,0,0,2,4,2,24,0002-00-0008-20.png,0005-00-0002-88.png
00000009,439,1,1445010989404,1445010990075,954,353,0,0,0,4,3,1,43,0005-00-0009-51.png,0003-00-0001-46.png
00000009,440,1,1445010991033,1445010991863,893,400,0,0,0,2,1,1,21,0002-00-0009-17.png,0004-00-0002-83.png
00000009,441,0,1445010992903,1445010992935,899,463,0,0,0,4,5,1,45,0005-00-0008-08.png,0001-00-0005-66.png
00000009,442,1,1445010996487,1445010996976,460,290,0,0,0,1,5,4,15,0004-00-0007-89.png,0001-00-0003-89.png
00000009,443,1,1445010997805,1445010998429,1067,291,0,0,0,3,1,2,31,0003-00-0009-90.png,0004-00-0008-47.png
00000009,444,0,1445010999320,1445010999368,868,455,0,0,0,2,5,3,25,0002-00-0000-50.png,0001-00-0009-07.png
00000009,445,0,1445011002798,1445011003081,991,298,0,0,0,3,5,2,35,0003-00-0004-39.png,0001-00-0009-08.png
00000009,446,1,1445011006217,1445011006846,893,330,0,0,0,4,3,1,43,0005-00-0003-31.png,0003-00-0007-50.png
00000009,447,0,1445011007716,1445011008333,905,347,0,0,0,3,4,1,34,0003-00-0006-86.png,0005-00-0005-57.png
00000009,448,1,1445011011464,1445011011962,1041,279,0,0,0,5,2,3,52,0001-00-0000-56.png,0002-00-0006-59.png
00000009,449,1,1445011012792,1445011013457,489,276,0,0,0,2,3,1,23,0002-00-0006-07.png,0003-00-0003-66.png
00000009,450,1,1445011014555,1445011014611,862,421,0,0,0,2,1,1,21,0002-00-0001-25.png,0004-00-0006-50.png
00000009,451,0,1445011015730,1445011015774,888,449,0,0,0,1,4,3,14,0004-00-0007-80.png,0005-00-0006-85.png
00000009,452,1,1445011018727,1445011019298,395,376,0,0,0,1,2,1,12,0004-00-0002-47.png,0002-00-0001-23.png
00000009,453,1,1445011020576,1445011021327,891,360,0,0,0,5,4,1,54,0001-00-0006-38.png,0005-00-0007-88.png
00000009,454,1,1445011022244,1445011023011,1075,316,0,0,0,4,2,2,42,0005-00-0002-48.png,0002-00-0006-46.png
00000009,455,1,1445011023865,1445011023940,946,429,0,0,0,4,1,3,41,0005-00-0008-33.png,0004-00-0003-37.png
00000009,456,1,1445011025097,1445011025153,888,422,0,0,0,5,3,2,53,0001-00-0003-79.png,0003-00-0004-61.png
00000009,457,1,1445011026340,1445011026374,896,444,0,0,0,5,1,4,51,0001-00-0006-95.png,0004-00-0007-88.png
00000009,458,0,1445011027740,1445011027788,901,470,0,0,0,1,3,2,13,0004-00-0001-19.png,0003-00-0006-15.png
00000009,459,1,1445011030831,1445011031333,941,322,0,0,0,3,2,1,32,0003-00-0003-95.png,0002-00-0005-61.png
00000009,460,1,1445011032679,1445011033265,476,235,0,0,0,2,4,2,24,0002-00-0002-25.png,0005-00-0003-01.png
00000009,461,0,1445011034717,1445011034753,874,428,0,0,0,3,5,2,35,0003-00-0003-89.png,0001-00-0007-58.png
00000009,462,1,1445011037818,1445011037854,949,354,0,0,0,5,3,2,53,0001-00-0000-57.png,0003-00-0007-36.png
00000009,463,1,1445011038831,1445011039839,446,273,0,0,0,1,4,3,14,0004-00-0002-07.png,0005-00-0009-66.png
00000009,464,1,1445011040694,1445011040754,862,422,0,0,0,4,1,3,41,0005-00-0006-32.png,0004-00-0002-12.png
00000009,465,1,1445011041889,1445011041937,885,439,0,0,0,5,1,4,51,0001-00-0004-08.png,0004-00-0001-73.png
00000009,466,0,1445011043055,1445011043093,887,438,0,0,0,1,5,4,15,0004-00-0005-89.png,0001-00-0000-28.png
00000009,467,1,1445011045929,1445011045983,868,428,0,0,0,5,2,3,52,0001-00-0002-20.png,0002-00-0009-93.png
00000009,468,0,1445011047017,1445011047751,1016,291,0,0,0,3,4,1,34,0003-00-0009-85.png,0005-00-0003-87.png
00000009,469,1,1445011050863,1445011050923,939,306,0,0,0,3,2,1,32,0003-00-0009-84.png,0002-00-0005-95.png
00000009,470,0,1445011051867,1445011052652,909,332,0,0,0,1,2,1,12,0004-00-0007-27.png,0002-00-0001-68.png
00000009,471,1,1445011055754,1445011056283,438,429,0,0,0,1,3,2,13,0004-00-0009-32.png,0003-00-0008-48.png
00000009,472,0,1445011057245,1445011058322,387,337,0,0,0,5,4,1,54,0001-00-0008-93.png,0005-00-0008-39.png
00000009,473,1,1445011061362,1445011061833,382,375,0,0,0,2,5,3,25,0002-00-0004-47.png,0001-00-0004-49.png
00000009,474,0,1445011062698,1445011063383,487,258,0,0,0,4,3,1,43,0005-00-0000-35.png,0003-00-0000-91.png
00000009,475,1,1445011066496,1445011067346,453,279,0,0,0,4,5,1,45,0005-00-0002-58.png,0001-00-0000-54.png
00000009,476,0,1445011068208,1445011068237,862,389,0,0,0,2,3,1,23,0002-00-0003-91.png,0003-00-0004-62.png
00000009,477,1,1445011071107,1445011071654,482,290,0,0,0,2,4,2,24,0002-00-0001-45.png,0005-00-0007-21.png
00000009,478,1,1445011072918,1445011073302,1018,517,0,0,0,4,2,2,42,0005-00-0008-92.png,0002-00-0009-67.png
00000009,479,1,1445011074299,1445011074377,902,436,0,0,0,2,1,1,21,0002-00-0003-75.png,0004-00-0008-56.png
00000009,480,1,1445011075419,1445011075447,885,407,0,0,0,3,1,2,31,0003-00-0006-87.png,0004-00-0000-05.png
00000009,481,1,1445011076669,1445011076752,939,453,0,0,0,5,1,4,51,0001-00-0003-94.png,0004-00-0007-01.png
00000009,482,1,1445011078156,1445011078233,934,459,0,0,0,3,2,1,32,0003-00-0004-75.png,0002-00-0006-98.png
00000009,483,1,1445011079444,1445011079494,916,477,0,0,0,5,4,1,54,0001-00-0008-13.png,0005-00-0006-68.png
00000009,484,0,1445011080658,1445011080686,911,463,0,0,0,1,2,1,12,0004-00-0000-22.png,0002-00-0002-40.png
00000009,485,1,1445011083844,1445011085015,462,288,0,0,0,3,5,2,35,0003-00-0002-47.png,0001-00-0003-27.png
00000009,486,0,1445011085954,1445011086983,417,367,0,0,0,5,2,3,52,0001-00-0001-25.png,0002-00-0008-44.png
00000009,487,1,1445011090136,1445011090653,950,306,0,0,0,2,1,1,21,0002-00-0008-93.png,0004-00-0006-58.png
00000009,488,1,1445011092005,1445011092612,1059,265,0,0,0,3,1,2,31,0003-00-0006-69.png,0004-00-0002-91.png
00000009,489,1,1445011093484,1445011093516,937,421,0,0,0,5,3,2,53,0001-00-0009-52.png,0003-00-0009-45.png
00000009,490,1,1445011094707,1445011094755,913,433,0,0,0,4,3,1,43,0005-00-0003-49.png,0003-00-0008-17.png
00000009,491,0,1445011095912,1445011095972,924,421,0,0,0,3,4,1,34,0003-00-0003-06.png,0005-00-0001-54.png
00000009,492,0,1445011099107,1445011099146,896,344,0,0,0,1,4,3,14,0004-00-0003-40.png,0005-00-0003-49.png
00000009,493,1,1445011102159,1445011102747,1045,271,0,0,0,4,1,3,41,0005-00-0006-30.png,0004-00-0006-91.png
00000009,494,0,1445011103569,1445011103650,913,488,0,0,0,2,5,3,25,0002-00-0002-79.png,0001-00-0003-29.png
00000009,495,1,1445011106623,1445011107186,363,372,0,0,0,1,3,2,13,0004-00-0009-10.png,0003-00-0001-53.png
00000009,496,1,1445011108522,1445011110031,420,267,0,0,0,2,3,1,23,0002-00-0002-64.png,0003-00-0000-25.png
00000009,497,1,1445011110927,1445011111734,458,237,0,0,0,1,5,4,15,0004-00-0003-42.png,0001-00-0002-39.png
00000009,498,0,1445011112626,1445011112744,929,468,0,0,0,2,4,2,24,0002-00-0003-53.png,0005-00-0002-27.png
00000009,499,0,1445011115946,1445011116428,951,322,0,0,0,4,5,1,45,0005-00-0000-92.png,0001-00-0001-98.png
00000009,500,1,1445011119494,1445011120079,1040,276,0,0,0,4,2,2,42,0005-00-0003-00.png,0002-00-0006-61.png
00000009,501,1,1445011121339,1445011121967,492,256,0,0,0,1,5,4,15,0004-00-0009-14.png,0001-00-0008-67.png
00000009,502,1,1445011122818,1445011123495,872,406,0,0,0,5,2,3,52,0001-00-0002-96.png,0002-00-0008-59.png
00000009,503,1,1445011124996,1445011125126,937,473,0,0,0,2,1,1,21,0002-00-0006-23.png,0004-00-0006-70.png
00000009,504,0,1445011126220,1445011126248,911,422,0,0,0,2,3,1,23,0002-00-0005-73.png,0003-00-0001-95.png
00000009,505,1,1445011129350,1445011129926,967,427,0,0,0,4,2,2,42,0005-00-0008-51.png,0002-00-0000-78.png
00000009,506,1,1445011130826,1445011130863,891,445,0,0,0,4,1,3,41,0005-00-0000-68.png,0004-00-0008-92.png
00000009,507,0,1445011131907,1445011131963,888,425,0,0,0,3,4,1,34,0003-00-0003-72.png,0005-00-0000-03.png
00000009,508,0,1445011135071,1445011135269,913,369,0,0,0,2,4,2,24,0002-00-0001-73.png,0005-00-0005-28.png
00000009,509,0,1445011138121,1445011138405,948,379,0,0,0,1,3,2,13,0004-00-0008-48.png,0003-00-0008-74.png
00000009,510,1,1445011141386,1445011141898,371,396,0,0,0,1,4,3,14,0004-00-0008-70.png,0005-00-0003-45.png
00000009,511,1,1445011143271,1445011144350,494,234,0,0,0,3,5,2,35,0003-00-0001-04.png,0001-00-0006-59.png
00000009,512,1,1445011145186,1445011146414,1041,292,0,0,0,3,1,2,31,0003-00-0007-02.png,0004-00-0008-22.png
00000009,513,1,1445011147327,1445011147367,940,426,0,0,0,4,3,1,43,0005-00-0000-98.png,0003-00-0009-83.png
00000009,514,1,1445011148497,1445011148557,939,445,0,0,0,5,1,4,51,0001-00-0005-94.png,0004-00-0005-42.png
00000009,515,1,1445011149680,1445011149720,912,415,0,0,0,5,4,1,54,0001-00-0006-99.png,0005-00-0004-22.png
00000009,516,1,1445011150933,1445011150977,913,448,0,0,0,5,3,2,53,0001-00-0006-43.png,0003-00-0007-34.png
00000009,517,0,1445011152165,1445011152215,910,469,0,0,0,2,5,3,25,0002-00-0009-09.png,0001-00-0007-24.png
00000009,518,0,1445011155404,1445011155511,902,290,0,0,0,1,2,1,12,0004-00-0009-41.png,0002-00-0008-67.png
00000009,519,1,1445011158673,1445011159207,1094,331,0,0,0,3,2,1,32,0003-00-0009-90.png,0002-00-0000-23.png
00000009,520,1,1445011160041,1445011160789,517,227,0,0,0,4,5,1,45,0005-00-0008-67.png,0001-00-0008-28.png
00000009,521,0,1445011161711,1445011161735,870,406,0,0,0,1,5,4,15,0004-00-0008-62.png,0001-00-0007-25.png
00000009,522,0,1445011164825,1445011165600,394,380,0,0,0,5,3,2,53,0001-00-0001-35.png,0003-00-0001-19.png
00000009,523,1,1445011168693,1445011169154,1075,296,0,0,0,3,1,2,31,0003-00-0008-89.png,0004-00-0008-51.png
00000009,524,1,1445011170888,1445011170936,888,384,0,0,0,4,2,2,42,0005-00-0001-83.png,0002-00-0000-57.png
00000009,525,0,1445011171973,1445011172030,869,404,0,0,0,1,4,3,14,0004-00-0008-92.png,0005-00-0008-69.png
00000009,526,1,1445011175143,1445011175961,939,343,0,0,0,4,1,3,41,0005-00-0008-08.png,0004-00-0000-94.png
00000009,527,0,1445011177308,1445011178335,915,338,0,0,0,3,5,2,35,0003-00-0002-27.png,0001-00-0006-67.png
00000009,528,1,1445011181384,1445011181420,934,351,0,0,0,4,3,1,43,0005-00-0004-04.png,0003-00-0007-69.png
00000009,529,0,1445011182406,1445011182442,860,462,0,0,0,2,5,3,25,0002-00-0009-14.png,0001-00-0006-31.png
00000009,530,1,1445011185496,1445011186313,460,268,0,0,0,2,3,1,23,0002-00-0003-00.png,0003-00-0009-50.png
00000009,531,1,1445011187197,1445011187245,897,435,0,0,0,3,2,1,32,0003-00-0009-88.png,0002-00-0001-58.png
00000009,532,0,1445011188315,1445011188395,925,410,0,0,0,4,5,1,45,0005-00-0005-75.png,0001-00-0001-69.png
00000009,533,0,1445011191260,1445011192063,1067,288,0,0,0,1,2,1,12,0004-00-0005-41.png,0002-00-0009-12.png
00000009,534,1,1445011195064,1445011196069,1025,279,0,0,0,5,4,1,54,0001-00-0000-20.png,0005-00-0007-18.png
00000009,535,0,1445011196888,1445011196952,897,462,0,0,0,1,3,2,13,0004-00-0001-03.png,0003-00-0000-97.png
00000009,536,1,1445011199958,1445011200501,458,286,0,0,0,2,4,2,24,0002-00-0008-39.png,0005-00-0009-18.png
00000009,537,1,1445011201353,1445011201421,884,429,0,0,0,5,1,4,51,0001-00-0008-78.png,0004-00-0008-02.png
00000009,538,0,1445011202390,1445011202478,899,410,0,0,0,3,4,1,34,0003-00-0000-38.png,0005-00-0003-26.png
00000009,539,1,1445011205600,1445011206104,944,388,0,0,0,5,2,3,52,0001-00-0000-64.png,0002-00-0005-18.png
00000009,540,0,1445011207438,1445011208235,488,274,0,0,0,2,1,1,21,0002-00-0000-95.png,0004-00-0000-58.png
00000009,541,1,1445011211071,1445011211967,453,288,0,0,0,3,5,2,35,0003-00-0007-75.png,0001-00-0000-68.png
00000009,542,1,1445011212810,1445011213474,1027,306,0,0,0,5,4,1,54,0001-00-0005-48.png,0005-00-0005-20.png
00000009,543,1,1445011214381,1445011214401,911,392,0,0,0,5,2,3,52,0001-00-0004-89.png,0002-00-0002-58.png
00000009,544,1,1445011215526,1445011215594,913,424,0,0,0,4,1,3,41,0005-00-0008-11.png,0004-00-0005-67.png
00000009,545,0,1445011216795,1445011216855,930,436,0,0,0,1,5,4,15,0004-00-0004-07.png,0001-00-0001-72.png
00000009,546,0,1445011220004,1445011220479,1071,283,0,0,0,1,2,1,12,0004-00-0002-27.png,0002-00-0006-70.png
00000009,547,0,1445011223685,1445011223733,947,333,0,0,0,2,4,2,24,0002-00-0001-08.png,0005-00-0008-71.png
00000009,548,1,1445011226893,1445011227348,504,282,0,0,0,1,4,3,14,0004-00-0009-14.png,0005-00-0007-02.png
00000009,549,0,1445011228582,1445011229625,474,250,0,0,0,5,3,2,53,0001-00-0004-50.png,0003-00-0004-39.png
00000009,550,0,1445011232768,1445011233023,938,363,0,0,0,2,3,1,23,0002-00-0003-07.png,0003-00-0008-86.png
00000009,551,1,1445011236375,1445011236942,391,376,0,0,0,1,3,2,13,0004-00-0009-07.png,0003-00-0009-48.png
00000009,552,0,1445011237804,1445011237853,873,471,0,0,0,2,5,3,25,0002-00-0005-39.png,0001-00-0004-55.png
00000009,553,1,1445011240817,1445011241386,1067,283,0,0,0,3,2,1,32,0003-00-0008-54.png,0002-00-0001-36.png
00000009,554,0,1445011242235,1445011242943,1044,290,0,0,0,3,4,1,34,0003-00-0000-54.png,0005-00-0001-16.png
00000009,555,0,1445011246111,1445011246621,476,277,0,0,0,3,1,2,31,0003-00-0006-94.png,0004-00-0009-36.png
00000009,556,1,1445011249902,1445011250013,866,293,0,0,0,5,1,4,51,0001-00-0001-40.png,0004-00-0005-62.png
00000009,557,1,1445011250942,1445011251746,921,346,0,0,0,4,2,2,42,0005-00-0004-60.png,0002-00-0007-85.png
00000009,558,1,1445011252635,1445011252663,900,440,0,0,0,4,3,1,43,0005-00-0005-53.png,0003-00-0007-75.png
00000009,559,1,1445011253718,1445011253762,912,412,0,0,0,2,1,1,21,0002-00-0005-06.png,0004-00-0001-08.png
00000009,560,0,1445011254750,1445011254810,888,425,0,0,0,4,5,1,45,0005-00-0006-45.png,0001-00-0001-18.png
00000009,561,0,1445011257838,1445011258363,396,348,0,0,0,5,4,1,54,0001-00-0007-83.png,0005-00-0002-35.png
00000009,562,0,1445011261497,1445011261782,963,306,0,0,0,2,4,2,24,0002-00-0003-19.png,0005-00-0006-24.png
00000009,563,0,1445011264945,1445011264977,923,329,0,0,0,3,5,2,35,0003-00-0007-63.png,0001-00-0005-53.png
00000009,564,1,1445011268028,1445011268668,386,378,0,0,0,2,3,1,23,0002-00-0005-92.png,0003-00-0001-81.png
00000009,565,0,1445011270001,1445011270717,1035,285,0,0,0,4,5,1,45,0005-00-0001-45.png,0001-00-0002-20.png
00000009,566,0,1445011273829,1445011274938,1087,288,0,0,0,3,4,1,34,0003-00-0002-76.png,0005-00-0004-71.png
00000009,567,1,1445011278055,1445011278589,455,302,0,0,0,1,4,3,14,0004-00-0007-40.png,0005-00-0003-50.png
00000009,568,1,1445011279936,1445011280934,394,371,0,0,0,1,5,4,15,0004-00-0007-46.png,0001-00-0002-94.png
00000009,569,1,1445011281771,1445011281799,875,393,0,0,0,5,1,4,51,0001-00-0009-39.png,0004-00-0003-77.png
00000009,570,1,1445011282816,1445011282872,868,426,0,0,0,5,2,3,52,0001-00-0008-93.png,0002-00-0000-84.png
00000009,571,1,1445011284068,1445011284124,901,465,0,0,0,5,3,2,53,0001-00-0000-60.png,0003-00-0008-90.png
00000009,572,1,1445011285258,1445011285306,882,444,0,0,0,4,3,1,43,0005-00-0007-46.png,0003-00-0002-99.png
00000009,573,1,1445011286579,1445011286619,922,466,0,0,0,3,1,2,31,0003-00-0004-83.png,0004-00-0005-42.png
00000009,574,1,1445011288159,1445011288215,901,467,0,0,0,3,2,1,32,0003-00-0007-93.png,0002-00-0005-61.png
00000009,575,0,1445011289464,1445011289540,900,462,0,0,0,1,2,1,12,0004-00-0006-03.png,0002-00-0002-69.png
00000009,576,1,1445011292602,1445011293122,473,279,0,0,0,1,3,2,13,0004-00-0000-84.png,0003-00-0007-05.png
00000009,577,0,1445011294478,1445011295092,480,238,0,0,0,4,1,3,41,0005-00-0003-86.png,0004-00-0002-95.png
00000009,578,1,1445011298029,1445011298555,957,298,0,0,0,4,2,2,42,0005-00-0006-31.png,0002-00-0003-01.png
00000009,579,0,1445011299437,1445011300251,477,240,0,0,0,2,1,1,21,0002-00-0005-52.png,0004-00-0000-32.png
00000009,580,1,1445011303124,1445011304245,427,291,0,0,0,2,5,3,25,0002-00-0001-09.png,0001-00-0005-53.png
00000009,581,0,1445011305642,1445011305682,889,414,0,0,0,4,5,1,45,0005-00-0004-85.png,0001-00-0004-47.png
00000009,582,1,1445011308820,1445011309338,478,264,0,0,0,2,5,3,25,0002-00-0009-39.png,0001-00-0000-68.png
00000009,583,1,1445011310220,1445011311022,1032,294,0,0,0,3,2,1,32,0003-00-0007-71.png,0002-00-0004-07.png
00000009,584,1,1445011311909,1445011311973,934,449,0,0,0,5,1,4,51,0001-00-0006-89.png,0004-00-0005-10.png
00000009,585,1,1445011313043,1445011313091,888,436,0,0,0,2,1,1,21,0002-00-0009-06.png,0004-00-0006-23.png
00000009,586,0,1445011314178,1445011314238,896,462,0,0,0,1,5,4,15,0004-00-0003-76.png,0001-00-0009-11.png
00000009,587,0,1445011317484,1445011318049,1052,323,0,0,0,3,4,1,34,0003-00-0009-98.png,0005-00-0004-05.png
00000009,588,1,1445011320892,1445011321442,939,306,0,0,0,3,1,2,31,0003-00-0002-28.png,0004-00-0001-74.png
00000009,589,0,1445011322274,1445011322322,890,448,0,0,0,2,3,1,23,0002-00-0000-69.png,0003-00-0003-99.png
00000009,590,0,1445011325325,1445011325479,862,422,0,0,0,2,4,2,24,0002-00-0002-60.png,0005-00-0008-70.png
00000009,591,0,1445011328433,1445011329023,1067,290,0,0,0,3,5,2,35,0003-00-0007-62.png,0001-00-0009-33.png
00000009,592,1,1445011332162,1445011332983,1066,300,0,0,0,5,4,1,54,0001-00-0000-10.png,0005-00-0007-00.png
00000009,593,1,1445011333912,1445011333956,864,447,0,0,0,4,3,1,43,0005-00-0009-53.png,0003-00-0009-60.png
00000009,594,1,1445011334976,1445011335076,878,436,0,0,0,5,2,3,52,0001-00-0008-65.png,0002-00-0000-40.png
00000009,595,0,1445011336080,1445011336173,899,462,0,0,0,1,3,2,13,0004-00-0001-02.png,0003-00-0002-85.png
00000009,596,1,1445011339389,1445011339975,918,338,0,0,0,4,1,3,41,0005-00-0000-85.png,0004-00-0000-52.png
00000009,597,0,1445011341207,1445011341251,859,357,0,0,0,1,4,3,14,0004-00-0004-59.png,0005-00-0002-42.png
00000009,598,1,1445011344117,1445011344670,396,383,0,0,0,1,2,1,12,0004-00-0002-86.png,0002-00-0004-68.png
00000009,599,1,1445011345956,1445011346013,858,358,0,0,0,5,3,2,53,0001-00-0009-47.png,0003-00-0001-68.png
00000009,600,1,1445011346930,1445011347014,862,426,0,0,0,4,2,2,42,0005-00-0000-64.png,0002-00-0006-85.png
00000009,601,1,1445011348045,1445011349177,471,238,0,0,0,3,4,1,34,0003-00-0002-09.png,0005-00-0001-84.png
00000009,602,1,1445011350069,1445011350859,914,329,0,0,0,4,1,3,41,0005-00-0005-55.png,0004-00-0003-91.png
00000009,603,1,1445011351729,1445011351769,888,423,0,0,0,3,1,2,31,0003-00-0001-64.png,0004-00-0006-73.png
00000009,604,0,1445011352794,1445011352854,878,436,0,0,0,1,4,3,14,0004-00-0008-75.png,0005-00-0009-56.png
00000009,605,1,1445011355785,1445011356332,502,263,0,0,0,2,5,3,25,0002-00-0004-50.png,0001-00-0003-09.png
00000009,606,0,1445011357642,1445011357682,862,390,0,0,0,2,4,2,24,0002-00-0003-06.png,0005-00-0000-67.png
00000009,607,1,1445011360781,1445011361252,929,331,0,0,0,5,2,3,52,0001-00-0007-46.png,0002-00-0000-95.png
00000009,608,1,1445011362534,1445011363634,459,289,0,0,0,1,3,2,13,0004-00-0003-01.png,0003-00-0006-38.png
00000009,609,0,1445011365036,1445011365206,913,462,0,0,0,1,2,1,12,0004-00-0000-05.png,0002-00-0008-73.png
00000009,610,0,1445011368117,1445011368641,471,249,0,0,0,5,3,2,53,0001-00-0002-99.png,0003-00-0004-79.png
00000009,611,1,1445011371735,1445011371771,887,357,0,0,0,2,1,1,21,0002-00-0006-18.png,0004-00-0005-00.png
00000009,612,1,1445011372689,1445011372725,859,484,0,0,0,5,1,4,51,0001-00-0003-62.png,0004-00-0006-01.png
00000009,613,1,1445011373761,1445011373868,879,469,0,0,0,3,2,1,32,0003-00-0006-62.png,0002-00-0000-61.png
00000009,614,1,1445011374865,1445011374946,878,462,0,0,0,4,3,1,43,0005-00-0008-37.png,0003-00-0007-05.png
00000009,615,1,1445011376177,1445011376213,864,465,0,0,0,4,2,2,42,0005-00-0000-95.png,0002-00-0001-40.png
00000009,616,1,1445011377438,1445011377474,888,445,0,0,0,5,4,1,54,0001-00-0001-29.png,0005-00-0000-15.png
00000009,617,0,1445011378751,1445011378799,885,476,0,0,0,1,5,4,15,0004-00-0002-31.png,0001-00-0005-86.png
00000009,618,1,1445011381751,1445011382286,453,266,0,0,0,4,5,1,45,0005-00-0006-10.png,0001-00-0007-77.png
00000009,619,1,1445011383118,1445011383815,487,237,0,0,0,2,3,1,23,0002-00-0003-91.png,0003-00-0001-45.png
00000009,620,0,1445011384690,1445011384782,871,478,0,0,0,3,5,2,35,0003-00-0007-72.png,0001-00-0000-32.png
00000009,621,1,1445011387967,1445011388978,407,266,0,0,0,2,4,2,24,0002-00-0001-19.png,0005-00-0003-80.png
00000009,622,1,1445011389847,1445011390543,1034,270,0,0,0,3,2,1,32,0003-00-0007-75.png,0002-00-0002-45.png
00000009,623,1,1445011391437,1445011392362,1192,409,0,0,0,5,2,3,52,0001-00-0008-64.png,0002-00-0007-73.png
00000009,624,0,1445011393297,1445011393365,931,488,0,0,0,3,4,1,34,0003-00-0000-69.png,0005-00-0009-05.png
00000009,625,1,1445011396377,1445011396880,937,346,0,0,0,3,1,2,31,0003-00-0000-45.png,0004-00-0007-65.png
00000009,626,1,1445011398258,1445011398618,988,544,0,0,0,2,1,1,21,0002-00-0007-91.png,0004-00-0001-27.png
00000009,627,1,1445011399617,1445011399685,882,448,0,0,0,5,1,4,51,0001-00-0005-86.png,0004-00-0000-64.png
00000009,628,0,1445011400817,1445011400857,913,448,0,0,0,1,5,4,15,0004-00-0002-70.png,0001-00-0000-37.png
00000009,629,0,1445011403960,1445011404449,924,341,0,0,0,2,5,3,25,0002-00-0009-19.png,0001-00-0002-79.png
00000009,630,1,1445011407526,1445011408023,1053,253,0,0,0,4,1,3,41,0005-00-0000-81.png,0004-00-0001-77.png
00000009,631,0,1445011409326,1445011410687,435,266,0,0,0,5,3,2,53,0001-00-0006-11.png,0003-00-0007-26.png
00000009,632,0,1445011413806,1445011414316,941,330,0,0,0,4,5,1,45,0005-00-0004-34.png,0001-00-0007-76.png
00000009,633,0,1445011417447,1445011418006,493,292,0,0,0,4,3,1,43,0005-00-0001-28.png,0003-00-0000-64.png
00000009,634,0,1445011420916,1445011421468,355,356,0,0,0,5,4,1,54,0001-00-0006-81.png,0005-00-0002-40.png
00000009,635,1,1445011424362,1445011424885,470,262,0,0,0,1,4,3,14,0004-00-0004-98.png,0005-00-0000-09.png
00000009,636,1,1445011426260,1445011426975,473,297,0,0,0,1,3,2,13,0004-00-0008-77.png,0003-00-0002-97.png
00000009,637,0,1445011428338,1445011428456,886,413,0,0,0,3,5,2,35,0003-00-0000-71.png,0001-00-0007-78.png
00000009,638,1,1445011431451,1445011432040,394,370,0,0,0,2,3,1,23,0002-00-0003-89.png,0003-00-0002-87.png
00000009,639,1,1445011433434,1445011434061,452,246,0,0,0,1,2,1,12,0004-00-0009-22.png,0002-00-0009-99.png
00000009,640,1,1445011435447,1445011435761,938,511,0,0,0,4,2,2,42,0005-00-0000-94.png,0002-00-0002-69.png
00000009,641,1,1445011436834,1445011436919,934,476,0,0,0,5,3,2,53,0001-00-0005-39.png,0003-00-0002-33.png
00000009,642,1,1445011437939,1445011438028,910,538,0,0,0,4,3,1,43,0005-00-0000-84.png,0003-00-0009-85.png
00000009,643,0,1445011439349,1445011439417,922,488,0,0,0,2,5,3,25,0002-00-0008-68.png,0001-00-0008-58.png
00000009,644,1,1445011442278,1445011443301,347,361,0,0,0,3,5,2,35,0003-00-0003-40.png,0001-00-0005-78.png
00000009,645,1,1445011444187,1445011445408,374,343,0,0,0,3,4,1,34,0003-00-0003-78.png,0005-00-0002-09.png
00000009,646,1,1445011446315,1445011447280,917,355,0,0,0,4,1,3,41,0005-00-0007-13.png,0004-00-0001-08.png
00000009,647,1,1445011448164,1445011448220,885,478,0,0,0,2,1,1,21,0002-00-0000-64.png,0004-00-0002-36.png
00000009,648,0,1445011449475,1445011449523,865,472,0,0,0,1,2,1,12,0004-00-0001-18.png,0002-00-0009-30.png
00000009,649,1,1445011452404,1445011452959,374,370,0,0,0,1,5,4,15,0004-00-0007-10.png,0001-00-0001-82.png
00000009,650,1,1445011454285,1445011454848,466,248,0,0,0,2,3,1,23,0002-00-0003-19.png,0003-00-0008-38.png
00000009,651,0,1445011455752,1445011455832,860,457,0,0,0,4,5,1,45,0005-00-0005-87.png,0001-00-0003-93.png
00000009,652,0,1445011458747,1445011459299,1080,310,0,0,0,2,4,2,24,0002-00-0004-38.png,0005-00-0007-56.png
00000009,653,1,1445011462330,1445011463051,1041,292,0,0,0,5,1,4,51,0001-00-0002-34.png,0004-00-0002-99.png
00000009,654,1,1445011463890,1445011463962,862,474,0,0,0,5,4,1,54,0001-00-0001-22.png,0005-00-0001-46.png
00000009,655,0,1445011464986,1445011465093,888,449,0,0,0,1,3,2,13,0004-00-0005-35.png,0003-00-0004-05.png
00000009,656,1,1445011467934,1445011468706,1041,288,0,0,0,5,2,3,52,0001-00-0004-97.png,0002-00-0005-32.png
00000009,657,1,1445011470024,1445011470437,982,542,0,0,0,3,1,2,31,0003-00-0007-44.png,0004-00-0002-11.png
00000009,658,1,1445011471425,1445011471494,903,444,0,0,0,3,2,1,32,0003-00-0004-67.png,0002-00-0000-87.png
00000009,659,1,1445011472559,1445011472627,858,441,0,0,0,4,2,2,42,0005-00-0000-34.png,0002-00-0003-25.png
00000009,660,0,1445011473868,1445011473908,903,460,0,0,0,1,4,3,14,0004-00-0007-31.png,0005-00-0004-21.png
00000009,661,1,1445011477058,1445011477507,377,389,0,0,0,1,3,2,13,0004-00-0003-24.png,0003-00-0001-04.png
00000009,662,1,1445011478838,1445011478890,887,419,0,0,0,5,3,2,53,0001-00-0000-74.png,0003-00-0006-62.png
00000009,663,1,1445011479892,1445011479964,907,460,0,0,0,4,2,2,42,0005-00-0002-75.png,0002-00-0001-73.png
00000009,664,0,1445011481035,1445011481075,932,471,0,0,0,4,5,1,45,0005-00-0005-01.png,0001-00-0005-42.png
00000009,665,1,1445011484226,1445011485039,973,358,0,0,0,2,1,1,21,0002-00-0001-81.png,0004-00-0004-81.png
00000009,666,0,1445011485899,1445011486684,445,390,0,0,0,5,4,1,54,0001-00-0009-33.png,0005-00-0001-22.png
00000009,667,0,1445011489748,1445011490451,939,305,0,0,0,2,5,3,25,0002-00-0007-20.png,0001-00-0009-25.png
00000009,668,1,1445011493527,1445011494100,1084,257,0,0,0,5,1,4,51,0001-00-0009-53.png,0004-00-0001-35.png
00000009,669,0,1445011494942,1445011494974,869,462,0,0,0,1,4,3,14,0004-00-0005-32.png,0005-00-0009-93.png
00000009,670,1,1445011498105,1445011498587,487,292,0,0,0,1,5,4,15,0004-00-0004-32.png,0001-00-0007-23.png
00000009,671,0,1445011499435,1445011500200,931,322,0,0,0,3,4,1,34,0003-00-0002-79.png,0005-00-0007-32.png
00000009,672,1,1445011503246,1445011503768,1070,309,0,0,0,5,2,3,52,0001-00-0003-98.png,0002-00-0005-23.png
00000009,673,1,1445011505014,1445011505683,461,269,0,0,0,2,3,1,23,0002-00-0008-10.png,0003-00-0006-02.png
00000009,674,1,1445011506551,1445011507540,475,315,0,0,0,2,4,2,24,0002-00-0006-57.png,0005-00-0002-51.png
00000009,675,1,1445011508702,1445011508776,872,462,0,0,0,4,3,1,43,0005-00-0007-07.png,0003-00-0009-49.png
00000009,676,1,1445011510166,1445011510218,923,483,0,0,0,4,1,3,41,0005-00-0008-66.png,0004-00-0009-38.png
00000009,677,0,1445011511385,1445011511409,904,436,0,0,0,3,5,2,35,0003-00-0009-59.png,0001-00-0006-20.png
00000009,678,1,1445011514581,1445011515087,1065,304,0,0,0,3,1,2,31,0003-00-0002-23.png,0004-00-0003-19.png
00000009,679,1,1445011516442,1445011517137,907,393,0,0,0,3,2,1,32,0003-00-0006-94.png,0002-00-0005-41.png
00000009,680,0,1445011517999,1445011518039,893,439,0,0,0,1,2,1,12,0004-00-0002-94.png,0002-00-0008-07.png
00000009,681,1,1445011521359,1445011521391,937,330,0,0,0,5,3,2,53,0001-00-0002-17.png,0003-00-0009-56.png
00000009,682,0,1445011522803,1445011522823,863,376,0,0,0,2,4,2,24,0002-00-0002-24.png,0005-00-0007-97.png
00000009,683,1,1445011526020,1445011526716,477,280,0,0,0,2,3,1,23,0002-00-0000-99.png,0003-00-0007-98.png
00000009,684,1,1445011528047,1445011528673,487,250,0,0,0,1,5,4,15,0004-00-0008-48.png,0001-00-0009-68.png
00000009,685,1,1445011529535,1445011530267,927,317,0,0,0,4,1,3,41,0005-00-0003-21.png,0004-00-0001-77.png
00000009,686,1,1445011531177,1445011531205,908,413,0,0,0,4,3,1,43,0005-00-0002-45.png,0003-00-0001-44.png
00000009,687,1,1445011532251,1445011532319,913,462,0,0,0,2,1,1,21,0002-00-0009-43.png,0004-00-0006-64.png
00000009,688,1,1445011534208,1445011534284,939,480,0,0,0,3,2,1,32,0003-00-0006-66.png,0002-00-0006-94.png
00000009,689,0,1445011535292,1445011536139,1183,401,0,0,0,1,4,3,14,0004-00-0006-48.png,0005-00-0002-98.png
00000009,690,0,1445011539344,1445011539383,903,333,0,0,0,3,4,1,34,0003-00-0002-51.png,0005-00-0004-24.png
00000009,691,1,1445011542735,1445011543272,964,422,0,0,0,4,2,2,42,0005-00-0008-66.png,0002-00-0005-58.png
00000009,692,1,1445011544123,1445011544781,1041,297,0,0,0,5,1,4,51,0001-00-0005-61.png,0004-00-0009-67.png
00000009,693,1,1445011546134,1445011546767,473,237,0,0,0,2,5,3,25,0002-00-0005-36.png,0001-00-0002-22.png
00000009,694,0,1445011547600,1445011548379,1067,267,0,0,0,1,2,1,12,0004-00-0006-47.png,0002-00-0007-88.png
00000009,695,1,1445011551227,1445011552313,1055,306,0,0,0,5,4,1,54,0001-00-0009-59.png,0005-00-0003-35.png
00000009,696,0,1445011553237,1445011553447,941,547,0,0,0,4,5,1,45,0005-00-0005-01.png,0001-00-0001-55.png
00000009,697,1,1445011556725,1445011557201,383,388,0,0,0,1,3,2,13,0004-00-0009-14.png,0003-00-0001-02.png
00000009,698,1,1445011558046,1445011558692,1041,268,0,0,0,3,1,2,31,0003-00-0001-50.png,0004-00-0002-76.png
00000009,699,1,1445011559535,1445011559587,894,456,0,0,0,5,2,3,52,0001-00-0008-58.png,0002-00-0003-33.png
00000009,700,0,1445011560701,1445011560777,931,471,0,0,0,3,5,2,35,0003-00-0005-17.png,0001-00-0007-87.png
00000009,701,1,1445011563930,1445011564535,479,267,0,0,0,1,5,4,15,0004-00-0006-62.png,0001-00-0000-08.png
00000009,702,1,1445011565849,1445011566445,1060,273,0,0,0,3,2,1,32,0003-00-0003-60.png,0002-00-0004-59.png
00000009,703,1,1445011567360,1445011567420,875,436,0,0,0,5,1,4,51,0001-00-0003-34.png,0004-00-0001-29.png
00000009,704,0,1445011568512,1445011569516,900,327,0,0,0,1,4,3,14,0004-00-0002-12.png,0005-00-0004-15.png
00000009,705,1,1445011572676,1445011573229,1067,266,0,0,0,4,3,1,43,0005-00-0001-24.png,0003-00-0002-58.png
00000009,706,0,1445011574071,1445011574139,888,499,0,0,0,1,3,2,13,0004-00-0009-75.png,0003-00-0008-85.png
00000009,707,0,1445011577146,1445011577410,960,385,0,0,0,2,4,2,24,0002-00-0008-69.png,0005-00-0002-80.png
00000009,708,1,1445011580368,1445011580420,890,388,0,0,0,4,1,3,41,0005-00-0009-61.png,0004-00-0002-48.png
00000009,709,0,1445011581401,1445011581469,890,520,0,0,0,1,2,1,12,0004-00-0009-44.png,0002-00-0008-06.png
00000009,710,1,1445011584602,1445011585136,490,269,0,0,0,2,5,3,25,0002-00-0004-87.png,0001-00-0005-29.png
00000009,711,1,1445011585980,1445011586044,862,488,0,0,0,2,1,1,21,0002-00-0009-13.png,0004-00-0002-32.png
00000009,712,0,1445011587054,1445011588261,1016,270,0,0,0,4,5,1,45,0005-00-0007-32.png,0001-00-0009-51.png
00000009,713,1,1445011591399,1445011591961,950,372,0,0,0,4,2,2,42,0005-00-0000-16.png,0002-00-0004-30.png
00000009,714,1,1445011593269,1445011593880,1067,288,0,0,0,3,1,2,31,0003-00-0009-97.png,0004-00-0004-70.png
00000009,715,1,1445011594705,1445011594769,917,429,0,0,0,5,2,3,52,0001-00-0003-49.png,0002-00-0001-17.png
00000009,716,0,1445011595752,1445011597052,1026,298,0,0,0,3,5,2,35,0003-00-0005-10.png,0001-00-0001-45.png
00000009,717,1,1445011600052,1445011601063,448,290,0,0,0,3,4,1,34,0003-00-0003-67.png,0005-00-0001-53.png
00000009,718,1,1445011602032,1445011602943,968,326,0,0,0,5,3,2,53,0001-00-0001-22.png,0003-00-0004-32.png
00000009,719,0,1445011603908,1445011603936,913,434,0,0,0,2,3,1,23,0002-00-0006-50.png,0003-00-0003-60.png
00000009,720,1,1445011607199,1445011607733,1092,279,0,0,0,5,4,1,54,0001-00-0002-37.png,0005-00-0003-66.png
00000009,721,1,1445011608574,1445011608626,888,473,0,0,0,4,2,2,42,0005-00-0004-93.png,0002-00-0006-72.png
00000009,722,0,1445011609663,1445011609723,913,436,0,0,0,3,4,1,34,0003-00-0004-01.png,0005-00-0007-82.png
00000009,723,1,1445011612813,1445011613391,965,294,0,0,0,5,4,1,54,0001-00-0001-52.png,0005-00-0005-98.png
00000009,724,0,1445011614231,1445011614271,859,503,0,0,0,1,4,3,14,0004-00-0007-31.png,0005-00-0000-59.png
00000009,725,1,1445011617363,1445011617909,393,397,0,0,0,2,5,3,25,0002-00-0005-85.png,0001-00-0000-23.png
00000009,726,1,1445011618763,1445011619069,991,547,0,0,0,5,2,3,52,0001-00-0007-94.png,0002-00-0000-22.png
00000009,727,1,1445011620117,1445011620193,888,514,0,0,0,5,3,2,53,0001-00-0007-47.png,0003-00-0005-16.png
00000009,728,0,1445011621320,1445011621380,862,462,0,0,0,3,5,2,35,0003-00-0000-68.png,0001-00-0004-43.png
00000009,729,1,1445011624726,1445011625006,964,424,0,0,0,4,3,1,43,0005-00-0006-52.png,0003-00-0007-08.png
00000009,730,1,1445011626000,1445011626650,421,308,0,0,0,1,3,2,13,0004-00-0005-31.png,0003-00-0006-24.png
00000009,731,1,1445011627532,1445011628318,389,374,0,0,0,2,3,1,23,0002-00-0004-11.png,0003-00-0004-31.png
00000009,732,1,1445011629219,1445011629947,490,263,0,0,0,2,4,2,24,0002-00-0001-58.png,0005-00-0006-68.png
00000009,733,1,1445011630930,1445011631014,913,473,0,0,0,4,1,3,41,0005-00-0002-89.png,0004-00-0000-49.png
00000009,734,0,1445011632120,1445011632201,904,514,0,0,0,4,5,1,45,0005-00-0008-32.png,0001-00-0008-39.png
00000009,735,1,1445011635350,1445011635878,922,339,0,0,0,5,1,4,51,0001-00-0003-77.png,0004-00-0009-94.png
00000009,736,1,1445011636738,1445011637713,912,359,0,0,0,3,2,1,32,0003-00-0001-20.png,0002-00-0003-51.png
00000009,737,1,1445011638710,1445011638754,862,462,0,0,0,3,1,2,31,0003-00-0002-82.png,0004-00-0008-01.png
00000009,738,0,1445011639843,1445011639899,888,453,0,0,0,1,2,1,12,0004-00-0008-63.png,0002-00-0007-24.png
00000009,739,1,1445011643072,1445011643637,462,287,0,0,0,1,5,4,15,0004-00-0009-11.png,0001-00-0006-69.png
00000009,740,1,1445011644511,1445011645456,1036,338,0,0,0,2,1,1,21,0002-00-0009-43.png,0004-00-0002-36.png
00000009,741,1,1445011646373,1445011646409,907,473,0,0,0,5,3,2,53,0001-00-0003-06.png,0003-00-0008-94.png
00000009,742,0,1445011647643,1445011647771,913,462,0,0,0,3,5,2,35,0003-00-0008-50.png,0001-00-0005-81.png
00000009,743,0,1445011650893,1445011651528,505,276,0,0,0,4,3,1,43,0005-00-0007-08.png,0003-00-0007-05.png
00000009,744,1,1445011654659,1445011655122,964,395,0,0,0,3,1,2,31,0003-00-0001-72.png,0004-00-0004-70.png
00000009,745,1,1445011655998,1445011656687,914,316,0,0,0,5,4,1,54,0001-00-0009-80.png,0005-00-0006-93.png
00000009,746,1,1445011657598,1445011657678,914,452,0,0,0,4,1,3,41,0005-00-0006-01.png,0004-00-0007-07.png
00000009,747,0,1445011658723,1445011658763,874,462,0,0,0,2,5,3,25,0002-00-0006-16.png,0001-00-0008-12.png
00000009,748,0,1445011661914,1445011662381,937,338,0,0,0,1,2,1,12,0004-00-0006-92.png,0002-00-0000-57.png
00000009,749,1,1445011665259,1445011665846,491,272,0,0,0,4,5,1,45,0005-00-0007-23.png,0001-00-0003-73.png
00000009,750,0,1445011666730,1445011666774,888,488,0,0,0,3,4,1,34,0003-00-0000-27.png,0005-00-0004-88.png
00000009,751,1,1445011669951,1445011670524,965,307,0,0,0,3,2,1,32,0003-00-0005-52.png,0002-00-0009-04.png
00000009,752,0,1445011671391,1445011671447,911,466,0,0,0,1,4,3,14,0004-00-0001-91.png,0005-00-0003-21.png
00000009,753,1,1445011675250,1445011675750,387,389,0,0,0,2,3,1,23,0002-00-0003-93.png,0003-00-0002-19.png
00000009,754,1,1445011676701,1445011677773,912,350,0,0,0,4,2,2,42,0005-00-0000-55.png,0002-00-0008-85.png
00000009,755,1,1445011679314,1445011679430,913,462,0,0,0,2,1,1,21,0002-00-0006-53.png,0004-00-0000-21.png
00000009,756,0,1445011680447,1445011680495,901,466,0,0,0,2,4,2,24,0002-00-0002-25.png,0005-00-0006-65.png
00000009,757,0,1445011683538,1445011683558,862,384,0,0,0,1,3,2,13,0004-00-0009-67.png,0003-00-0005-94.png
00000009,758,1,1445011686488,1445011687152,917,329,0,0,0,5,1,4,51,0001-00-0009-49.png,0004-00-0005-21.png
00000009,759,0,1445011688015,1445011688154,939,526,0,0,0,1,5,4,15,0004-00-0002-91.png,0001-00-0007-68.png
00000009,760,1,1445011691188,1445011691724,1050,305,0,0,0,5,2,3,52,0001-00-0002-97.png,0002-00-0005-92.png
00000009,761,1,1445011693119,1445011693614,990,542,0,0,0,2,1,1,21,0002-00-0000-32.png,0004-00-0009-23.png
00000009,762,0,1445011694628,1445011694676,934,472,0,0,0,1,4,3,14,0004-00-0001-06.png,0005-00-0009-27.png
00000009,763,0,1445011697809,1445011698360,350,368,0,0,0,5,3,2,53,0001-00-0004-60.png,0003-00-0001-90.png
00000009,764,0,1445011701374,1445011701587,876,433,0,0,0,4,5,1,45,0005-00-0009-02.png,0001-00-0003-08.png
00000009,765,1,1445011704772,1445011705299,964,348,0,0,0,5,2,3,52,0001-00-0004-23.png,0002-00-0007-25.png
00000009,766,0,1445011706142,1445011706162,883,490,0,0,0,1,2,1,12,0004-00-0003-29.png,0002-00-0000-99.png
00000009,767,1,1445011709024,1445011709759,420,249,0,0,0,2,3,1,23,0002-00-0007-11.png,0003-00-0006-79.png
00000009,768,0,1445011710624,1445011710656,888,488,0,0,0,1,5,4,15,0004-00-0008-13.png,0001-00-0002-49.png
00000009,769,1,1445011713636,1445011713664,920,357,0,0,0,4,3,1,43,0005-00-0004-61.png,0003-00-0009-53.png
00000009,770,0,1445011714653,1445011715284,492,291,0,0,0,4,1,3,41,0005-00-0005-47.png,0004-00-0006-38.png
00000009,771,0,1445011718496,1445011719060,1016,268,0,0,0,2,5,3,25,0002-00-0005-06.png,0001-00-0004-66.png
00000009,772,1,1445011722155,1445011722682,466,285,0,0,0,2,4,2,24,0002-00-0007-01.png,0005-00-0001-90.png
00000009,773,1,1445011724093,1445011724972,1053,290,0,0,0,3,2,1,32,0003-00-0009-69.png,0002-00-0009-43.png
00000009,774,1,1445011725890,1445011726672,886,400,0,0,0,3,1,2,31,0003-00-0007-94.png,0004-00-0000-44.png
00000009,775,1,1445011727621,1445011727721,943,456,0,0,0,5,4,1,54,0001-00-0006-04.png,0005-00-0000-69.png
00000009,776,0,1445011728901,1445011728980,929,472,0,0,0,3,5,2,35,0003-00-0008-51.png,0001-00-0002-49.png
00000009,777,1,1445011732162,1445011732685,397,414,0,0,0,1,3,2,13,0004-00-0002-63.png,0003-00-0004-90.png
00000009,778,1,1445011733506,1445011734230,1029,291,0,0,0,5,1,4,51,0001-00-0008-49.png,0004-00-0001-21.png
00000009,779,0,1445011735190,1445011735931,463,341,0,0,0,4,2,2,42,0005-00-0003-86.png,0002-00-0005-51.png
00000009,780,0,1445011738806,1445011739333,1048,339,0,0,0,3,4,1,34,0003-00-0006-05.png,0005-00-0008-07.png
00000009,781,1,1445011742317,1445011742829,1080,279,0,0,0,3,2,1,32,0003-00-0007-64.png,0002-00-0004-75.png
00000009,782,1,1445011743749,1445011744406,467,265,0,0,0,1,3,2,13,0004-00-0004-22.png,0003-00-0004-11.png
00000009,783,1,1445011745253,1445011745297,888,436,0,0,0,4,3,1,43,0005-00-0007-02.png,0003-00-0008-52.png
00000009,784,1,1445011746452,1445011746528,910,437,0,0,0,5,2,3,52,0001-00-0004-65.png,0002-00-0000-55.png
00000009,785,1,1445011747812,1445011747898,898,462,0,0,0,4,2,2,42,0005-00-0007-05.png,0002-00-0007-56.png
00000009,786,0,1445011748973,1445011749021,913,425,0,0,0,1,5,4,15,0004-00-0008-20.png,0001-00-0006-42.png
00000009,787,1,1445011752362,1445011752847,350,372,0,0,0,1,2,1,12,0004-00-0000-05.png,0002-00-0003-53.png
00000009,788,1,1445011753679,1445011753724,892,440,0,0,0,4,1,3,41,0005-00-0007-05.png,0004-00-0004-62.png
00000009,789,0,1445011754709,1445011754749,865,438,0,0,0,2,4,2,24,0002-00-0008-72.png,0005-00-0005-42.png
00000009,790,0,1445011757652,1445011758102,938,306,0,0,0,3,5,2,35,0003-00-0000-83.png,0001-00-0008-96.png
00000009,791,1,1445011761219,1445011761255,888,358,0,0,0,2,1,1,21,0002-00-0002-87.png,0004-00-0008-42.png
00000009,792,1,1445011762247,1445011762348,887,488,0,0,0,3,1,2,31,0003-00-0002-25.png,0004-00-0003-05.png
00000009,793,0,1445011763356,1445011764122,469,275,0,0,0,5,3,2,53,0001-00-0005-26.png,0003-00-0001-92.png
00000009,794,1,1445011767202,1445011767670,376,408,0,0,0,2,3,1,23,0002-00-0001-04.png,0003-00-0002-86.png
00000009,795,0,1445011768540,1445011768580,898,462,0,0,0,2,5,3,25,0002-00-0006-97.png,0001-00-0002-32.png
00000009,796,0,1445011771652,1445011772136,909,340,0,0,0,3,4,1,34,0003-00-0002-79.png,0005-00-0005-11.png
00000009,797,0,1445011775223,1445011775718,1092,306,0,0,0,4,5,1,45,0005-00-0007-88.png,0001-00-0000-57.png
00000009,798,1,1445011778719,1445011779215,962,328,0,0,0,5,1,4,51,0001-00-0009-70.png,0004-00-0007-16.png
00000009,799,0,1445011780069,1445011780141,862,462,0,0,0,1,4,3,14,0004-00-0003-39.png,0005-00-0006-25.png
00000009,800,0,1445011783282,1445011784000,474,274,0,0,0,5,4,1,54,0001-00-0000-58.png,0005-00-0007-63.png
00000009,801,1,1445011787074,1445011787591,931,303,0,0,0,4,2,2,42,0005-00-0007-15.png,0002-00-0003-40.png
00000009,802,1,1445011788463,1445011788507,888,474,0,0,0,2,1,1,21,0002-00-0008-36.png,0004-00-0007-19.png
00000009,803,1,1445011789588,1445011789616,889,416,0,0,0,3,2,1,32,0003-00-0000-49.png,0002-00-0005-85.png
00000009,804,1,1445011790714,1445011791395,896,388,0,0,0,4,1,3,41,0005-00-0000-28.png,0004-00-0008-20.png
00000009,805,1,1445011792360,1445011792388,913,447,0,0,0,4,3,1,43,0005-00-0004-41.png,0003-00-0003-31.png
00000009,806,0,1445011793454,1445011793502,886,423,0,0,0,4,5,1,45,0005-00-0006-32.png,0001-00-0007-88.png
00000009,807,0,1445011796427,1445011796991,891,333,0,0,0,3,4,1,34,0003-00-0007-16.png,0005-00-0003-97.png
00000009,808,1,1445011799963,1445011800719,925,384,0,0,0,5,1,4,51,0001-00-0001-77.png,0004-00-0007-69.png
00000009,809,0,1445011801655,1445011801679,866,468,0,0,0,1,3,2,13,0004-00-0002-92.png,0003-00-0002-64.png
00000009,810,1,1445011804685,1445011805244,939,307,0,0,0,5,3,2,53,0001-00-0002-39.png,0003-00-0005-34.png
00000009,811,1,1445011806167,1445011807376,465,265,0,0,0,3,5,2,35,0003-00-0001-81.png,0001-00-0005-17.png
00000009,812,0,1445011808293,1445011808349,885,486,0,0,0,2,3,1,23,0002-00-0005-12.png,0003-00-0001-46.png
00000009,813,1,1445011811313,1445011811808,472,295,0,0,0,2,4,2,24,0002-00-0004-01.png,0005-00-0001-56.png
00000009,814,0,1445011812723,1445011812909,949,528,0,0,0,1,2,1,12,0004-00-0002-61.png,0002-00-0002-08.png
00000009,815,1,1445011816193,1445011816759,469,287,0,0,0,1,4,3,14,0004-00-0002-80.png,0005-00-0004-84.png
00000009,816,1,1445011818141,1445011818784,471,254,0,0,0,1,5,4,15,0004-00-0001-84.png,0001-00-0009-47.png
00000009,817,0,1445011819670,1445011819736,918,440,0,0,0,2,5,3,25,0002-00-0004-38.png,0001-00-0001-04.png
00000009,818,1,1445011822930,1445011823410,946,322,0,0,0,3,1,2,31,0003-00-0006-22.png,0004-00-0008-04.png
00000009,819,1,1445011824266,1445011824302,883,491,0,0,0,5,4,1,54,0001-00-0006-67.png,0005-00-0001-46.png
00000009,820,1,1445011825325,1445011825401,903,436,0,0,0,5,2,3,52,0001-00-0008-97.png,0002-00-0005-76.png
00000009,821,1,1445011826386,1445011826462,904,462,0,0,0,3,1,2,31,0003-00-0007-26.png,0004-00-0000-21.png
00000009,822,0,1445011827726,1445011827791,920,495,0,0,0,1,5,4,15,0004-00-0002-59.png,0001-00-0000-95.png
00000009,823,0,1445011830811,1445011831378,1080,318,0,0,0,3,4,1,34,0003-00-0009-73.png,0005-00-0008-93.png
00000009,824,0,1445011834326,1445011835548,941,296,0,0,0,3,5,2,35,0003-00-0002-57.png,0001-00-0003-31.png
00000009,825,1,1445011839051,1445011839636,467,307,0,0,0,1,4,3,14,0004-00-0007-99.png,0005-00-0007-98.png
00000009,826,1,1445011840487,1445011841360,915,333,0,0,0,5,4,1,54,0001-00-0008-65.png,0005-00-0009-15.png
00000009,827,0,1445011842257,1445011842297,913,436,0,0,0,1,3,2,13,0004-00-0004-71.png,0003-00-0004-60.png
00000009,828,1,1445011845250,1445011845773,350,348,0,0,0,2,5,3,25,0002-00-0003-89.png,0001-00-0005-03.png
00000009,829,1,1445011847109,1445011847633,941,321,0,0,0,2,1,1,21,0002-00-0006-55.png,0004-00-0003-77.png
00000009,830,1,1445011849114,1445011849253,913,488,0,0,0,4,2,2,42,0005-00-0005-34.png,0002-00-0006-76.png
00000009,831,0,1445011850407,1445011850467,890,452,0,0,0,4,5,1,45,0005-00-0002-74.png,0001-00-0008-46.png
00000009,832,1,1445011853536,1445011854154,436,287,0,0,0,2,4,2,24,0002-00-0000-76.png,0005-00-0004-22.png
00000009,833,1,1445011855484,1445011856032,996,273,0,0,0,4,1,3,41,0005-00-0000-53.png,0004-00-0003-17.png
00000009,834,1,1445011856925,1445011857800,989,394,0,0,0,3,2,1,32,0003-00-0008-00.png,0002-00-0005-22.png
00000009,835,0,1445011859431,1445011859589,945,492,0,0,0,1,2,1,12,0004-00-0005-70.png,0002-00-0002-05.png
00000009,836,1,1445011862711,1445011863217,916,332,0,0,0,5,1,4,51,0001-00-0000-87.png,0004-00-0005-87.png
00000009,837,1,1445011864688,1445011865849,921,383,0,0,0,5,3,2,53,0001-00-0005-29.png,0003-00-0007-07.png
00000009,838,0,1445011866795,1445011866831,862,495,0,0,0,2,3,1,23,0002-00-0001-02.png,0003-00-0000-50.png
00000009,839,0,1445011869973,1445011870796,455,279,0,0,0,4,3,1,43,0005-00-0006-01.png,0003-00-0005-42.png
00000009,840,1,1445011875580,1445011876123,1111,294,0,0,0,5,2,3,52,0001-00-0009-62.png,0002-00-0009-39.png
00000009,841,1,1445011877460,1445011878087,497,268,0,0,0,1,2,1,12,0004-00-0008-64.png,0002-00-0007-16.png
00000009,842,0,1445011879475,1445011880240,515,240,0,0,0,5,3,2,53,0001-00-0001-89.png,0003-00-0005-23.png
00000009,843,1,1445011884154,1445011884804,1067,306,0,0,0,4,3,1,43,0005-00-0006-44.png,0003-00-0002-69.png
00000009,844,1,1445011886169,1445011886816,497,267,0,0,0,1,5,4,15,0004-00-0001-56.png,0001-00-0005-47.png
00000009,845,0,1445011888177,1445011888348,913,488,0,0,0,2,4,2,24,0002-00-0007-12.png,0005-00-0005-31.png
00000009,846,1,1445011891230,1445011891983,479,275,0,0,0,3,5,2,35,0003-00-0003-84.png,0001-00-0001-27.png
00000009,847,1,1445011893415,1445011894028,937,321,0,0,0,4,2,2,42,0005-00-0008-38.png,0002-00-0004-69.png
00000009,848,1,1445011894936,1445011894984,915,452,0,0,0,2,1,1,21,0002-00-0008-97.png,0004-00-0002-73.png
00000009,849,1,1445011896287,1445011896371,960,536,0,0,0,5,1,4,51,0001-00-0009-61.png,0004-00-0001-55.png
00000009,850,1,1445011897679,1445011897775,932,450,0,0,0,3,1,2,31,0003-00-0000-36.png,0004-00-0005-64.png
00000009,851,0,1445011899071,1445011899139,931,498,0,0,0,1,4,3,14,0004-00-0009-48.png,0005-00-0002-96.png
00000009,852,1,1445011902517,1445011903024,413,384,0,0,0,2,3,1,23,0002-00-0006-55.png,0003-00-0002-81.png
00000009,853,0,1445011904018,1445011904054,888,462,0,0,0,1,3,2,13,0004-00-0007-83.png,0003-00-0000-78.png
00000009,854,1,1445011907198,1445011907717,964,402,0,0,0,4,1,3,41,0005-00-0007-39.png,0004-00-0000-62.png
00000009,855,0,1445011908608,1445011908684,911,537,0,0,0,3,4,1,34,0003-00-0006-72.png,0005-00-0001-14.png
00000009,856,1,1445011911889,1445011912458,478,265,0,0,0,2,5,3,25,0002-00-0002-07.png,0001-00-0007-09.png
00000009,857,0,1445011913347,1445011913407,890,459,0,0,0,4,5,1,45,0005-00-0003-54.png,0001-00-0004-33.png
00000009,858,1,1445011916535,1445011917044,1080,310,0,0,0,3,2,1,32,0003-00-0002-72.png,0002-00-0004-52.png
00000009,859,1,1445011918484,1445011919078,1041,306,0,0,0,5,2,3,52,0001-00-0009-67.png,0002-00-0004-33.png
00000009,860,1,1445011919996,1445011920048,942,406,0,0,0,5,4,1,54,0001-00-0001-59.png,0005-00-0004-20.png
00000009,861,1,1445011921172,1445011921208,937,504,0,0,0,5,3,2,53,0001-00-0005-16.png,0003-00-0004-46.png
00000009,862,0,1445011922404,1445011922487,913,471,0,0,0,1,2,1,12,0004-00-0006-14.png,0002-00-0007-71.png
00000009,863,1,1445011925549,1445011926040,501,278,0,0,0,1,4,3,14,0004-00-0008-48.png,0005-00-0008-69.png
00000009,864,1,1445011926989,1445011927170,912,512,0,0,0,4,1,3,41,0005-00-0009-87.png,0004-00-0000-04.png
00000009,865,1,1445011928281,1445011928313,915,465,0,0,0,2,1,1,21,0002-00-0001-65.png,0004-00-0006-29.png
00000009,866,1,1445011929464,1445011930249,1030,357,0,0,0,3,1,2,31,0003-00-0008-47.png,0004-00-0005-91.png
00000009,867,0,1445011931203,1445011932288,1055,292,0,0,0,1,5,4,15,0004-00-0009-54.png,0001-00-0000-24.png
00000009,868,1,1445011935536,1445011936073,469,311,0,0,0,2,5,3,25,0002-00-0006-63.png,0001-00-0006-64.png
00000009,869,0,1445011936977,1445011937033,886,464,0,0,0,2,3,1,23,0002-00-0007-15.png,0003-00-0007-80.png
00000009,870,1,1445011940265,1445011940784,936,305,0,0,0,4,2,2,42,0005-00-0003-41.png,0002-00-0004-32.png
00000009,871,0,1445011942103,1445011943131,911,338,0,0,0,4,5,1,45,0005-00-0006-39.png,0001-00-0009-49.png
00000009,872,1,1445011947065,1445011947573,942,374,0,0,0,5,1,4,51,0001-00-0007-61.png,0004-00-0001-34.png
00000009,873,1,1445011948890,1445011949463,515,245,0,0,0,1,3,2,13,0004-00-0008-59.png,0003-00-0004-21.png
00000009,874,1,1445011950319,1445011950363,869,459,0,0,0,4,3,1,43,0005-00-0005-15.png,0003-00-0006-47.png
00000009,875,0,1445011951458,1445011951534,913,462,0,0,0,3,4,1,34,0003-00-0001-80.png,0005-00-0008-03.png
00000009,876,1,1445011954425,1445011955259,492,260,0,0,0,3,5,2,35,0003-00-0003-66.png,0001-00-0005-41.png
00000009,877,1,1445011956733,1445011957302,1024,262,0,0,0,5,4,1,54,0001-00-0007-07.png,0005-00-0005-61.png
00000009,878,1,1445011958443,1445011958527,913,476,0,0,0,5,2,3,52,0001-00-0009-10.png,0002-00-0001-67.png
00000009,879,1,1445011959562,1445011959582,893,460,0,0,0,3,2,1,32,0003-00-0003-56.png,0002-00-0000-38.png
00000009,880,0,1445011960775,1445011960851,888,473,0,0,0,2,4,2,24,0002-00-0007-17.png,0005-00-0003-31.png
00000009,881,1,1445011964013,1445011964296,927,344,0,0,0,5,1,4,51,0001-00-0000-54.png,0004-00-0000-19.png
00000009,882,1,1445011965762,1445011966347,910,345,0,0,0,2,1,1,21,0002-00-0008-41.png,0004-00-0004-29.png
00000009,883,0,1445011967241,1445011967265,892,442,0,0,0,1,3,2,13,0004-00-0001-01.png,0003-00-0005-38.png
00000009,884,0,1445011970342,1445011971193,946,418,0,0,0,1,2,1,12,0004-00-0001-54.png,0002-00-0000-74.png
00000009,885,0,1445011974087,1445011974573,916,328,0,0,0,3,5,2,35,0003-00-0001-48.png,0001-00-0006-31.png
00000009,886,1,1445011977727,1445011978251,922,311,0,0,0,4,2,2,42,0005-00-0003-64.png,0002-00-0009-53.png
00000009,887,1,1445011979119,1445011979147,887,484,0,0,0,4,1,3,41,0005-00-0000-04.png,0004-00-0006-95.png
00000009,888,0,1445011980174,1445011980269,888,462,0,0,0,1,5,4,15,0004-00-0001-36.png,0001-00-0001-10.png
00000009,889,1,1445011983173,1445011983724,504,306,0,0,0,2,5,3,25,0002-00-0000-76.png,0001-00-0007-45.png
00000009,890,1,1445011985093,1445011985629,1055,279,0,0,0,3,1,2,31,0003-00-0005-30.png,0004-00-0001-02.png
00000009,891,1,1445011986527,1445011987397,1003,382,0,0,0,5,2,3,52,0001-00-0009-19.png,0002-00-0000-40.png
00000009,892,0,1445011988419,1445011988495,936,487,0,0,0,1,4,3,14,0004-00-0004-20.png,0005-00-0009-20.png
00000009,893,0,1445011991624,1445011992151,463,279,0,0,0,5,3,2,53,0001-00-0002-17.png,0003-00-0003-65.png
00000009,894,0,1445011995387,1445011995912,382,376,0,0,0,4,3,1,43,0005-00-0007-06.png,0003-00-0005-07.png
00000009,895,0,1445011999592,1445012000105,1065,302,0,0,0,3,4,1,34,0003-00-0009-53.png,0005-00-0009-66.png
00000009,896,1,1445012003135,1445012003684,457,324,0,0,0,4,5,1,45,0005-00-0003-38.png,0001-00-0006-78.png
00000009,897,0,1445012004660,1445012004787,938,484,0,0,0,2,4,2,24,0002-00-0001-78.png,0005-00-0007-73.png
00000009,898,1,1445012007660,1445012008223,485,285,0,0,0,2,3,1,23,0002-00-0004-44.png,0003-00-0004-42.png
00000009,899,1,1445012009158,1445012009218,888,477,0,0,0,3,2,1,32,0003-00-0000-00.png,0002-00-0002-92.png
00000009,900,1,1445012010211,1445012010334,939,488,0,0,0,5,4,1,54,0001-00-0005-83.png,0005-00-0002-35.png
00000009,901,0,1445012011481,1445012011527,924,501,0,0,0,1,2,1,12,0004-00-0000-74.png,0002-00-0005-52.png
00000009,902,1,1445012031025,1445012031588,966,334,0,0,0,3,2,1,32,0003-00-0003-07.png,0002-00-0006-90.png
00000009,903,1,1445012033301,1445012033854,520,268,0,0,0,1,4,3,14,0004-00-0003-40.png,0005-00-0005-33.png
00000009,904,1,1445012034930,1445012035480,1019,414,0,0,0,2,1,1,21,0002-00-0006-48.png,0004-00-0004-23.png
00000009,905,0,1445012036501,1445012036686,995,520,0,0,0,3,5,2,35,0003-00-0002-19.png,0001-00-0000-50.png
00000009,906,1,1445012039738,1445012040421,384,409,0,0,0,1,3,2,13,0004-00-0001-48.png,0003-00-0005-73.png
00000009,907,0,1445012041459,1445012041507,896,492,0,0,0,4,5,1,45,0005-00-0002-71.png,0001-00-0001-97.png
00000009,908,1,1445012044651,1445012045185,936,328,0,0,0,5,1,4,51,0001-00-0001-19.png,0004-00-0004-37.png
00000009,909,1,1445012046200,1445012046256,932,496,0,0,0,4,3,1,43,0005-00-0008-90.png,0003-00-0005-71.png
00000009,910,1,1445012047264,1445012047344,904,462,0,0,0,5,2,3,52,0001-00-0003-14.png,0002-00-0004-31.png
00000009,911,1,1445012049192,1445012050020,1054,306,0,0,0,5,3,2,53,0001-00-0007-69.png,0003-00-0005-58.png
00000009,912,1,1445012051080,1445012051108,900,488,0,0,0,3,1,2,31,0003-00-0001-16.png,0004-00-0005-52.png
00000009,913,0,1445012052220,1445012052306,981,490,0,0,0,2,3,1,23,0002-00-0005-14.png,0003-00-0000-87.png
00000009,914,1,1445012057051,1445012057625,943,273,0,0,0,4,2,2,42,0005-00-0001-46.png,0002-00-0005-56.png
00000009,915,1,1445012059710,1445012060242,396,387,0,0,0,2,5,3,25,0002-00-0006-15.png,0001-00-0005-42.png
00000009,916,1,1445012061930,1445012062583,456,272,0,0,0,1,5,4,15,0004-00-0006-68.png,0001-00-0002-55.png
00000009,917,1,1445012063651,1445012064395,481,249,0,0,0,2,4,2,24,0002-00-0004-33.png,0005-00-0003-47.png
00000009,918,1,1445012065469,1445012065497,871,481,0,0,0,5,4,1,54,0001-00-0002-08.png,0005-00-0002-20.png
00000009,919,0,1445012066591,1445012066631,889,445,0,0,0,3,4,1,34,0003-00-0000-08.png,0005-00-0007-93.png
00000009,920,1,1445012069811,1445012070312,955,335,0,0,0,4,1,3,41,0005-00-0009-07.png,0004-00-0008-03.png
00000009,921,1,1445012071777,1445012072381,954,332,0,0,0,2,1,1,21,0002-00-0004-27.png,0004-00-0009-12.png
00000009,922,0,1445012073366,1445012073434,947,532,0,0,0,1,3,2,13,0004-00-0007-30.png,0003-00-0004-74.png
00000009,923,1,1445012078314,1445012078940,949,283,0,0,0,5,1,4,51,0001-00-0003-77.png,0004-00-0002-26.png
00000009,924,1,1445012080305,1445012080987,942,322,0,0,0,4,1,3,41,0005-00-0008-61.png,0004-00-0006-61.png
00000009,925,0,1445012082496,1445012083371,476,270,0,0,0,3,2,1,32,0003-00-0002-78.png,0002-00-0002-64.png
00000009,926,1,1445012086600,1445012087198,478,279,0,0,0,2,4,2,24,0002-00-0006-32.png,0005-00-0006-45.png
00000009,927,1,1445012088202,1445012088885,956,417,0,0,0,5,3,2,53,0001-00-0000-18.png,0003-00-0002-58.png
00000009,928,1,1445012089922,1445012089999,932,468,0,0,0,5,2,3,52,0001-00-0004-69.png,0002-00-0003-52.png
00000009,929,0,1445012091144,1445012091408,938,516,0,0,0,4,5,1,45,0005-00-0008-13.png,0001-00-0006-07.png
00000009,930,1,1445012094533,1445012095201,990,366,0,0,0,5,4,1,54,0001-00-0003-94.png,0005-00-0008-30.png
00000009,931,1,1445012096939,1445012097482,385,324,0,0,0,1,4,3,14,0004-00-0009-01.png,0005-00-0001-18.png
00000009,932,1,1445012098536,1445012098600,920,455,0,0,0,4,3,1,43,0005-00-0005-46.png,0003-00-0007-92.png
00000009,933,0,1445012100326,1445012101084,917,400,0,0,0,3,5,2,35,0003-00-0008-65.png,0001-00-0005-25.png
00000009,934,1,1445012103973,1445012104576,501,305,0,0,0,1,5,4,15,0004-00-0008-78.png,0001-00-0006-42.png
00000009,935,1,1445012105591,1445012106434,488,273,0,0,0,2,3,1,23,0002-00-0003-97.png,0003-00-0004-20.png
00000009,936,0,1445012107471,1445012107531,913,488,0,0,0,2,5,3,25,0002-00-0008-53.png,0001-00-0005-42.png
00000009,937,0,1445012110630,1445012111175,951,354,0,0,0,3,4,1,34,0003-00-0002-41.png,0005-00-0005-88.png
00000009,938,1,1445012114796,1445012114856,896,402,0,0,0,3,1,2,31,0003-00-0008-72.png,0004-00-0000-35.png
00000009,939,1,1445012116195,1445012116439,865,427,0,0,0,4,2,2,42,0005-00-0008-43.png,0002-00-0001-91.png
00000009,940,0,1445012117594,1445012117646,917,464,0,0,0,1,2,1,12,0004-00-0009-55.png,0002-00-0006-03.png
00000009,941,0,1445012121213,1445012121968,990,436,0,0,0,3,4,1,34,0003-00-0009-78.png,0005-00-0002-00.png
