subject_id,trial,correct_response,stim_time,response_time,x_coord,y_coord,trial_timeout,timeout_time,interTrial_timeout,left_rank,right_rank,distance,joint_rank,left_image,right_image
00000014,1,1,1445624676015,1445624676627,992,474,0,0,0,3,2,1,32,0003-00-0003-58.png,0002-00-0002-05.png
00000014,2,0,1445624677639,1445624678084,913,384,0,0,0,1,4,3,14,0004-00-0007-18.png,0005-00-0005-57.png
00000014,3,0,1445624681001,1445624681456,441,469,0,0,0,5,3,2,53,0001-00-0002-08.png,0003-00-0001-47.png
00000014,4,1,1445624684596,1445624684956,371,488,0,0,0,2,3,1,23,0002-00-0001-64.png,0003-00-0000-51.png
00000014,5,1,1445624685800,1445624686169,350,350,0,0,0,1,2,1,12,0004-00-0008-59.png,0002-00-0001-31.png
00000014,6,1,1445624687042,1445624687507,282,400,0,0,0,2,4,2,24,0002-00-0009-58.png,0005-00-0004-00.png
00000014,7,0,1445624688401,1445624688872,952,446,0,0,0,4,5,1,45,0005-00-0008-59.png,0001-00-0009-63.png
00000014,8,0,1445624691863,1445624692245,361,536,0,0,0,4,1,3,41,0005-00-0006-46.png,0004-00-0004-89.png
00000014,9,1,1445624695621,1445624696035,394,374,0,0,0,1,3,2,13,0004-00-0002-51.png,0003-00-0006-19.png
00000014,10,1,1445624696892,1445624697362,962,546,0,0,0,4,2,2,42,0005-00-0005-51.png,0002-00-0001-86.png
00000014,11,1,1445624698261,1445624698706,980,410,0,0,0,5,2,3,52,0001-00-0006-56.png,0002-00-0006-90.png
00000014,12,1,1445624699641,1445624700063,382,512,0,0,0,3,4,1,34,0003-00-0008-28.png,0005-00-0000-61.png
00000014,13,1,1445624701344,1445624701694,332,401,0,0,0,2,5,3,25,0002-00-0007-43.png,0001-00-0003-53.png
00000014,14,0,1445624702766,1445624703186,364,423,0,0,0,3,1,2,31,0003-00-0006-20.png,0004-00-0007-70.png
00000014,15,0,1445624706201,1445624706581,365,455,0,0,0,4,3,1,43,0005-00-0004-45.png,0003-00-0000-47.png
00000014,16,0,1445624709624,1445624710022,401,443,0,0,0,5,4,1,54,0001-00-0002-50.png,0005-00-0000-63.png
00000014,17,1,1445624712883,1445624713263,427,332,0,0,0,1,5,4,15,0004-00-0007-91.png,0001-00-0008-55.png
00000014,18,0,1445624714232,1445624714638,359,428,0,0,0,2,1,1,21,0002-00-0002-56.png,0004-00-0001-59.png
00000014,19,1,1445624717723,1445624718143,870,387,0,0,0,5,1,4,51,0001-00-0002-75.png,0004-00-0008-23.png
00000014,20,0,1445624719352,1445624719791,925,475,0,0,0,3,5,2,35,0003-00-0008-10.png,0001-00-0007-08.png
00000014,21,0,1445624722869,1445624723340,904,453,0,0,0,1,4,3,14,0004-00-0009-23.png,0005-00-0004-34.png
00000014,22,1,1445624726337,1445624726773,857,430,0,0,0,2,1,1,21,0002-00-0003-37.png,0004-00-0007-41.png
00000014,23,0,1445624727648,1445624728080,427,423,0,0,0,5,3,2,53,0001-00-0006-98.png,0003-00-0004-17.png
00000014,24,0,1445624731628,1445624737734,457,511,0,0,0,4,3,1,43,0005-00-0009-73.png,0003-00-0001-78.png
00000014,25,1,1445624741099,1445624741517,979,446,0,0,0,5,1,4,51,0001-00-0005-63.png,0004-00-0000-38.png
00000014,26,1,1445624742689,1445624743133,946,453,0,0,0,4,2,2,42,0005-00-0007-23.png,0002-00-0000-02.png
00000014,27,1,1445624744017,1445624744480,341,438,0,0,0,2,3,1,23,0002-00-0004-38.png,0003-00-0007-83.png
00000014,28,1,1445624745368,1445624745820,311,424,0,0,0,1,2,1,12,0004-00-0007-87.png,0002-00-0008-95.png
00000014,29,1,1445624746737,1445624747236,901,436,0,0,0,5,4,1,54,0001-00-0009-32.png,0005-00-0003-55.png
00000014,30,1,1445624748142,1445624748638,882,365,0,0,0,4,1,3,41,0005-00-0003-71.png,0004-00-0008-83.png
00000014,31,1,1445624749513,1445624749989,939,436,0,0,0,3,2,1,32,0003-00-0007-45.png,0002-00-0005-00.png
00000014,32,1,1445624751676,1445624752082,318,425,0,0,0,2,4,2,24,0002-00-0004-34.png,0005-00-0004-06.png
00000014,33,0,1445624753018,1445624753548,884,425,0,0,0,4,5,1,45,0005-00-0005-66.png,0001-00-0002-48.png
00000014,34,1,1445624756380,1445624756873,870,471,0,0,0,3,1,2,31,0003-00-0002-49.png,0004-00-0000-66.png
00000014,35,1,1445624757782,1445624758269,299,452,0,0,0,1,5,4,15,0004-00-0006-98.png,0001-00-0007-70.png
00000014,36,0,1445624759163,1445624759657,900,515,0,0,0,3,5,2,35,0003-00-0003-55.png,0001-00-0007-40.png
00000014,37,0,1445624763521,1445624763949,933,446,0,0,0,3,4,1,34,0003-00-0000-22.png,0005-00-0007-78.png
00000014,38,1,1445624767125,1445624767531,339,495,0,0,0,1,3,2,13,0004-00-0001-02.png,0003-00-0008-40.png
00000014,39,0,1445624768714,1445624769092,401,411,0,0,0,5,2,3,52,0001-00-0000-36.png,0002-00-0001-33.png
00000014,40,1,1445624772004,1445624772068,516,495,0,0,0,2,5,3,25,0002-00-0007-36.png,0001-00-0003-11.png
00000014,41,1,1445624773215,1445624773652,954,417,0,0,0,4,1,3,41,0005-00-0002-65.png,0004-00-0004-52.png
00000014,42,1,1445624774819,1445624775340,858,403,0,0,0,5,3,2,53,0001-00-0006-93.png,0003-00-0003-16.png
00000014,43,0,1445624776173,1445624776668,896,498,0,0,0,1,2,1,12,0004-00-0003-58.png,0002-00-0000-07.png
00000014,44,1,1445624779939,1445624780372,246,364,0,0,0,2,4,2,24,0002-00-0007-92.png,0005-00-0002-70.png
00000014,45,1,1445624781547,1445624782009,875,389,0,0,0,3,2,1,32,0003-00-0009-02.png,0002-00-0000-61.png
00000014,46,1,1445624783204,1445624783623,314,414,0,0,0,3,4,1,34,0003-00-0004-79.png,0005-00-0009-09.png
00000014,47,1,1445624784492,1445624784969,882,489,0,0,0,4,2,2,42,0005-00-0000-68.png,0002-00-0002-20.png
00000014,48,0,1445624785888,1445624786461,474,392,0,0,0,4,3,1,43,0005-00-0006-71.png,0003-00-0000-05.png
00000014,49,1,1445624789806,1445624790197,896,342,0,0,0,3,1,2,31,0003-00-0009-27.png,0004-00-0001-28.png
00000014,50,1,1445624791064,1445624791507,360,521,0,0,0,4,5,1,45,0005-00-0008-03.png,0001-00-0004-14.png
00000014,51,1,1445624792354,1445624792799,365,508,0,0,0,1,5,4,15,0004-00-0007-74.png,0001-00-0002-34.png
00000014,52,1,1445624793976,1445624794453,912,450,0,0,0,5,4,1,54,0001-00-0004-31.png,0005-00-0003-18.png
00000014,53,1,1445624795369,1445624795951,867,491,0,0,0,2,1,1,21,0002-00-0003-01.png,0004-00-0007-29.png
00000014,54,1,1445624796808,1445624797239,420,427,0,0,0,2,3,1,23,0002-00-0002-78.png,0003-00-0006-21.png
00000014,55,0,1445624798068,1445624798641,887,398,0,0,0,3,5,2,35,0003-00-0007-96.png,0001-00-0007-13.png
00000014,56,1,1445624801595,1445624802022,293,368,0,0,0,1,4,3,14,0004-00-0009-08.png,0005-00-0005-85.png
00000014,57,1,1445624803198,1445624803621,894,482,0,0,0,5,1,4,51,0001-00-0000-52.png,0004-00-0001-30.png
00000014,58,1,1445624804478,1445624804946,415,409,0,0,0,1,3,2,13,0004-00-0007-20.png,0003-00-0000-30.png
00000014,59,0,1445624805799,1445624806223,419,479,0,0,0,5,2,3,52,0001-00-0009-33.png,0002-00-0009-02.png
00000014,60,1,1445624809310,1445624809716,398,455,0,0,0,2,5,3,25,0002-00-0004-72.png,0001-00-0003-03.png
00000014,61,1,1445624810900,1445624811315,951,360,0,0,0,5,1,4,51,0001-00-0004-11.png,0004-00-0001-26.png
00000014,62,1,1445624812181,1445624812705,875,371,0,0,0,4,1,3,41,0005-00-0001-10.png,0004-00-0007-03.png
00000014,63,0,1445624813537,1445624814059,889,423,0,0,0,3,4,1,34,0003-00-0004-08.png,0005-00-0003-67.png
00000014,64,1,1445624818185,1445624818617,925,489,0,0,0,3,2,1,32,0003-00-0007-07.png,0002-00-0009-56.png
00000014,65,0,1445624819531,1445624820012,421,513,0,0,0,5,3,2,53,0001-00-0005-10.png,0003-00-0008-23.png
00000014,66,1,1445624823175,1445624823657,414,528,0,0,0,1,5,4,15,0004-00-0000-36.png,0001-00-0001-86.png
00000014,67,1,1445624824543,1445624824961,388,514,0,0,0,2,3,1,23,0002-00-0004-68.png,0003-00-0007-49.png
00000014,68,1,1445624825811,1445624826333,908,490,0,0,0,4,2,2,42,0005-00-0001-29.png,0002-00-0003-05.png
00000014,69,1,1445624827546,1445624827962,952,385,0,0,0,5,2,3,52,0001-00-0001-48.png,0002-00-0004-71.png
00000014,70,1,1445624828845,1445624829351,349,449,0,0,0,2,5,3,25,0002-00-0006-72.png,0001-00-0000-72.png
00000014,71,0,1445624830237,1445624830724,427,449,0,0,0,5,4,1,54,0001-00-0009-77.png,0005-00-0007-76.png
00000014,72,0,1445624834275,1445624834731,897,542,0,0,0,3,5,2,35,0003-00-0006-98.png,0001-00-0000-08.png
00000014,73,1,1445624837822,1445624838215,386,371,0,0,0,1,3,2,13,0004-00-0009-88.png,0003-00-0003-36.png
00000014,74,1,1445624839431,1445624839839,941,397,0,0,0,4,3,1,43,0005-00-0001-92.png,0003-00-0007-88.png
00000014,75,0,1445624840702,1445624841728,888,332,0,0,0,2,4,2,24,0002-00-0006-81.png,0005-00-0001-66.png
00000014,76,0,1445624844650,1445624845135,900,506,0,0,0,1,2,1,12,0004-00-0004-01.png,0002-00-0007-44.png
00000014,77,1,1445624848484,1445624848888,940,442,0,0,0,3,1,2,31,0003-00-0002-48.png,0004-00-0007-94.png
00000014,78,1,1445624850033,1445624850507,896,471,0,0,0,2,1,1,21,0002-00-0007-34.png,0004-00-0006-40.png
00000014,79,1,1445624851432,1445624851871,401,410,0,0,0,1,4,3,14,0004-00-0009-44.png,0005-00-0004-11.png
00000014,80,1,1445624852743,1445624853191,332,453,0,0,0,4,5,1,45,0005-00-0004-36.png,0001-00-0000-70.png
00000014,81,0,1445624854078,1445624854571,930,447,0,0,0,1,2,1,12,0004-00-0005-93.png,0002-00-0003-37.png
00000014,82,1,1445624857659,1445624858115,913,462,0,0,0,2,1,1,21,0002-00-0003-11.png,0004-00-0005-05.png
00000014,83,1,1445624858977,1445624859422,926,398,0,0,0,4,3,1,43,0005-00-0000-61.png,0003-00-0001-38.png
00000014,84,0,1445624860287,1445624860787,925,411,0,0,0,3,5,2,35,0003-00-0002-01.png,0001-00-0002-67.png
00000014,85,1,1445624864036,1445624864392,401,410,0,0,0,1,3,2,13,0004-00-0007-29.png,0003-00-0005-13.png
00000014,86,1,1445624865237,1445624865749,901,416,0,0,0,5,2,3,52,0001-00-0007-43.png,0002-00-0003-15.png
00000014,87,1,1445624866629,1445624867124,900,397,0,0,0,5,4,1,54,0001-00-0009-64.png,0005-00-0006-11.png
00000014,88,1,1445624867997,1445624868417,340,427,0,0,0,1,5,4,15,0004-00-0004-06.png,0001-00-0001-83.png
00000014,89,1,1445624869382,1445624869963,873,372,0,0,0,4,2,2,42,0005-00-0000-59.png,0002-00-0009-47.png
00000014,90,1,1445624870842,1445624871285,384,509,0,0,0,2,5,3,25,0002-00-0005-05.png,0001-00-0002-94.png
00000014,91,1,1445624872221,1445624872693,345,444,0,0,0,2,4,2,24,0002-00-0003-33.png,0005-00-0006-87.png
00000014,92,0,1445624873593,1445624874101,898,378,0,0,0,4,5,1,45,0005-00-0003-15.png,0001-00-0009-50.png
00000014,93,1,1445624877244,1445624877710,323,466,0,0,0,1,4,3,14,0004-00-0008-71.png,0005-00-0005-99.png
00000014,94,1,1445624878922,1445624879369,904,393,0,0,0,5,3,2,53,0001-00-0003-95.png,0003-00-0004-20.png
00000014,95,1,1445624880551,1445624881006,930,401,0,0,0,5,1,4,51,0001-00-0004-53.png,0004-00-0005-70.png
00000014,96,1,1445624882201,1445624882660,892,487,0,0,0,3,2,1,32,0003-00-0005-32.png,0002-00-0000-91.png
00000014,97,1,1445624883852,1445624884288,902,466,0,0,0,4,1,3,41,0005-00-0007-40.png,0004-00-0009-93.png
00000014,98,1,1445624885147,1445624885619,900,488,0,0,0,3,1,2,31,0003-00-0003-09.png,0004-00-0006-82.png
00000014,99,1,1445624886830,1445624887236,364,468,0,0,0,2,3,1,23,0002-00-0001-18.png,0003-00-0006-30.png
00000014,100,1,1445624888143,1445624888591,356,437,0,0,0,3,4,1,34,0003-00-0005-99.png,0005-00-0009-17.png
00000014,101,0,1445624889485,1445624889956,352,414,0,0,0,5,1,4,51,0001-00-0004-82.png,0004-00-0006-76.png
00000014,102,1,1445624892872,1445624893252,369,465,0,0,0,2,4,2,24,0002-00-0002-96.png,0005-00-0000-37.png
00000014,103,0,1445624894082,1445624894529,370,462,0,0,0,3,1,2,31,0003-00-0009-17.png,0004-00-0003-45.png
00000014,104,1,1445624902225,1445624902730,930,556,0,0,0,3,2,1,32,0003-00-0002-11.png,0002-00-0007-95.png
00000014,105,1,1445624903573,1445624904033,357,408,0,0,0,2,5,3,25,0002-00-0007-61.png,0001-00-0001-50.png
00000014,106,0,1445624904917,1445624905441,877,493,0,0,0,3,5,2,35,0003-00-0001-60.png,0001-00-0002-65.png
00000014,107,0,1445624908318,1445624908779,878,470,0,0,0,1,2,1,12,0004-00-0000-00.png,0002-00-0000-17.png
00000014,108,1,1445624911638,1445624911666,503,428,0,0,0,1,3,2,13,0004-00-0002-12.png,0003-00-0006-97.png
00000014,109,0,1445624912553,1445624912959,298,396,0,0,0,2,1,1,21,0002-00-0001-58.png,0004-00-0009-37.png
00000014,110,0,1445624915870,1445624916439,291,352,0,0,0,4,3,1,43,0005-00-0000-17.png,0003-00-0000-74.png
00000014,111,1,1445624921317,1445624921696,324,422,0,0,0,3,4,1,34,0003-00-0005-40.png,0005-00-0004-31.png
00000014,112,0,1445624922599,1445624923068,319,410,0,0,0,4,1,3,41,0005-00-0000-72.png,0004-00-0004-67.png
00000014,113,1,1445624926118,1445624926499,286,397,0,0,0,1,4,3,14,0004-00-0005-61.png,0005-00-0004-96.png
00000014,114,1,1445624927676,1445624928081,977,345,0,0,0,5,3,2,53,0001-00-0008-68.png,0003-00-0001-78.png
00000014,115,1,1445624928958,1445624929433,360,406,0,0,0,1,5,4,15,0004-00-0007-47.png,0001-00-0004-08.png
00000014,116,1,1445624930269,1445624930772,942,506,0,0,0,5,2,3,52,0001-00-0006-98.png,0002-00-0007-04.png
00000014,117,1,1445624931691,1445624932216,889,364,0,0,0,4,2,2,42,0005-00-0005-54.png,0002-00-0002-23.png
00000014,118,1,1445624933093,1445624933545,356,436,0,0,0,4,5,1,45,0005-00-0001-18.png,0001-00-0009-17.png
00000014,119,0,1445624934446,1445624934903,375,512,0,0,0,5,4,1,54,0001-00-0008-49.png,0005-00-0004-83.png
00000014,120,0,1445624937900,1445624938349,956,350,0,0,0,2,3,1,23,0002-00-0008-69.png,0003-00-0008-41.png
00000014,121,0,1445624941669,1445624942053,349,430,0,0,0,5,4,1,54,0001-00-0005-10.png,0005-00-0004-80.png
00000014,122,1,1445624945237,1445624945651,268,395,0,0,0,2,5,3,25,0002-00-0006-59.png,0001-00-0008-05.png
00000014,123,1,1445624946787,1445624947216,376,358,0,0,0,1,5,4,15,0004-00-0001-75.png,0001-00-0006-82.png
00000014,124,1,1445624948055,1445624948483,337,398,0,0,0,2,3,1,23,0002-00-0006-85.png,0003-00-0007-92.png
00000014,125,1,1445624949399,1445624949882,870,341,0,0,0,5,3,2,53,0001-00-0006-22.png,0003-00-0000-12.png
00000014,126,1,1445624950708,1445624951351,337,389,0,0,0,1,3,2,13,0004-00-0009-11.png,0003-00-0006-37.png
00000014,127,1,1445624952283,1445624952741,906,375,0,0,0,4,3,1,43,0005-00-0008-32.png,0003-00-0003-42.png
00000014,128,1,1445624953674,1445624954157,927,408,0,0,0,3,1,2,31,0003-00-0007-71.png,0004-00-0001-96.png
00000014,129,1,1445624955001,1445624955406,406,413,0,0,0,2,4,2,24,0002-00-0000-16.png,0005-00-0007-63.png
00000014,130,1,1445624956299,1445624956770,952,377,0,0,0,2,1,1,21,0002-00-0002-84.png,0004-00-0000-72.png
00000014,131,0,1445624957767,1445624958232,904,453,0,0,0,3,5,2,35,0003-00-0008-86.png,0001-00-0001-83.png
00000014,132,0,1445624961176,1445624961236,505,413,0,0,0,4,2,2,42,0005-00-0007-90.png,0002-00-0002-24.png
00000014,133,1,1445624964527,1445624964949,350,332,0,0,0,3,4,1,34,0003-00-0004-59.png,0005-00-0004-49.png
00000014,134,0,1445624965815,1445624966315,903,493,0,0,0,1,4,3,14,0004-00-0003-70.png,0005-00-0009-42.png
00000014,135,0,1445624969366,1445624969746,870,367,0,0,0,1,2,1,12,0004-00-0006-76.png,0002-00-0001-10.png
00000014,136,1,1445624972754,1445624973153,324,404,0,0,0,4,5,1,45,0005-00-0007-31.png,0001-00-0007-71.png
00000014,137,1,1445624974037,1445624974477,956,402,0,0,0,4,1,3,41,0005-00-0003-57.png,0004-00-0004-10.png
00000014,138,1,1445624975370,1445624975881,875,488,0,0,0,5,1,4,51,0001-00-0003-19.png,0004-00-0006-39.png
00000014,139,1,1445624977136,1445624977612,874,476,0,0,0,3,2,1,32,0003-00-0002-12.png,0002-00-0003-55.png
00000014,140,1,1445624978509,1445624978964,899,458,0,0,0,5,2,3,52,0001-00-0002-69.png,0002-00-0003-65.png
00000014,141,0,1445624979818,1445624980325,432,424,0,0,0,5,3,2,53,0001-00-0007-27.png,0003-00-0007-56.png
00000014,142,0,1445624983258,1445624983680,957,390,0,0,0,3,5,2,35,0003-00-0007-86.png,0001-00-0007-56.png
00000014,143,1,1445624986954,1445624987338,900,462,0,0,0,5,2,3,52,0001-00-0008-93.png,0002-00-0005-77.png
00000014,144,0,1445624988516,1445624988956,400,404,0,0,0,2,1,1,21,0002-00-0003-47.png,0004-00-0001-00.png
00000014,145,0,1445624991913,1445624992358,956,442,0,0,0,2,3,1,23,0002-00-0008-50.png,0003-00-0005-25.png
00000014,146,1,1445624995213,1445624995587,903,349,0,0,0,3,1,2,31,0003-00-0007-96.png,0004-00-0005-99.png
00000014,147,1,1445624996434,1445624996886,370,488,0,0,0,1,4,3,14,0004-00-0006-58.png,0005-00-0006-63.png
00000014,148,0,1445624997743,1445624998206,336,437,0,0,0,5,4,1,54,0001-00-0001-92.png,0005-00-0005-59.png
00000014,149,1,1445625001049,1445625001507,911,450,0,0,0,4,2,2,42,0005-00-0003-40.png,0002-00-0001-61.png
00000014,150,1,1445625002632,1445625003042,401,384,0,0,0,2,4,2,24,0002-00-0009-44.png,0005-00-0005-31.png
00000014,151,1,1445625003876,1445625004297,318,436,0,0,0,4,5,1,45,0005-00-0001-10.png,0001-00-0006-36.png
00000014,152,1,1445625005240,1445625005692,360,433,0,0,0,1,5,4,15,0004-00-0004-46.png,0001-00-0001-38.png
00000014,153,0,1445625006642,1445625007094,918,416,0,0,0,1,2,1,12,0004-00-0000-50.png,0002-00-0005-87.png
00000014,154,1,1445625009978,1445625010406,876,502,0,0,0,5,1,4,51,0001-00-0003-46.png,0004-00-0006-42.png
00000014,155,1,1445625011570,1445625011990,309,406,0,0,0,1,3,2,13,0004-00-0007-44.png,0003-00-0006-31.png
00000014,156,1,1445625012889,1445625013368,334,471,0,0,0,2,5,3,25,0002-00-0007-84.png,0001-00-0008-42.png
00000014,157,1,1445625014231,1445625014737,926,427,0,0,0,4,1,3,41,0005-00-0000-28.png,0004-00-0006-51.png
00000014,158,1,1445625015942,1445625016316,915,392,0,0,0,3,2,1,32,0003-00-0002-84.png,0002-00-0005-36.png
00000014,159,0,1445625017285,1445625017704,401,423,0,0,0,4,3,1,43,0005-00-0006-16.png,0003-00-0004-99.png
00000014,160,0,1445625020551,1445625020987,930,402,0,0,0,3,4,1,34,0003-00-0006-49.png,0005-00-0006-08.png
00000014,161,1,1445625023895,1445625024291,323,371,0,0,0,2,3,1,23,0002-00-0000-76.png,0003-00-0006-86.png
00000014,162,1,1445625025112,1445625025623,877,362,0,0,0,2,1,1,21,0002-00-0006-06.png,0004-00-0001-41.png
00000014,163,0,1445625026458,1445625026906,913,384,0,0,0,3,4,1,34,0003-00-0009-94.png,0005-00-0006-11.png
00000014,164,0,1445625029806,1445625030509,401,296,0,0,0,5,4,1,54,0001-00-0004-17.png,0005-00-0000-05.png
00000014,165,0,1445625033357,1445625033449,491,410,0,0,0,5,2,3,52,0001-00-0008-38.png,0002-00-0006-22.png
00000014,166,0,1445625036435,1445625036861,955,392,0,0,0,1,5,4,15,0004-00-0008-86.png,0001-00-0007-52.png
00000014,167,0,1445625039754,1445625040148,928,380,0,0,0,4,5,1,45,0005-00-0007-69.png,0001-00-0004-22.png
00000014,168,0,1445625043293,1445625043317,523,413,0,0,0,4,3,1,43,0005-00-0008-96.png,0003-00-0009-19.png
00000014,169,1,1445625046421,1445625046843,931,520,0,0,0,5,1,4,51,0001-00-0002-55.png,0004-00-0009-29.png
00000014,170,1,1445625048022,1445625048544,289,388,0,0,0,1,2,1,12,0004-00-0007-05.png,0002-00-0004-14.png
00000014,171,1,1445625049722,1445625050120,927,383,0,0,0,3,2,1,32,0003-00-0007-80.png,0002-00-0002-66.png
00000014,172,1,1445625050938,1445625051429,939,397,0,0,0,3,1,2,31,0003-00-0001-36.png,0004-00-0000-57.png
00000014,173,1,1445625052599,1445625053007,862,358,0,0,0,4,1,3,41,0005-00-0000-24.png,0004-00-0007-17.png
00000014,174,1,1445625053854,1445625054270,309,406,0,0,0,2,5,3,25,0002-00-0001-03.png,0001-00-0004-26.png
00000014,175,1,1445625055155,1445625055619,360,547,0,0,0,2,4,2,24,0002-00-0008-54.png,0005-00-0000-60.png
00000014,176,1,1445625056518,1445625056942,315,414,0,0,0,1,3,2,13,0004-00-0009-53.png,0003-00-0009-40.png
00000014,177,0,1445625057861,1445625058274,300,423,0,0,0,5,3,2,53,0001-00-0003-18.png,0003-00-0009-02.png
00000014,178,0,1445625061407,1445625061829,879,407,0,0,0,3,5,2,35,0003-00-0008-09.png,0001-00-0006-68.png
00000014,179,1,1445625064834,1445625065229,981,376,0,0,0,4,2,2,42,0005-00-0000-87.png,0002-00-0001-87.png
00000014,180,1,1445625066344,1445625066772,315,389,0,0,0,1,4,3,14,0004-00-0000-76.png,0005-00-0002-23.png
00000014,181,1,1445625067614,1445625068105,332,446,0,0,0,1,3,2,13,0004-00-0001-00.png,0003-00-0009-47.png
00000014,182,1,1445625068986,1445625069387,366,497,0,0,0,2,4,2,24,0002-00-0007-54.png,0005-00-0001-37.png
00000014,183,0,1445625070291,1445625070735,337,463,0,0,0,4,3,1,43,0005-00-0002-92.png,0003-00-0005-22.png
00000014,184,0,1445625073841,1445625074278,891,524,0,0,0,1,2,1,12,0004-00-0003-17.png,0002-00-0004-09.png
00000014,185,1,1445625077103,1445625077155,504,411,0,0,0,2,5,3,25,0002-00-0009-95.png,0001-00-0008-57.png
00000014,186,1,1445625078038,1445625078505,364,516,0,0,0,3,4,1,34,0003-00-0006-84.png,0005-00-0002-19.png
00000014,187,1,1445625079374,1445625079849,345,407,0,0,0,3,5,2,35,0003-00-0002-91.png,0001-00-0001-63.png
00000014,188,1,1445625080728,1445625081238,931,417,0,0,0,3,2,1,32,0003-00-0009-39.png,0002-00-0007-29.png
00000014,189,1,1445625082082,1445625082562,905,401,0,0,0,3,1,2,31,0003-00-0004-47.png,0004-00-0008-18.png
00000014,190,1,1445625083480,1445625084410,970,392,0,0,0,4,2,2,42,0005-00-0002-69.png,0002-00-0000-77.png
00000014,191,0,1445625085282,1445625085834,921,394,0,0,0,4,5,1,45,0005-00-0007-73.png,0001-00-0001-93.png
00000014,192,0,1445625089341,1445625089761,376,358,0,0,0,5,4,1,54,0001-00-0001-44.png,0005-00-0005-29.png
00000014,193,0,1445625092942,1445625093356,913,410,0,0,0,1,4,3,14,0004-00-0009-16.png,0005-00-0001-12.png
00000014,194,1,1445625096459,1445625096867,333,402,0,0,0,2,3,1,23,0002-00-0000-54.png,0003-00-0007-14.png
00000014,195,1,1445625097698,1445625098172,931,471,0,0,0,5,2,3,52,0001-00-0007-21.png,0002-00-0006-52.png
00000014,196,1,1445625099359,1445625099842,332,411,0,0,0,1,5,4,15,0004-00-0007-59.png,0001-00-0005-47.png
00000014,197,0,1445625100708,1445625101159,363,528,0,0,0,5,3,2,53,0001-00-0007-67.png,0003-00-0007-21.png
00000014,198,1,1445625105156,1445625105638,952,412,0,0,0,2,1,1,21,0002-00-0003-25.png,0004-00-0008-37.png
00000014,199,1,1445625106492,1445625106995,877,346,0,0,0,4,1,3,41,0005-00-0001-33.png,0004-00-0008-98.png
00000014,200,1,1445625107916,1445625108400,936,443,0,0,0,5,1,4,51,0001-00-0001-42.png,0004-00-0000-37.png
00000014,201,0,1445625109597,1445625110084,913,398,0,0,0,4,5,1,45,0005-00-0004-08.png,0001-00-0006-29.png
00000014,202,0,1445625112900,1445625113390,438,467,0,0,0,5,4,1,54,0001-00-0002-82.png,0005-00-0007-01.png
00000014,203,0,1445625116302,1445625116700,320,400,0,0,0,4,3,1,43,0005-00-0006-69.png,0003-00-0006-56.png
00000014,204,1,1445625119721,1445625120262,293,387,0,0,0,1,5,4,15,0004-00-0007-75.png,0001-00-0009-34.png
00000014,205,0,1445625121119,1445625121593,316,454,0,0,0,2,1,1,21,0002-00-0008-00.png,0004-00-0000-66.png
00000014,206,1,1445625124480,1445625124856,870,394,0,0,0,5,1,4,51,0001-00-0007-80.png,0004-00-0003-10.png
00000014,207,0,1445625126371,1445625126841,330,437,0,0,0,5,3,2,53,0001-00-0008-54.png,0003-00-0003-64.png
00000014,208,1,1445625129736,1445625130127,413,462,0,0,0,1,4,3,14,0004-00-0000-06.png,0005-00-0007-73.png
00000014,209,1,1445625131261,1445625131668,328,399,0,0,0,3,4,1,34,0003-00-0001-01.png,0005-00-0004-89.png
00000014,210,1,1445625132552,1445625132991,366,435,0,0,0,2,4,2,24,0002-00-0003-07.png,0005-00-0006-08.png
00000014,211,1,1445625134138,1445625134677,322,370,0,0,0,1,2,1,12,0004-00-0002-69.png,0002-00-0001-47.png
00000014,212,0,1445625135901,1445625136377,926,410,0,0,0,3,5,2,35,0003-00-0004-86.png,0001-00-0005-15.png
00000014,213,1,1445625139557,1445625139949,366,468,0,0,0,1,3,2,13,0004-00-0000-05.png,0003-00-0009-18.png
00000014,214,1,1445625141127,1445625141586,928,391,0,0,0,5,2,3,52,0001-00-0000-22.png,0002-00-0006-45.png
00000014,215,1,1445625142744,1445625143169,389,495,0,0,0,2,5,3,25,0002-00-0005-18.png,0001-00-0007-75.png
00000014,216,0,1445625144106,1445625144603,928,417,0,0,0,2,3,1,23,0002-00-0000-33.png,0003-00-0006-14.png
00000014,217,1,1445625147595,1445625147990,875,345,0,0,0,4,2,2,42,0005-00-0001-41.png,0002-00-0004-57.png
00000014,218,0,1445625149166,1445625149554,376,398,0,0,0,3,1,2,31,0003-00-0008-50.png,0004-00-0003-40.png
00000014,219,1,1445625152528,1445625152886,888,345,0,0,0,3,2,1,32,0003-00-0003-14.png,0002-00-0004-72.png
00000014,220,0,1445625154048,1445625154472,332,419,0,0,0,4,1,3,41,0005-00-0004-79.png,0004-00-0005-01.png
00000014,221,1,1445625159642,1445625160596,392,445,0,0,0,1,2,1,12,0004-00-0008-82.png,0002-00-0009-25.png
00000014,222,1,1445625161435,1445625161917,896,472,0,0,0,5,2,3,52,0001-00-0004-29.png,0002-00-0001-94.png
00000014,223,1,1445625163121,1445625163674,888,423,0,0,0,2,1,1,21,0002-00-0000-43.png,0004-00-0008-63.png
00000014,224,1,1445625164522,1445625165018,401,439,0,0,0,2,3,1,23,0002-00-0001-98.png,0003-00-0000-21.png
00000014,225,0,1445625165829,1445625166331,913,424,0,0,0,1,3,2,13,0004-00-0004-29.png,0003-00-0003-05.png
00000014,226,1,1445625169322,1445625169759,361,410,0,0,0,1,5,4,15,0004-00-0005-29.png,0001-00-0004-92.png
00000014,227,0,1445625170928,1445625171439,875,449,0,0,0,4,5,1,45,0005-00-0007-95.png,0001-00-0002-10.png
00000014,228,0,1445625174648,1445625175081,291,367,0,0,0,4,2,2,42,0005-00-0003-43.png,0002-00-0009-31.png
00000014,229,1,1445625178237,1445625178681,902,478,0,0,0,3,2,1,32,0003-00-0008-07.png,0002-00-0003-06.png
00000014,230,0,1445625179863,1445625180318,367,491,0,0,0,3,1,2,31,0003-00-0003-85.png,0004-00-0006-76.png
00000014,231,1,1445625183216,1445625183600,963,398,0,0,0,4,1,3,41,0005-00-0004-97.png,0004-00-0007-44.png
00000014,232,1,1445625184764,1445625185289,248,555,0,0,0,3,4,1,34,0003-00-0008-17.png,0005-00-0001-32.png
00000014,233,0,1445625186245,1445625186631,395,443,0,0,0,5,4,1,54,0001-00-0006-06.png,0005-00-0006-45.png
00000014,234,1,1445625189791,1445625190261,873,357,0,0,0,4,3,1,43,0005-00-0001-82.png,0003-00-0005-25.png
00000014,235,1,1445625191166,1445625191562,376,397,0,0,0,2,5,3,25,0002-00-0006-83.png,0001-00-0007-63.png
00000014,236,1,1445625192448,1445625192893,330,464,0,0,0,3,5,2,35,0003-00-0002-06.png,0001-00-0001-99.png
00000014,237,1,1445625193834,1445625194300,318,436,0,0,0,1,4,3,14,0004-00-0006-32.png,0005-00-0000-52.png
00000014,238,0,1445625195170,1445625195656,333,458,0,0,0,5,3,2,53,0001-00-0009-54.png,0003-00-0008-21.png
00000014,239,1,1445625198596,1445625199093,927,439,0,0,0,5,1,4,51,0001-00-0002-25.png,0004-00-0009-20.png
00000014,240,1,1445625199929,1445625200368,382,498,0,0,0,2,4,2,24,0002-00-0002-52.png,0005-00-0005-28.png
00000014,241,0,1445625201250,1445625201721,332,446,0,0,0,4,3,1,43,0005-00-0007-93.png,0003-00-0004-00.png
00000014,242,0,1445625204610,1445625205104,376,439,0,0,0,5,3,2,53,0001-00-0000-56.png,0003-00-0004-76.png
00000014,243,1,1445625208268,1445625208680,364,476,0,0,0,2,5,3,25,0002-00-0000-06.png,0001-00-0006-75.png
00000014,244,0,1445625209527,1445625210055,908,494,0,0,0,2,4,2,24,0002-00-0008-90.png,0005-00-0006-36.png
00000014,245,1,1445625212948,1445625213494,368,440,0,0,0,4,5,1,45,0005-00-0003-35.png,0001-00-0006-36.png
00000014,246,1,1445625214426,1445625214911,912,480,0,0,0,3,1,2,31,0003-00-0009-10.png,0004-00-0003-26.png
00000014,247,1,1445625215755,1445625216222,346,473,0,0,0,2,3,1,23,0002-00-0003-71.png,0003-00-0003-52.png
00000014,248,1,1445625217085,1445625217544,376,396,0,0,0,1,3,2,13,0004-00-0000-93.png,0003-00-0005-72.png
00000014,249,1,1445625218473,1445625218948,892,444,0,0,0,2,1,1,21,0002-00-0003-81.png,0004-00-0006-46.png
00000014,250,0,1445625219904,1445625220401,904,456,0,0,0,3,4,1,34,0003-00-0002-74.png,0005-00-0007-32.png
00000014,251,1,1445625223520,1445625223984,929,497,0,0,0,5,1,4,51,0001-00-0000-00.png,0004-00-0000-32.png
00000014,252,1,1445625224923,1445625225466,877,494,0,0,0,5,4,1,54,0001-00-0007-69.png,0005-00-0009-81.png
00000014,253,1,1445625226392,1445625226835,427,410,0,0,0,1,5,4,15,0004-00-0001-53.png,0001-00-0004-43.png
00000014,254,1,1445625227745,1445625228153,325,449,0,0,0,1,4,3,14,0004-00-0006-97.png,0005-00-0007-76.png
00000014,255,1,1445625229038,1445625229581,905,402,0,0,0,4,2,2,42,0005-00-0004-42.png,0002-00-0002-07.png
00000014,256,0,1445625230467,1445625230975,896,420,0,0,0,3,5,2,35,0003-00-0009-18.png,0001-00-0003-24.png
00000014,257,0,1445625233908,1445625234343,926,461,0,0,0,1,2,1,12,0004-00-0008-92.png,0002-00-0001-56.png
00000014,258,1,1445625237236,1445625237633,922,419,0,0,0,3,2,1,32,0003-00-0001-35.png,0002-00-0002-51.png
00000014,259,1,1445625238816,1445625239319,925,541,0,0,0,4,1,3,41,0005-00-0003-62.png,0004-00-0006-19.png
00000014,260,1,1445625240146,1445625240666,930,417,0,0,0,5,2,3,52,0001-00-0002-40.png,0002-00-0000-20.png
00000014,261,0,1445625241556,1445625242506,376,384,0,0,0,3,1,2,31,0003-00-0009-24.png,0004-00-0007-76.png
00000014,262,1,1445625245362,1445625245894,926,456,0,0,0,2,1,1,21,0002-00-0008-75.png,0004-00-0005-89.png
00000014,263,1,1445625246807,1445625247290,901,494,0,0,0,3,2,1,32,0003-00-0000-43.png,0002-00-0008-66.png
00000014,264,1,1445625248537,1445625248971,899,460,0,0,0,5,1,4,51,0001-00-0005-68.png,0004-00-0005-19.png
00000014,265,0,1445625249882,1445625250479,905,418,0,0,0,4,5,1,45,0005-00-0008-01.png,0001-00-0009-41.png
00000014,266,1,1445625253581,1445625254046,875,502,0,0,0,4,3,1,43,0005-00-0004-05.png,0003-00-0004-05.png
00000014,267,1,1445625254990,1445625255441,320,421,0,0,0,1,2,1,12,0004-00-0006-01.png,0002-00-0003-30.png
00000014,268,1,1445625256722,1445625257155,376,384,0,0,0,2,3,1,23,0002-00-0004-18.png,0003-00-0008-65.png
00000014,269,1,1445625258041,1445625258481,865,488,0,0,0,5,2,3,52,0001-00-0001-38.png,0002-00-0002-43.png
00000014,270,1,1445625259342,1445625259789,337,449,0,0,0,1,3,2,13,0004-00-0003-77.png,0003-00-0007-78.png
00000014,271,0,1445625260668,1445625261159,331,438,0,0,0,5,3,2,53,0001-00-0007-18.png,0003-00-0005-52.png
00000014,272,1,1445625264415,1445625264914,350,397,0,0,0,2,5,3,25,0002-00-0006-43.png,0001-00-0006-62.png
00000014,273,1,1445625265815,1445625266255,376,423,0,0,0,3,4,1,34,0003-00-0005-06.png,0005-00-0000-30.png
00000014,274,1,1445625267185,1445625267781,385,398,0,0,0,3,5,2,35,0003-00-0006-66.png,0001-00-0002-31.png
00000014,275,1,1445625268718,1445625269236,319,421,0,0,0,1,5,4,15,0004-00-0003-52.png,0001-00-0002-66.png
00000014,276,1,1445625270084,1445625270593,925,385,0,0,0,4,1,3,41,0005-00-0009-35.png,0004-00-0003-05.png
00000014,277,1,1445625271460,1445625272102,861,398,0,0,0,5,4,1,54,0001-00-0006-92.png,0005-00-0008-16.png
00000014,278,1,1445625273009,1445625273525,899,413,0,0,0,4,2,2,42,0005-00-0006-91.png,0002-00-0001-10.png
00000014,279,1,1445625274367,1445625274894,401,492,0,0,0,2,4,2,24,0002-00-0001-16.png,0005-00-0001-15.png
00000014,280,1,1445625275840,1445625276286,401,423,0,0,0,1,4,3,14,0004-00-0002-21.png,0005-00-0004-51.png
00000014,281,1,1445625277169,1445625277656,401,476,0,0,0,1,4,3,14,0004-00-0003-08.png,0005-00-0008-57.png
00000014,282,1,1445625278633,1445625279108,862,396,0,0,0,5,2,3,52,0001-00-0000-45.png,0002-00-0003-32.png
00000014,283,1,1445625280052,1445625280507,340,443,0,0,0,3,4,1,34,0003-00-0001-61.png,0005-00-0009-83.png
00000014,284,1,1445625281394,1445625281901,914,397,0,0,0,3,1,2,31,0003-00-0003-82.png,0004-00-0008-09.png
00000014,285,1,1445625282775,1445625283471,457,462,0,0,0,2,4,2,24,0002-00-0009-23.png,0005-00-0009-02.png
00000014,286,1,1445625284375,1445625284881,360,458,0,0,0,3,5,2,35,0003-00-0008-51.png,0001-00-0009-90.png
00000014,287,1,1445625285749,1445625286168,332,445,0,0,0,2,3,1,23,0002-00-0000-16.png,0003-00-0009-17.png
00000014,288,1,1445625287169,1445625287721,333,399,0,0,0,1,5,4,15,0004-00-0004-22.png,0001-00-0003-53.png
00000014,289,1,1445625288619,1445625289075,334,457,0,0,0,1,3,2,13,0004-00-0008-25.png,0003-00-0004-86.png
00000014,290,1,1445625289998,1445625290433,401,462,0,0,0,4,5,1,45,0005-00-0001-56.png,0001-00-0002-76.png
00000014,291,0,1445625291388,1445625291815,356,463,0,0,0,5,4,1,54,0001-00-0005-65.png,0005-00-0009-09.png
00000014,292,1,1445625296719,1445625297140,924,490,0,0,0,5,1,4,51,0001-00-0001-58.png,0004-00-0009-76.png
00000014,293,1,1445625298347,1445625298760,901,435,0,0,0,5,3,2,53,0001-00-0008-10.png,0003-00-0001-10.png
00000014,294,1,1445625299625,1445625300092,926,384,0,0,0,4,1,3,41,0005-00-0008-59.png,0004-00-0007-53.png
00000014,295,1,1445625300959,1445625301456,912,424,0,0,0,4,2,2,42,0005-00-0005-79.png,0002-00-0005-17.png
00000014,296,0,1445625302302,1445625302762,336,449,0,0,0,2,1,1,21,0002-00-0007-22.png,0004-00-0007-81.png
00000014,297,1,1445625305642,1445625306083,871,412,0,0,0,3,2,1,32,0003-00-0003-93.png,0002-00-0001-82.png
00000014,298,1,1445625306914,1445625307410,318,421,0,0,0,1,2,1,12,0004-00-0005-17.png,0002-00-0003-17.png
00000014,299,1,1445625308315,1445625308834,900,411,0,0,0,4,3,1,43,0005-00-0003-09.png,0003-00-0002-06.png
00000014,300,1,1445625309716,1445625310128,401,433,0,0,0,2,5,3,25,0002-00-0003-91.png,0001-00-0005-77.png
00000014,301,1,1445625311066,1445625311543,287,449,0,0,0,1,4,3,14,0004-00-0004-68.png,0005-00-0002-82.png
00000014,302,0,1445625312549,1445625313054,879,428,0,0,0,4,5,1,45,0005-00-0003-98.png,0001-00-0002-26.png
00000014,303,1,1445625316216,1445625316692,338,434,0,0,0,3,4,1,34,0003-00-0003-43.png,0005-00-0002-47.png
00000014,304,0,1445625317608,1445625318044,319,462,0,0,0,2,1,1,21,0002-00-0003-63.png,0004-00-0004-31.png
00000014,305,1,1445625321365,1445625321790,320,380,0,0,0,1,3,2,13,0004-00-0003-36.png,0003-00-0006-26.png
00000014,306,1,1445625322618,1445625323123,879,401,0,0,0,5,2,3,52,0001-00-0005-90.png,0002-00-0002-28.png
00000014,307,1,1445625324045,1445625324669,903,466,0,0,0,4,2,2,42,0005-00-0003-84.png,0002-00-0008-26.png
00000014,308,1,1445625325512,1445625325979,401,410,0,0,0,1,5,4,15,0004-00-0008-46.png,0001-00-0005-01.png
00000014,309,0,1445625326888,1445625327413,915,438,0,0,0,3,5,2,35,0003-00-0000-83.png,0001-00-0000-02.png
00000014,310,0,1445625330415,1445625330850,401,394,0,0,0,5,4,1,54,0001-00-0009-57.png,0005-00-0003-60.png
00000014,311,1,1445625333786,1445625334238,887,491,0,0,0,3,1,2,31,0003-00-0007-00.png,0004-00-0003-29.png
00000014,312,0,1445625335420,1445625335899,905,402,0,0,0,2,4,2,24,0002-00-0003-00.png,0005-00-0007-28.png
00000014,313,1,1445625339215,1445625339640,896,472,0,0,0,5,3,2,53,0001-00-0003-25.png,0003-00-0007-36.png
00000014,314,1,1445625340572,1445625340971,376,413,0,0,0,2,3,1,23,0002-00-0005-20.png,0003-00-0000-73.png
00000014,315,1,1445625341832,1445625342811,907,448,0,0,0,4,1,3,41,0005-00-0007-42.png,0004-00-0004-57.png
00000014,316,1,1445625343742,1445625344152,376,422,0,0,0,1,2,1,12,0004-00-0008-77.png,0002-00-0003-71.png
00000014,317,1,1445625345064,1445625345574,939,398,0,0,0,5,1,4,51,0001-00-0002-12.png,0004-00-0005-20.png
00000014,318,1,1445625346464,1445625346959,901,465,0,0,0,3,2,1,32,0003-00-0009-14.png,0002-00-0006-40.png
00000014,319,0,1445625347855,1445625348331,332,419,0,0,0,4,3,1,43,0005-00-0004-77.png,0003-00-0000-11.png
00000014,320,1,1445625351332,1445625351838,275,395,0,0,0,2,5,3,25,0002-00-0006-10.png,0001-00-0006-94.png
00000014,321,1,1445625352756,1445625353268,929,417,0,0,0,3,2,1,32,0003-00-0006-30.png,0002-00-0009-32.png
00000014,322,0,1445625354135,1445625354637,325,423,0,0,0,2,1,1,21,0002-00-0001-89.png,0004-00-0003-50.png
00000014,323,0,1445625357575,1445625358054,376,371,0,0,0,4,1,3,41,0005-00-0004-46.png,0004-00-0005-96.png
00000014,324,0,1445625361085,1445625361129,501,479,0,0,0,5,2,3,52,0001-00-0007-42.png,0002-00-0009-03.png
00000014,325,1,1445625364005,1445625364089,516,462,0,0,0,2,3,1,23,0002-00-0001-97.png,0003-00-0007-83.png
00000014,326,0,1445625364926,1445625365546,938,450,0,0,0,1,2,1,12,0004-00-0003-37.png,0002-00-0004-63.png
00000014,327,1,1445625368636,1445625369143,873,535,0,0,0,5,4,1,54,0001-00-0001-73.png,0005-00-0002-59.png
00000014,328,1,1445625370098,1445625370531,305,412,0,0,0,1,4,3,14,0004-00-0007-02.png,0005-00-0004-24.png
00000014,329,1,1445625371374,1445625371819,384,454,0,0,0,4,5,1,45,0005-00-0005-12.png,0001-00-0000-31.png
00000014,330,1,1445625372751,1445625373201,330,412,0,0,0,1,3,2,13,0004-00-0002-90.png,0003-00-0002-27.png
00000014,331,1,1445625374134,1445625374604,871,498,0,0,0,4,2,2,42,0005-00-0003-57.png,0002-00-0006-59.png
00000014,332,1,1445625375499,1445625375915,376,410,0,0,0,2,4,2,24,0002-00-0006-67.png,0005-00-0009-65.png
00000014,333,0,1445625376854,1445625377296,319,462,0,0,0,5,1,4,51,0001-00-0004-71.png,0004-00-0008-26.png
00000014,334,0,1445625380285,1445625380779,367,467,0,0,0,4,3,1,43,0005-00-0004-37.png,0003-00-0003-00.png
00000014,335,1,1445625383633,1445625384153,387,455,0,0,0,2,5,3,25,0002-00-0000-70.png,0001-00-0008-93.png
00000014,336,1,1445625385033,1445625385458,355,509,0,0,0,1,5,4,15,0004-00-0001-67.png,0001-00-0004-17.png
00000014,337,1,1445625386365,1445625386910,872,504,0,0,0,3,1,2,31,0003-00-0003-35.png,0004-00-0001-42.png
00000014,338,1,1445625387816,1445625388286,338,450,0,0,0,3,4,1,34,0003-00-0001-38.png,0005-00-0008-91.png
00000014,339,0,1445625389226,1445625389719,312,435,0,0,0,5,3,2,53,0001-00-0001-37.png,0003-00-0009-97.png
00000014,340,1,1445625392911,1445625393412,330,400,0,0,0,3,5,2,35,0003-00-0005-10.png,0001-00-0002-22.png
00000014,341,1,1445625394305,1445625394706,406,439,0,0,0,2,5,3,25,0002-00-0006-26.png,0001-00-0004-34.png
00000014,342,1,1445625395677,1445625396109,319,447,0,0,0,2,4,2,24,0002-00-0007-12.png,0005-00-0005-62.png
00000014,343,0,1445625397110,1445625397625,921,419,0,0,0,1,4,3,14,0004-00-0006-90.png,0005-00-0007-35.png
00000014,344,1,1445625400767,1445625401225,307,399,0,0,0,3,4,1,34,0003-00-0001-52.png,0005-00-0007-86.png
00000014,345,1,1445625402168,1445625402571,375,513,0,0,0,1,2,1,12,0004-00-0008-35.png,0002-00-0004-32.png
00000014,346,1,1445625403499,1445625403951,331,437,0,0,0,1,3,2,13,0004-00-0001-51.png,0003-00-0001-93.png
00000014,347,1,1445625404892,1445625405378,901,409,0,0,0,5,3,2,53,0001-00-0007-73.png,0003-00-0007-16.png
00000014,348,0,1445625406321,1445625406738,325,400,0,0,0,2,1,1,21,0002-00-0005-37.png,0004-00-0000-64.png
00000014,349,0,1445625410585,1445625411004,320,394,0,0,0,5,1,4,51,0001-00-0001-65.png,0004-00-0001-09.png
00000014,350,0,1445625413911,1445625414392,927,409,0,0,0,1,5,4,15,0004-00-0007-33.png,0001-00-0001-78.png
00000014,351,1,1445625417413,1445625417809,930,401,0,0,0,4,3,1,43,0005-00-0006-87.png,0003-00-0009-18.png
00000014,352,0,1445625418700,1445625419092,390,521,0,0,0,5,4,1,54,0001-00-0007-27.png,0005-00-0001-96.png
00000014,353,1,1445625422051,1445625422071,487,354,0,0,0,3,5,2,35,0003-00-0003-11.png,0001-00-0006-34.png
00000014,354,1,1445625422933,1445625423463,924,464,0,0,0,4,2,2,42,0005-00-0003-22.png,0002-00-0003-60.png
00000014,355,1,1445625424293,1445625424763,316,421,0,0,0,2,3,1,23,0002-00-0002-61.png,0003-00-0001-50.png
00000014,356,1,1445625425707,1445625426238,903,418,0,0,0,5,2,3,52,0001-00-0009-69.png,0002-00-0005-16.png
00000014,357,1,1445625427140,1445625427654,956,427,0,0,0,3,1,2,31,0003-00-0009-96.png,0004-00-0009-67.png
00000014,358,1,1445625428909,1445625429353,896,366,0,0,0,3,2,1,32,0003-00-0007-89.png,0002-00-0005-90.png
00000014,359,0,1445625430280,1445625430828,907,390,0,0,0,4,5,1,45,0005-00-0006-27.png,0001-00-0006-83.png
00000014,360,0,1445625433827,1445625434442,317,365,0,0,0,4,1,3,41,0005-00-0003-05.png,0004-00-0005-30.png
00000014,361,1,1445625437386,1445625437911,298,398,0,0,0,2,4,2,24,0002-00-0001-91.png,0005-00-0004-72.png
00000014,362,0,1445625438787,1445625439362,309,429,0,0,0,5,3,2,53,0001-00-0005-25.png,0003-00-0007-41.png
00000014,363,1,1445625442324,1445625442736,324,395,0,0,0,3,4,1,34,0003-00-0000-73.png,0005-00-0001-01.png
00000014,364,1,1445625443636,1445625444090,340,441,0,0,0,2,5,3,25,0002-00-0005-46.png,0001-00-0005-79.png
00000014,365,1,1445625445023,1445625445555,900,502,0,0,0,5,1,4,51,0001-00-0007-51.png,0004-00-0000-83.png
00000014,366,0,1445625446479,1445625446976,308,398,0,0,0,4,3,1,43,0005-00-0000-87.png,0003-00-0007-23.png
00000014,367,1,1445625450077,1445625450540,345,421,0,0,0,3,5,2,35,0003-00-0004-23.png,0001-00-0001-12.png
00000014,368,1,1445625451408,1445625451861,335,533,0,0,0,2,3,1,23,0002-00-0003-70.png,0003-00-0006-89.png
00000014,369,0,1445625453213,1445625453655,429,398,0,0,0,5,4,1,54,0001-00-0007-77.png,0005-00-0006-47.png
00000014,370,0,1445625456615,1445625457037,350,384,0,0,0,3,1,2,31,0003-00-0005-08.png,0004-00-0005-48.png
00000014,371,1,1445625459973,1445625460370,900,501,0,0,0,3,2,1,32,0003-00-0001-26.png,0002-00-0006-52.png
00000014,372,1,1445625461220,1445625461700,286,436,0,0,0,1,2,1,12,0004-00-0004-73.png,0002-00-0006-03.png
00000014,373,1,1445625462623,1445625463093,924,463,0,0,0,4,1,3,41,0005-00-0004-97.png,0004-00-0001-36.png
00000014,374,0,1445625464000,1445625464464,337,449,0,0,0,5,2,3,52,0001-00-0004-85.png,0002-00-0001-59.png
00000014,375,0,1445625467446,1445625467921,901,475,0,0,0,4,5,1,45,0005-00-0000-91.png,0001-00-0003-46.png
00000014,376,1,1445625470986,1445625471558,299,345,0,0,0,1,5,4,15,0004-00-0000-66.png,0001-00-0004-18.png
00000014,377,1,1445625472476,1445625472922,365,496,0,0,0,1,3,2,13,0004-00-0004-13.png,0003-00-0002-43.png
00000014,378,0,1445625473989,1445625474516,916,399,0,0,0,1,4,3,14,0004-00-0005-98.png,0005-00-0001-03.png
00000014,379,0,1445625477534,1445625477940,316,391,0,0,0,2,1,1,21,0002-00-0009-44.png,0004-00-0009-57.png
00000014,380,1,1445625480994,1445625481426,935,417,0,0,0,4,2,2,42,0005-00-0004-70.png,0002-00-0001-52.png
00000014,381,0,1445625482292,1445625482733,396,415,0,0,0,2,1,1,21,0002-00-0006-19.png,0004-00-0004-75.png
00000014,382,1,1445625485580,1445625486051,341,360,0,0,0,2,3,1,23,0002-00-0007-59.png,0003-00-0003-67.png
00000014,383,1,1445625486986,1445625487456,401,384,0,0,0,3,4,1,34,0003-00-0008-42.png,0005-00-0008-22.png
00000014,384,1,1445625488377,1445625488972,878,441,0,0,0,5,2,3,52,0001-00-0005-80.png,0002-00-0009-59.png
00000014,385,0,1445625489937,1445625490619,446,506,0,0,0,5,4,1,54,0001-00-0000-66.png,0005-00-0000-81.png
00000014,386,1,1445625493642,1445625494087,900,371,0,0,0,4,3,1,43,0005-00-0001-05.png,0003-00-0005-98.png
00000014,387,1,1445625495015,1445625495556,913,412,0,0,0,3,1,2,31,0003-00-0003-96.png,0004-00-0001-91.png
00000014,388,1,1445625496426,1445625496994,863,396,0,0,0,5,1,4,51,0001-00-0008-41.png,0004-00-0007-18.png
00000014,389,1,1445625497928,1445625498409,334,443,0,0,0,2,4,2,24,0002-00-0006-77.png,0005-00-0009-27.png
00000014,390,1,1445625499378,1445625499837,312,461,0,0,0,1,5,4,15,0004-00-0006-62.png,0001-00-0001-77.png
00000014,391,1,1445625500814,1445625501250,375,541,0,0,0,4,5,1,45,0005-00-0002-66.png,0001-00-0008-34.png
00000014,392,1,1445625502189,1445625502672,334,446,0,0,0,1,4,3,14,0004-00-0002-50.png,0005-00-0003-72.png
00000014,393,1,1445625504048,1445625504443,338,443,0,0,0,2,5,3,25,0002-00-0003-60.png,0001-00-0005-93.png
00000014,394,1,1445625505792,1445625506345,888,426,0,0,0,5,3,2,53,0001-00-0009-30.png,0003-00-0006-55.png
00000014,395,1,1445625507288,1445625507724,350,450,0,0,0,3,5,2,35,0003-00-0007-12.png,0001-00-0005-59.png
00000014,396,1,1445625508670,1445625509154,905,402,0,0,0,4,2,2,42,0005-00-0003-68.png,0002-00-0002-04.png
00000014,397,0,1445625510050,1445625510490,401,422,0,0,0,4,1,3,41,0005-00-0006-00.png,0004-00-0007-33.png
00000014,398,0,1445625513379,1445625513777,297,397,0,0,0,3,2,1,32,0003-00-0003-73.png,0002-00-0005-61.png
00000014,399,1,1445625516666,1445625517084,291,401,0,0,0,1,2,1,12,0004-00-0005-79.png,0002-00-0005-88.png
00000014,400,1,1445625518020,1445625518436,376,384,0,0,0,1,3,2,13,0004-00-0002-16.png,0003-00-0007-64.png
00000014,401,0,1445625519399,1445625520205,409,374,0,0,0,3,2,1,32,0003-00-0003-89.png,0002-00-0004-02.png
00000014,402,0,1445625523045,1445625523485,900,400,0,0,0,2,4,2,24,0002-00-0006-30.png,0005-00-0002-82.png
00000014,403,1,1445625526488,1445625526900,909,467,0,0,0,4,1,3,41,0005-00-0004-08.png,0004-00-0006-98.png
00000014,404,1,1445625528157,1445625528573,906,480,0,0,0,4,2,2,42,0005-00-0008-15.png,0002-00-0007-65.png
00000014,405,0,1445625529445,1445625529917,902,416,0,0,0,3,5,2,35,0003-00-0002-39.png,0001-00-0006-11.png
00000014,406,1,1445625532865,1445625533279,926,455,0,0,0,2,1,1,21,0002-00-0005-09.png,0004-00-0002-09.png
00000014,407,1,1445625534158,1445625534540,393,402,0,0,0,2,5,3,25,0002-00-0007-29.png,0001-00-0008-43.png
00000014,408,1,1445625535561,1445625536015,310,410,0,0,0,1,4,3,14,0004-00-0000-60.png,0005-00-0007-03.png
00000014,409,1,1445625536952,1445625537452,876,435,0,0,0,5,4,1,54,0001-00-0005-12.png,0005-00-0007-28.png
00000014,410,1,1445625538393,1445625538866,875,487,0,0,0,3,1,2,31,0003-00-0000-68.png,0004-00-0006-04.png
00000014,411,1,1445625539833,1445625540359,395,504,0,0,0,4,5,1,45,0005-00-0008-40.png,0001-00-0002-10.png
00000014,412,1,1445625541354,1445625541817,878,416,0,0,0,5,3,2,53,0001-00-0006-93.png,0003-00-0007-24.png
00000014,413,1,1445625542824,1445625543296,293,447,0,0,0,1,2,1,12,0004-00-0005-61.png,0002-00-0001-34.png
00000014,414,1,1445625544262,1445625544711,333,419,0,0,0,1,3,2,13,0004-00-0005-03.png,0003-00-0003-66.png
00000014,415,1,1445625545676,1445625546092,338,424,0,0,0,1,5,4,15,0004-00-0001-97.png,0001-00-0007-77.png
00000014,416,1,1445625547137,1445625547592,359,534,0,0,0,2,3,1,23,0002-00-0004-97.png,0003-00-0006-42.png
00000014,417,1,1445625548600,1445625549121,901,436,0,0,0,4,3,1,43,0005-00-0008-09.png,0003-00-0002-65.png
00000014,418,0,1445625550069,1445625550577,881,446,0,0,0,3,4,1,34,0003-00-0000-76.png,0005-00-0000-33.png
00000014,419,1,1445625553446,1445625553888,899,411,0,0,0,5,1,4,51,0001-00-0007-61.png,0004-00-0001-25.png
00000014,420,1,1445625554821,1445625555314,875,513,0,0,0,5,2,3,52,0001-00-0007-55.png,0002-00-0005-09.png
00000014,421,1,1445625556187,1445625556721,366,433,0,0,0,3,4,1,34,0003-00-0008-74.png,0005-00-0000-39.png
00000014,422,0,1445625557731,1445625558235,335,466,0,0,0,5,2,3,52,0001-00-0001-33.png,0002-00-0001-58.png
00000014,423,0,1445625561064,1445625561084,478,402,0,0,0,5,1,4,51,0001-00-0003-28.png,0004-00-0008-25.png
00000014,424,0,1445625564161,1445625564584,908,446,0,0,0,1,2,1,12,0004-00-0003-80.png,0002-00-0004-14.png
00000014,425,1,1445625567510,1445625567546,483,473,0,0,0,1,4,3,14,0004-00-0007-16.png,0005-00-0001-31.png
00000014,426,1,1445625568394,1445625568821,314,495,0,0,0,2,5,3,25,0002-00-0005-63.png,0001-00-0004-22.png
00000014,427,0,1445625569707,1445625570127,350,410,0,0,0,5,4,1,54,0001-00-0007-97.png,0005-00-0009-22.png
00000014,428,0,1445625572985,1445625573392,389,515,0,0,0,5,3,2,53,0001-00-0002-89.png,0003-00-0001-83.png
00000014,429,1,1445625576295,1445625576299,518,368,0,0,0,3,5,2,35,0003-00-0007-95.png,0001-00-0000-88.png
00000014,430,1,1445625577141,1445625577599,376,396,0,0,0,1,5,4,15,0004-00-0008-44.png,0001-00-0009-06.png
00000014,431,1,1445625578439,1445625579008,877,453,0,0,0,4,1,3,41,0005-00-0001-58.png,0004-00-0006-36.png
00000014,432,1,1445625579903,1445625580460,370,486,0,0,0,2,4,2,24,0002-00-0003-41.png,0005-00-0002-66.png
00000014,433,1,1445625581440,1445625581898,336,423,0,0,0,1,3,2,13,0004-00-0009-01.png,0003-00-0002-94.png
00000014,434,1,1445625582874,1445625583360,355,469,0,0,0,2,3,1,23,0002-00-0006-79.png,0003-00-0003-22.png
00000014,435,1,1445625584275,1445625584780,905,403,0,0,0,3,1,2,31,0003-00-0009-21.png,0004-00-0005-80.png
00000014,436,1,1445625585767,1445625586333,875,412,0,0,0,3,2,1,32,0003-00-0000-22.png,0002-00-0009-10.png
00000014,437,0,1445625587306,1445625587816,881,419,0,0,0,4,5,1,45,0005-00-0008-07.png,0001-00-0004-87.png
00000014,438,1,1445625590683,1445625591142,913,449,0,0,0,4,2,2,42,0005-00-0008-90.png,0002-00-0007-27.png
00000014,439,1,1445625591995,1445625592522,924,417,0,0,0,2,1,1,21,0002-00-0002-73.png,0004-00-0004-75.png
00000014,440,1,1445625593430,1445625593925,889,477,0,0,0,4,3,1,43,0005-00-0002-30.png,0003-00-0009-30.png
00000014,441,0,1445625594839,1445625595255,401,422,0,0,0,2,1,1,21,0002-00-0008-20.png,0004-00-0002-25.png
00000014,442,1,1445625598554,1445625599033,364,462,0,0,0,2,5,3,25,0002-00-0007-98.png,0001-00-0007-65.png
00000014,443,0,1445625599882,1445625600473,875,411,0,0,0,3,5,2,35,0003-00-0008-87.png,0001-00-0003-50.png
00000014,444,0,1445625603616,1445625604082,894,416,0,0,0,4,5,1,45,0005-00-0005-59.png,0001-00-0002-66.png
00000014,445,1,1445625607051,1445625607525,904,428,0,0,0,3,2,1,32,0003-00-0007-43.png,0002-00-0005-17.png
00000014,446,0,1445625608415,1445625609364,891,489,0,0,0,2,4,2,24,0002-00-0009-99.png,0005-00-0007-27.png
00000014,447,0,1445625612279,1445625612692,303,354,0,0,0,5,3,2,53,0001-00-0005-33.png,0003-00-0008-75.png
00000014,448,1,1445625616156,1445625616612,904,480,0,0,0,3,1,2,31,0003-00-0002-93.png,0004-00-0006-87.png
00000014,449,1,1445625617422,1445625617861,319,436,0,0,0,1,4,3,14,0004-00-0007-32.png,0005-00-0007-76.png
00000014,450,0,1445625618739,1445625619311,343,408,0,0,0,5,4,1,54,0001-00-0000-92.png,0005-00-0001-13.png
00000014,451,1,1445625622404,1445625622790,288,415,0,0,0,1,3,2,13,0004-00-0004-16.png,0003-00-0003-52.png
00000014,452,1,1445625623616,1445625624148,902,417,0,0,0,5,2,3,52,0001-00-0003-97.png,0002-00-0004-28.png
00000014,453,1,1445625625069,1445625625556,305,411,0,0,0,1,5,4,15,0004-00-0004-55.png,0001-00-0001-83.png
00000014,454,0,1445625626552,1445625627042,875,476,0,0,0,1,2,1,12,0004-00-0001-52.png,0002-00-0007-93.png
00000014,455,1,1445625630125,1445625630534,365,495,0,0,0,2,3,1,23,0002-00-0001-96.png,0003-00-0007-21.png
00000014,456,0,1445625631373,1445625632250,376,397,0,0,0,4,3,1,43,0005-00-0002-77.png,0003-00-0000-48.png
00000014,457,1,1445625635360,1445625635947,937,398,0,0,0,5,1,4,51,0001-00-0000-57.png,0004-00-0004-25.png
00000014,458,1,1445625636794,1445625637359,367,507,0,0,0,3,4,1,34,0003-00-0006-73.png,0005-00-0007-45.png
00000014,459,1,1445625638277,1445625638749,935,386,0,0,0,4,2,2,42,0005-00-0000-45.png,0002-00-0006-50.png
00000014,460,0,1445625639637,1445625640104,408,444,0,0,0,4,1,3,41,0005-00-0000-98.png,0004-00-0007-77.png
00000014,461,1,1445625643035,1445625643486,355,457,0,0,0,1,2,1,12,0004-00-0009-62.png,0002-00-0009-96.png
00000014,462,1,1445625644337,1445625645021,510,456,0,0,0,3,5,2,35,0003-00-0006-19.png,0001-00-0002-09.png
00000014,463,1,1445625645956,1445625646442,910,399,0,0,0,4,2,2,42,0005-00-0008-35.png,0002-00-0007-31.png
00000014,464,1,1445625647374,1445625647914,905,389,0,0,0,4,1,3,41,0005-00-0004-83.png,0004-00-0003-93.png
00000014,465,1,1445625648818,1445625649254,335,417,0,0,0,1,5,4,15,0004-00-0000-36.png,0001-00-0007-46.png
00000014,466,0,1445625650177,1445625650765,874,385,0,0,0,4,5,1,45,0005-00-0008-29.png,0001-00-0001-94.png
00000014,467,1,1445625653696,1445625654185,924,406,0,0,0,2,1,1,21,0002-00-0006-06.png,0004-00-0001-49.png
00000014,468,1,1445625655037,1445625655508,366,520,0,0,0,2,5,3,25,0002-00-0001-90.png,0001-00-0004-79.png
00000014,469,1,1445625656484,1445625656945,920,397,0,0,0,5,4,1,54,0001-00-0004-61.png,0005-00-0006-26.png
00000014,470,1,1445625657925,1445625658391,376,384,0,0,0,1,4,3,14,0004-00-0006-17.png,0005-00-0002-57.png
00000014,471,0,1445625659412,1445625659918,867,430,0,0,0,3,4,1,34,0003-00-0004-58.png,0005-00-0004-40.png
00000014,472,1,1445625663123,1445625663513,325,398,0,0,0,2,4,2,24,0002-00-0003-84.png,0005-00-0009-00.png
00000014,473,1,1445625664422,1445625664869,888,501,0,0,0,3,1,2,31,0003-00-0005-88.png,0004-00-0008-18.png
00000014,474,1,1445625665824,1445625666376,310,412,0,0,0,1,3,2,13,0004-00-0004-90.png,0003-00-0002-90.png
00000014,475,1,1445625667612,1445625668107,911,408,0,0,0,5,1,4,51,0001-00-0003-98.png,0004-00-0004-55.png
00000014,476,0,1445625669062,1445625671005,330,398,0,0,0,5,3,2,53,0001-00-0001-31.png,0003-00-0009-93.png
00000014,477,0,1445625673960,1445625674422,372,374,0,0,0,4,3,1,43,0005-00-0003-89.png,0003-00-0006-00.png
00000014,478,0,1445625677362,1445625677398,473,421,0,0,0,5,2,3,52,0001-00-0009-00.png,0002-00-0003-04.png
00000014,479,1,1445625680522,1445625680970,900,437,0,0,0,3,2,1,32,0003-00-0004-49.png,0002-00-0003-45.png
00000014,480,1,1445625682202,1445625682680,325,358,0,0,0,2,3,1,23,0002-00-0002-94.png,0003-00-0008-93.png
00000014,481,1,1445625683523,1445625683995,319,438,0,0,0,2,4,2,24,0002-00-0004-13.png,0005-00-0004-44.png
00000014,482,1,1445625684894,1445625685426,879,428,0,0,0,3,2,1,32,0003-00-0004-94.png,0002-00-0006-84.png
00000014,483,1,1445625686341,1445625686799,325,425,0,0,0,1,5,4,15,0004-00-0003-35.png,0001-00-0005-04.png
00000014,484,0,1445625687763,1445625688273,874,490,0,0,0,3,4,1,34,0003-00-0000-57.png,0005-00-0004-13.png
00000014,485,1,1445625691155,1445625691604,324,397,0,0,0,2,5,3,25,0002-00-0005-27.png,0001-00-0003-05.png
00000014,486,1,1445625692497,1445625692979,929,414,0,0,0,3,1,2,31,0003-00-0002-86.png,0004-00-0006-82.png
00000014,487,1,1445625693906,1445625694491,370,479,0,0,0,3,5,2,35,0003-00-0006-67.png,0001-00-0003-02.png
00000014,488,1,1445625695426,1445625695961,869,508,0,0,0,4,1,3,41,0005-00-0007-41.png,0004-00-0000-52.png
00000014,489,1,1445625696878,1445625697396,880,402,0,0,0,5,3,2,53,0001-00-0007-90.png,0003-00-0006-88.png
00000014,490,0,1445625698319,1445625698926,365,406,0,0,0,5,1,4,51,0001-00-0001-61.png,0004-00-0002-40.png
00000014,491,1,1445625702008,1445625702432,913,436,0,0,0,4,2,2,42,0005-00-0009-27.png,0002-00-0007-46.png
00000014,492,0,1445625703310,1445625703750,386,546,0,0,0,4,3,1,43,0005-00-0008-23.png,0003-00-0008-67.png
00000014,493,1,1445625706648,1445625707122,955,401,0,0,0,2,1,1,21,0002-00-0005-90.png,0004-00-0005-18.png
00000014,494,0,1445625707968,1445625708406,376,423,0,0,0,5,4,1,54,0001-00-0000-67.png,0005-00-0007-71.png
00000014,495,1,1445625711538,1445625712003,363,493,0,0,0,1,2,1,12,0004-00-0006-77.png,0002-00-0008-55.png
00000014,496,0,1445625712876,1445625713334,900,391,0,0,0,1,3,2,13,0004-00-0002-93.png,0003-00-0009-30.png
00000014,497,0,1445625716177,1445625716719,920,388,0,0,0,4,5,1,45,0005-00-0000-80.png,0001-00-0007-78.png
00000014,498,0,1445625719752,1445625720288,900,476,0,0,0,1,4,3,14,0004-00-0003-72.png,0005-00-0008-41.png
00000014,499,1,1445625723692,1445625724155,940,388,0,0,0,5,2,3,52,0001-00-0009-15.png,0002-00-0007-02.png
00000014,500,1,1445625725368,1445625725822,315,431,0,0,0,2,3,1,23,0002-00-0008-40.png,0003-00-0006-85.png
00000014,501,0,1445625726734,1445625727205,933,407,0,0,0,4,5,1,45,0005-00-0000-99.png,0001-00-0005-79.png
00000014,502,1,1445625730479,1445625730935,928,417,0,0,0,5,3,2,53,0001-00-0006-27.png,0003-00-0009-94.png
00000014,503,1,1445625731850,1445625732330,863,378,0,0,0,4,1,3,41,0005-00-0007-64.png,0004-00-0005-54.png
00000014,504,1,1445625733207,1445625733749,862,397,0,0,0,5,1,4,51,0001-00-0000-23.png,0004-00-0008-87.png
00000014,505,1,1445625734764,1445625735216,901,424,0,0,0,3,1,2,31,0003-00-0002-56.png,0004-00-0009-65.png
00000014,506,0,1445625736102,1445625736640,877,481,0,0,0,3,4,1,34,0003-00-0004-39.png,0005-00-0005-57.png
00000014,507,1,1445625739591,1445625740059,898,487,0,0,0,5,4,1,54,0001-00-0001-45.png,0005-00-0004-39.png
00000014,508,1,1445625740900,1445625741367,352,468,0,0,0,2,3,1,23,0002-00-0006-03.png,0003-00-0001-19.png
00000014,509,1,1445625742353,1445625742926,320,421,0,0,0,3,5,2,35,0003-00-0003-43.png,0001-00-0002-73.png
00000014,510,1,1445625743905,1445625744368,877,522,0,0,0,3,2,1,32,0003-00-0009-01.png,0002-00-0008-58.png
00000014,511,1,1445625745254,1445625745706,368,519,0,0,0,2,5,3,25,0002-00-0001-04.png,0001-00-0005-08.png
00000014,512,0,1445625746704,1445625747251,928,414,0,0,0,1,2,1,12,0004-00-0008-92.png,0002-00-0008-08.png
00000014,513,0,1445625750342,1445625750378,506,419,0,0,0,2,1,1,21,0002-00-0002-40.png,0004-00-0002-21.png
00000014,514,1,1445625753217,1445625753696,902,481,0,0,0,4,2,2,42,0005-00-0007-03.png,0002-00-0000-36.png
00000014,515,1,1445625754587,1445625755087,907,462,0,0,0,5,2,3,52,0001-00-0007-64.png,0002-00-0006-60.png
00000014,516,1,1445625756057,1445625756511,369,513,0,0,0,1,4,3,14,0004-00-0008-72.png,0005-00-0008-48.png
00000014,517,1,1445625757435,1445625757915,329,455,0,0,0,2,4,2,24,0002-00-0009-48.png,0005-00-0009-62.png
00000014,518,1,1445625758950,1445625759368,401,384,0,0,0,1,3,2,13,0004-00-0003-90.png,0003-00-0001-35.png
00000014,519,1,1445625760319,1445625760783,321,441,0,0,0,1,5,4,15,0004-00-0005-40.png,0001-00-0001-18.png
00000014,520,1,1445625761852,1445625762347,904,418,0,0,0,4,3,1,43,0005-00-0000-62.png,0003-00-0003-00.png
00000014,521,0,1445625763294,1445625763765,359,460,0,0,0,5,3,2,53,0001-00-0004-67.png,0003-00-0006-59.png
00000014,522,1,1445625766826,1445625767364,350,358,0,0,0,3,5,2,35,0003-00-0002-24.png,0001-00-0004-11.png
00000014,523,1,1445625768306,1445625768813,901,411,0,0,0,4,2,2,42,0005-00-0006-09.png,0002-00-0005-28.png
00000014,524,1,1445625769718,1445625770184,313,424,0,0,0,2,5,3,25,0002-00-0007-93.png,0001-00-0000-53.png
00000014,525,1,1445625771298,1445625771858,882,423,0,0,0,5,2,3,52,0001-00-0003-97.png,0002-00-0007-76.png
00000014,526,0,1445625772894,1445625773376,880,427,0,0,0,2,3,1,23,0002-00-0001-98.png,0003-00-0001-23.png
00000014,527,1,1445625776451,1445625776893,870,514,0,0,0,4,3,1,43,0005-00-0007-84.png,0003-00-0001-23.png
00000014,528,1,1445625777737,1445625778189,305,437,0,0,0,1,5,4,15,0004-00-0006-05.png,0001-00-0004-54.png
00000014,529,1,1445625779122,1445625779554,364,497,0,0,0,1,3,2,13,0004-00-0007-13.png,0003-00-0007-48.png
00000014,530,1,1445625780541,1445625781060,902,490,0,0,0,5,1,4,51,0001-00-0001-70.png,0004-00-0007-15.png
00000014,531,1,1445625782052,1445625782562,880,481,0,0,0,5,4,1,54,0001-00-0002-43.png,0005-00-0001-69.png
00000014,532,0,1445625783536,1445625783960,337,437,0,0,0,2,1,1,21,0002-00-0004-20.png,0004-00-0006-05.png
00000014,533,1,1445625787306,1445625787809,896,488,0,0,0,3,1,2,31,0003-00-0001-05.png,0004-00-0001-10.png
00000014,534,1,1445625788761,1445625789265,953,415,0,0,0,4,1,3,41,0005-00-0008-55.png,0004-00-0008-60.png
00000014,535,1,1445625790182,1445625790603,317,421,0,0,0,2,4,2,24,0002-00-0001-91.png,0005-00-0009-73.png
00000014,536,1,1445625791615,1445625792136,871,497,0,0,0,3,2,1,32,0003-00-0009-85.png,0002-00-0005-03.png
00000014,537,0,1445625793076,1445625793639,914,448,0,0,0,1,2,1,12,0004-00-0007-64.png,0002-00-0008-39.png
00000014,538,1,1445625797000,1445625797478,309,432,0,0,0,3,4,1,34,0003-00-0006-04.png,0005-00-0000-18.png
00000014,539,0,1445625798412,1445625798923,898,406,0,0,0,4,5,1,45,0005-00-0006-85.png,0001-00-0005-78.png
00000014,540,1,1445625801831,1445625802333,268,433,0,0,0,1,4,3,14,0004-00-0005-04.png,0005-00-0000-47.png
00000014,541,0,1445625803201,1445625803731,911,476,0,0,0,1,2,1,12,0004-00-0004-88.png,0002-00-0007-57.png
00000014,542,1,1445625806798,1445625807269,336,460,0,0,0,2,4,2,24,0002-00-0003-28.png,0005-00-0008-23.png
00000014,543,0,1445625808453,1445625808964,369,503,0,0,0,2,1,1,21,0002-00-0005-97.png,0004-00-0007-56.png
00000014,544,1,1445625812037,1445625812495,927,434,0,0,0,4,3,1,43,0005-00-0006-01.png,0003-00-0006-85.png
00000014,545,1,1445625813434,1445625813894,336,415,0,0,0,1,5,4,15,0004-00-0009-61.png,0001-00-0007-57.png
00000014,546,1,1445625814838,1445625815346,874,491,0,0,0,4,2,2,42,0005-00-0006-94.png,0002-00-0004-04.png
00000014,547,1,1445625816478,1445625816945,899,412,0,0,0,5,2,3,52,0001-00-0002-94.png,0002-00-0004-91.png
00000014,548,1,1445625817887,1445625818313,336,424,0,0,0,2,5,3,25,0002-00-0007-92.png,0001-00-0009-73.png
00000014,549,1,1445625819281,1445625819721,317,421,0,0,0,1,3,2,13,0004-00-0003-44.png,0003-00-0001-64.png
00000014,550,0,1445625820741,1445625821199,376,410,0,0,0,3,1,2,31,0003-00-0008-04.png,0004-00-0009-47.png
00000014,551,0,1445625824265,1445625824711,392,482,0,0,0,5,3,2,53,0001-00-0002-40.png,0003-00-0002-30.png
00000014,552,0,1445625827707,1445625827727,504,347,0,0,0,4,1,3,41,0005-00-0001-42.png,0004-00-0001-76.png
00000014,553,0,1445625830688,1445625831114,388,511,0,0,0,5,4,1,54,0001-00-0007-29.png,0005-00-0009-50.png
00000014,554,1,1445625834156,1445625834631,335,430,0,0,0,3,4,1,34,0003-00-0002-76.png,0005-00-0008-88.png
00000014,555,0,1445625835509,1445625836037,905,427,0,0,0,4,5,1,45,0005-00-0004-35.png,0001-00-0007-22.png
00000014,556,0,1445625839206,1445625839710,898,431,0,0,0,3,5,2,35,0003-00-0003-81.png,0001-00-0008-86.png
00000014,557,0,1445625842726,1445625843189,360,470,0,0,0,5,1,4,51,0001-00-0004-40.png,0004-00-0008-34.png
00000014,558,1,1445625846080,1445625846566,328,322,0,0,0,1,4,3,14,0004-00-0004-15.png,0005-00-0009-94.png
00000014,559,1,1445625847404,1445625847859,905,428,0,0,0,3,2,1,32,0003-00-0004-46.png,0002-00-0005-98.png
00000014,560,1,1445625848799,1445625849192,349,520,0,0,0,2,3,1,23,0002-00-0004-72.png,0003-00-0007-77.png
00000014,561,0,1445625850117,1445625850643,888,445,0,0,0,4,5,1,45,0005-00-0009-17.png,0001-00-0000-51.png
00000014,562,1,1445625853517,1445625853948,897,490,0,0,0,5,3,2,53,0001-00-0004-82.png,0003-00-0000-12.png
00000014,563,1,1445625855125,1445625855608,902,415,0,0,0,4,3,1,43,0005-00-0003-83.png,0003-00-0006-57.png
00000014,564,1,1445625856546,1445625857044,888,448,0,0,0,4,2,2,42,0005-00-0005-67.png,0002-00-0005-16.png
00000014,565,1,1445625858019,1445625858540,872,542,0,0,0,5,4,1,54,0001-00-0009-57.png,0005-00-0003-10.png
00000014,566,1,1445625859459,1445625860069,312,399,0,0,0,1,5,4,15,0004-00-0006-96.png,0001-00-0000-40.png
00000014,567,1,1445625860999,1445625861424,388,515,0,0,0,2,5,3,25,0002-00-0001-52.png,0001-00-0005-00.png
00000014,568,0,1445625862400,1445625862908,880,428,0,0,0,1,3,2,13,0004-00-0002-68.png,0003-00-0003-57.png
00000014,569,1,1445625866606,1445625867139,883,459,0,0,0,5,2,3,52,0001-00-0008-67.png,0002-00-0008-78.png
00000014,570,1,1445625868035,1445625868523,340,468,0,0,0,3,4,1,34,0003-00-0002-96.png,0005-00-0000-09.png
00000014,571,1,1445625869456,1445625869961,307,440,0,0,0,2,4,2,24,0002-00-0006-53.png,0005-00-0004-66.png
00000014,572,1,1445625870875,1445625871378,911,493,0,0,0,2,1,1,21,0002-00-0000-81.png,0004-00-0000-13.png
00000014,573,1,1445625872347,1445625872741,376,410,0,0,0,1,4,3,14,0004-00-0004-16.png,0005-00-0003-74.png
00000014,574,1,1445625873687,1445625874194,900,436,0,0,0,5,1,4,51,0001-00-0007-54.png,0004-00-0004-02.png
00000014,575,1,1445625875140,1445625875667,875,411,0,0,0,3,2,1,32,0003-00-0007-56.png,0002-00-0006-62.png
00000014,576,1,1445625876538,1445625876946,332,446,0,0,0,2,3,1,23,0002-00-0006-06.png,0003-00-0000-30.png
00000014,577,0,1445625878012,1445625878634,933,387,0,0,0,3,5,2,35,0003-00-0003-45.png,0001-00-0006-00.png
00000014,578,0,1445625881707,1445625882240,316,393,0,0,0,3,1,2,31,0003-00-0003-88.png,0004-00-0002-45.png
00000014,579,1,1445625885188,1445625885623,923,464,0,0,0,4,1,3,41,0005-00-0003-10.png,0004-00-0004-55.png
00000014,580,0,1445625886476,1445625886977,896,497,0,0,0,1,2,1,12,0004-00-0001-53.png,0002-00-0009-00.png
00000014,581,1,1445625890121,1445625890505,931,402,0,0,0,3,2,1,32,0003-00-0002-19.png,0002-00-0004-20.png
00000014,582,0,1445625891355,1445625892010,234,488,0,0,0,5,3,2,53,0001-00-0002-68.png,0003-00-0007-32.png
00000014,583,1,1445625895146,1445625895554,924,485,0,0,0,2,1,1,21,0002-00-0002-41.png,0004-00-0005-54.png
00000014,584,1,1445625896396,1445625896920,350,449,0,0,0,3,5,2,35,0003-00-0006-49.png,0001-00-0008-48.png
00000014,585,0,1445625897899,1445625898367,875,409,0,0,0,2,3,1,23,0002-00-0004-46.png,0003-00-0001-80.png
00000014,586,0,1445625901958,1445625902515,343,392,0,0,0,4,3,1,43,0005-00-0002-74.png,0003-00-0005-16.png
00000014,587,1,1445625905651,1445625906095,335,412,0,0,0,1,4,3,14,0004-00-0001-74.png,0005-00-0006-90.png
00000014,588,1,1445625906959,1445625907488,311,439,0,0,0,2,5,3,25,0002-00-0007-70.png,0001-00-0002-02.png
00000014,589,1,1445625908371,1445625908844,350,448,0,0,0,2,4,2,24,0002-00-0004-12.png,0005-00-0005-56.png
00000014,590,1,1445625909783,1445625910249,380,518,0,0,0,1,5,4,15,0004-00-0009-42.png,0001-00-0000-49.png
00000014,591,1,1445625911683,1445625912126,916,418,0,0,0,3,1,2,31,0003-00-0001-13.png,0004-00-0006-41.png
00000014,592,1,1445625913023,1445625913488,388,527,0,0,0,1,2,1,12,0004-00-0007-70.png,0002-00-0005-61.png
00000014,593,0,1445625914473,1445625914901,312,461,0,0,0,4,2,2,42,0005-00-0008-37.png,0002-00-0006-44.png
00000014,594,1,1445625918807,1445625919231,294,394,0,0,0,1,3,2,13,0004-00-0009-71.png,0003-00-0005-78.png
00000014,595,1,1445625920130,1445625920704,879,428,0,0,0,5,1,4,51,0001-00-0009-91.png,0004-00-0005-88.png
00000014,596,1,1445625921618,1445625922078,888,462,0,0,0,5,4,1,54,0001-00-0007-75.png,0005-00-0001-61.png
00000014,597,0,1445625922988,1445625923480,387,555,0,0,0,5,2,3,52,0001-00-0006-24.png,0002-00-0007-03.png
00000014,598,1,1445625926356,1445625926376,504,401,0,0,0,3,4,1,34,0003-00-0007-42.png,0005-00-0005-18.png
00000014,599,0,1445625927272,1445625927817,873,527,0,0,0,4,5,1,45,0005-00-0002-83.png,0001-00-0002-40.png
00000014,600,1,1445625930896,1445625931410,875,502,0,0,0,4,1,3,41,0005-00-0001-10.png,0004-00-0009-78.png
00000014,601,0,1445625932311,1445625932748,401,437,0,0,0,2,1,1,21,0002-00-0000-40.png,0004-00-0000-40.png
00000014,602,1,1445625935730,1445625936215,318,409,0,0,0,3,4,1,34,0003-00-0002-80.png,0005-00-0005-73.png
00000014,603,1,1445625937080,1445625937585,857,406,0,0,0,5,2,3,52,0001-00-0000-33.png,0002-00-0005-36.png
00000014,604,0,1445625938483,1445625939041,344,469,0,0,0,5,3,2,53,0001-00-0001-93.png,0003-00-0002-73.png
00000014,605,1,1445625942179,1445625942643,291,445,0,0,0,2,5,3,25,0002-00-0005-83.png,0001-00-0000-90.png
00000014,606,0,1445625943835,1445625944296,376,410,0,0,0,5,4,1,54,0001-00-0001-01.png,0005-00-0006-40.png
00000014,607,1,1445625947139,1445625947599,904,453,0,0,0,4,1,3,41,0005-00-0009-85.png,0004-00-0003-94.png
00000014,608,1,1445625948459,1445625948962,343,448,0,0,0,1,3,2,13,0004-00-0004-05.png,0003-00-0000-83.png
00000014,609,1,1445625949910,1445625950318,376,423,0,0,0,1,5,4,15,0004-00-0000-95.png,0001-00-0008-87.png
00000014,610,1,1445625951281,1445625951704,376,384,0,0,0,2,3,1,23,0002-00-0003-77.png,0003-00-0008-14.png
00000014,611,1,1445625953127,1445625953583,928,416,0,0,0,3,1,2,31,0003-00-0005-91.png,0004-00-0007-71.png
00000014,612,1,1445625954484,1445625954926,418,419,0,0,0,2,4,2,24,0002-00-0000-56.png,0005-00-0003-46.png
00000014,613,0,1445625955853,1445625956266,376,410,0,0,0,4,2,2,42,0005-00-0002-05.png,0002-00-0008-32.png
00000014,614,1,1445625959760,1445625960230,888,436,0,0,0,3,2,1,32,0003-00-0001-39.png,0002-00-0008-06.png
00000014,615,0,1445625961109,1445625961610,886,451,0,0,0,1,2,1,12,0004-00-0008-90.png,0002-00-0004-10.png
00000014,616,0,1445625966550,1445625967041,884,446,0,0,0,3,5,2,35,0003-00-0008-66.png,0001-00-0006-60.png
00000014,617,0,1445625969963,1445625969983,515,410,0,0,0,5,1,4,51,0001-00-0003-04.png,0004-00-0006-08.png
00000014,618,1,1445625972944,1445625972984,504,414,0,0,0,4,5,1,45,0005-00-0003-98.png,0001-00-0005-98.png
00000014,619,0,1445625973826,1445625974661,874,423,0,0,0,1,4,3,14,0004-00-0003-61.png,0005-00-0005-83.png
00000014,620,1,1445625977586,1445625978559,921,472,0,0,0,4,3,1,43,0005-00-0001-76.png,0003-00-0004-34.png
00000014,621,0,1445625979484,1445625979971,861,476,0,0,0,3,5,2,35,0003-00-0006-91.png,0001-00-0001-60.png
00000014,622,1,1445625983012,1445625983473,388,391,0,0,0,3,4,1,34,0003-00-0000-34.png,0005-00-0001-89.png
00000014,623,1,1445625984388,1445625984863,899,493,0,0,0,4,2,2,42,0005-00-0007-27.png,0002-00-0005-10.png
00000014,624,1,1445625985735,1445625986187,378,419,0,0,0,1,5,4,15,0004-00-0009-22.png,0001-00-0004-19.png
00000014,625,1,1445625987238,1445625987624,333,458,0,0,0,1,3,2,13,0004-00-0009-22.png,0003-00-0004-69.png
00000014,626,1,1445625988975,1445625989408,862,384,0,0,0,5,1,4,51,0001-00-0004-51.png,0004-00-0005-39.png
00000014,627,1,1445625990364,1445625990772,350,462,0,0,0,2,5,3,25,0002-00-0004-20.png,0001-00-0005-27.png
00000014,628,1,1445625991773,1445625992186,314,441,0,0,0,2,4,2,24,0002-00-0003-33.png,0005-00-0009-84.png
00000014,629,1,1445625993206,1445625993730,915,401,0,0,0,3,2,1,32,0003-00-0006-03.png,0002-00-0009-45.png
00000014,630,1,1445625994638,1445625995133,876,435,0,0,0,5,3,2,53,0001-00-0004-77.png,0003-00-0008-58.png
00000014,631,1,1445625996170,1445625996639,345,473,0,0,0,4,5,1,45,0005-00-0005-22.png,0001-00-0005-06.png
00000014,632,1,1445625997579,1445625998097,903,415,0,0,0,4,1,3,41,0005-00-0000-90.png,0004-00-0004-44.png
00000014,633,0,1445625999101,1445625999723,412,548,0,0,0,5,4,1,54,0001-00-0003-78.png,0005-00-0006-52.png
00000014,634,1,1445626002727,1445626003182,376,358,0,0,0,1,4,3,14,0004-00-0000-74.png,0005-00-0007-40.png
00000014,635,1,1445626004106,1445626004515,376,423,0,0,0,1,2,1,12,0004-00-0001-02.png,0002-00-0002-49.png
00000014,636,1,1445626005510,1445626006037,901,424,0,0,0,3,1,2,31,0003-00-0009-67.png,0004-00-0006-67.png
00000014,637,1,1445626006921,1445626007459,868,456,0,0,0,4,3,1,43,0005-00-0004-44.png,0003-00-0007-54.png
00000014,638,1,1445626008422,1445626008813,334,413,0,0,0,2,3,1,23,0002-00-0001-90.png,0003-00-0007-63.png
00000014,639,1,1445626009783,1445626010318,900,435,0,0,0,5,2,3,52,0001-00-0003-32.png,0002-00-0008-76.png
00000014,640,0,1445626011283,1445626011817,376,436,0,0,0,2,1,1,21,0002-00-0008-18.png,0004-00-0000-81.png
00000014,641,1,1445626014657,1445626015066,331,410,0,0,0,2,4,2,24,0002-00-0004-54.png,0005-00-0008-32.png
00000014,642,1,1445626015943,1445626016360,293,462,0,0,0,1,4,3,14,0004-00-0004-22.png,0005-00-0003-51.png
00000014,643,0,1445626017375,1445626017883,334,493,0,0,0,5,3,2,53,0001-00-0001-71.png,0003-00-0004-46.png
00000014,644,1,1445626020806,1445626021253,898,517,0,0,0,5,1,4,51,0001-00-0008-49.png,0004-00-0008-37.png
00000014,645,0,1445626022485,1445626022920,401,436,0,0,0,5,2,3,52,0001-00-0004-11.png,0002-00-0008-33.png
00000014,646,1,1445626026070,1445626026534,337,358,0,0,0,1,2,1,12,0004-00-0001-01.png,0002-00-0003-85.png
00000014,647,0,1445626027376,1445626027928,862,423,0,0,0,3,4,1,34,0003-00-0004-20.png,0005-00-0008-72.png
00000014,648,0,1445626030902,1445626030922,485,421,0,0,0,3,2,1,32,0003-00-0005-68.png,0002-00-0006-13.png
00000014,649,1,1445626033864,1445626034337,874,386,0,0,0,3,1,2,31,0003-00-0007-05.png,0004-00-0006-37.png
00000014,650,1,1445626035215,1445626035671,333,455,0,0,0,4,5,1,45,0005-00-0005-34.png,0001-00-0001-20.png
00000014,651,1,1445626036575,1445626037214,871,382,0,0,0,4,2,2,42,0005-00-0007-55.png,0002-00-0009-14.png
00000014,652,1,1445626038055,1445626038613,325,410,0,0,0,2,3,1,23,0002-00-0003-47.png,0003-00-0003-09.png
00000014,653,1,1445626039559,1445626040074,926,439,0,0,0,4,1,3,41,0005-00-0000-72.png,0004-00-0005-97.png
00000014,654,1,1445626040969,1445626041524,364,436,0,0,0,3,5,2,35,0003-00-0004-50.png,0001-00-0007-69.png
00000014,655,1,1445626042552,1445626043027,391,509,0,0,0,1,5,4,15,0004-00-0008-88.png,0001-00-0007-01.png
00000014,656,0,1445626043961,1445626044617,440,527,0,0,0,5,4,1,54,0001-00-0005-06.png,0005-00-0004-25.png
00000014,657,0,1445626047549,1445626048060,380,492,0,0,0,2,1,1,21,0002-00-0002-08.png,0004-00-0002-92.png
00000014,658,1,1445626051027,1445626051119,504,514,0,0,0,2,5,3,25,0002-00-0009-93.png,0001-00-0000-51.png
00000014,659,1,1445626052061,1445626052458,389,410,0,0,0,1,3,2,13,0004-00-0000-38.png,0003-00-0004-00.png
00000014,660,0,1445626053439,1445626053883,313,424,0,0,0,4,3,1,43,0005-00-0001-64.png,0003-00-0001-91.png
00000014,661,0,1445626056796,1445626057300,905,417,0,0,0,1,2,1,12,0004-00-0005-99.png,0002-00-0007-40.png
00000014,662,0,1445626060229,1445626060663,931,439,0,0,0,4,5,1,45,0005-00-0006-87.png,0001-00-0000-15.png
00000014,663,0,1445626063670,1445626064101,320,395,0,0,0,5,4,1,54,0001-00-0008-04.png,0005-00-0004-89.png
00000014,664,0,1445626066967,1445626067364,922,454,0,0,0,3,4,1,34,0003-00-0005-16.png,0005-00-0009-03.png
00000014,665,0,1445626070476,1445626070920,928,413,0,0,0,3,5,2,35,0003-00-0007-95.png,0001-00-0002-93.png
00000014,666,1,1445626074043,1445626074604,388,443,0,0,0,2,4,2,24,0002-00-0003-55.png,0005-00-0001-34.png
00000014,667,1,1445626075515,1445626076071,362,410,0,0,0,2,5,3,25,0002-00-0005-61.png,0001-00-0002-10.png
00000014,668,1,1445626076965,1445626077513,900,476,0,0,0,2,1,1,21,0002-00-0002-95.png,0004-00-0008-68.png
00000014,669,1,1445626078354,1445626078813,336,427,0,0,0,1,4,3,14,0004-00-0005-37.png,0005-00-0000-28.png
00000014,670,1,1445626079850,1445626080362,893,493,0,0,0,5,2,3,52,0001-00-0001-81.png,0002-00-0004-59.png
00000014,671,0,1445626081279,1445626081794,351,443,0,0,0,4,1,3,41,0005-00-0005-01.png,0004-00-0000-10.png
00000014,672,1,1445626084807,1445626085264,896,488,0,0,0,4,2,2,42,0005-00-0008-10.png,0002-00-0003-09.png
00000014,673,0,1445626086108,1445626086613,924,405,0,0,0,1,3,2,13,0004-00-0004-05.png,0003-00-0003-86.png
00000014,674,1,1445626089925,1445626090366,913,424,0,0,0,5,1,4,51,0001-00-0003-04.png,0004-00-0004-33.png
00000014,675,0,1445626091223,1445626092197,370,399,0,0,0,4,3,1,43,0005-00-0009-83.png,0003-00-0008-88.png
00000014,676,1,1445626095258,1445626095645,944,399,0,0,0,3,1,2,31,0003-00-0009-21.png,0004-00-0009-68.png
00000014,677,1,1445626096521,1445626097229,432,504,0,0,0,2,3,1,23,0002-00-0009-94.png,0003-00-0001-83.png
00000014,678,0,1445626098211,1445626098612,384,445,0,0,0,5,3,2,53,0001-00-0008-40.png,0003-00-0008-94.png
00000014,679,1,1445626101489,1445626101923,321,385,0,0,0,1,5,4,15,0004-00-0008-27.png,0001-00-0001-59.png
00000014,680,1,1445626103149,1445626103533,902,415,0,0,0,3,2,1,32,0003-00-0003-81.png,0002-00-0005-46.png
00000014,681,1,1445626104452,1445626104914,311,475,0,0,0,1,4,3,14,0004-00-0001-25.png,0005-00-0004-77.png
00000014,682,0,1445626105823,1445626106338,887,424,0,0,0,3,5,2,35,0003-00-0000-33.png,0001-00-0004-53.png
00000014,683,1,1445626109323,1445626109745,318,420,0,0,0,1,3,2,13,0004-00-0003-77.png,0003-00-0009-76.png
00000014,684,1,1445626110594,1445626111069,918,399,0,0,0,5,1,4,51,0001-00-0007-38.png,0004-00-0005-54.png
00000014,685,1,1445626111966,1445626112406,401,476,0,0,0,4,5,1,45,0005-00-0004-68.png,0001-00-0007-18.png
00000014,686,1,1445626113360,1445626113817,344,481,0,0,0,1,2,1,12,0004-00-0002-45.png,0002-00-0008-79.png
00000014,687,0,1445626115049,1445626115502,950,415,0,0,0,2,5,3,25,0002-00-0003-95.png,0001-00-0004-41.png
00000014,688,1,1445626119985,1445626120434,895,520,0,0,0,4,1,3,41,0005-00-0006-14.png,0004-00-0000-21.png
00000014,689,1,1445626121317,1445626121753,320,447,0,0,0,1,5,4,15,0004-00-0005-47.png,0001-00-0004-38.png
00000014,690,1,1445626122628,1445626123122,875,437,0,0,0,3,2,1,32,0003-00-0006-71.png,0002-00-0005-03.png
00000014,691,1,1445626124018,1445626124507,921,420,0,0,0,3,1,2,31,0003-00-0009-50.png,0004-00-0008-60.png
00000014,692,0,1445626125372,1445626125845,376,436,0,0,0,4,3,1,43,0005-00-0001-26.png,0003-00-0000-27.png
00000014,693,1,1445626128849,1445626129317,887,474,0,0,0,5,2,3,52,0001-00-0001-02.png,0002-00-0005-19.png
00000014,694,1,1445626130147,1445626130686,357,479,0,0,0,2,4,2,24,0002-00-0009-94.png,0005-00-0008-60.png
00000014,695,1,1445626131530,1445626132117,401,384,0,0,0,2,3,1,23,0002-00-0009-02.png,0003-00-0006-69.png
00000014,696,1,1445626133121,1445626133568,898,431,0,0,0,4,2,2,42,0005-00-0003-19.png,0002-00-0007-31.png
00000014,697,0,1445626134894,1445626135334,337,422,0,0,0,5,3,2,53,0001-00-0003-10.png,0003-00-0003-29.png
00000014,698,0,1445626139145,1445626139576,297,390,0,0,0,2,1,1,21,0002-00-0008-21.png,0004-00-0003-07.png
00000014,699,1,1445626142634,1445626143055,325,397,0,0,0,3,4,1,34,0003-00-0003-13.png,0005-00-0003-50.png
00000014,700,1,1445626144513,1445626145028,877,378,0,0,0,5,4,1,54,0001-00-0006-40.png,0005-00-0000-50.png
00000014,701,1,1445626146430,1445626146884,298,429,0,0,0,2,3,1,23,0002-00-0000-68.png,0003-00-0004-37.png
00000014,702,1,1445626148289,1445626148832,913,474,0,0,0,4,1,3,41,0005-00-0000-59.png,0004-00-0001-68.png
00000014,703,1,1445626150119,1445626150780,902,519,0,0,0,3,2,1,32,0003-00-0003-01.png,0002-00-0006-84.png
00000014,704,1,1445626152107,1445626152528,293,436,0,0,0,2,4,2,24,0002-00-0004-42.png,0005-00-0004-86.png
00000014,705,0,1445626153836,1445626154262,304,456,0,0,0,2,1,1,21,0002-00-0006-65.png,0004-00-0005-75.png
00000014,706,1,1445626157277,1445626157844,915,498,0,0,0,4,2,2,42,0005-00-0004-06.png,0002-00-0007-87.png
00000014,707,1,1445626158881,1445626159376,293,420,0,0,0,1,3,2,13,0004-00-0006-22.png,0003-00-0008-66.png
00000014,708,1,1445626160326,1445626160811,896,487,0,0,0,5,1,4,51,0001-00-0008-03.png,0004-00-0002-53.png
00000014,709,0,1445626161716,1445626162221,902,413,0,0,0,1,2,1,12,0004-00-0006-98.png,0002-00-0002-38.png
00000014,710,1,1445626165981,1445626166418,284,376,0,0,0,1,4,3,14,0004-00-0008-22.png,0005-00-0004-98.png
00000014,711,1,1445626167610,1445626168058,901,435,0,0,0,3,1,2,31,0003-00-0003-60.png,0004-00-0003-52.png
00000014,712,1,1445626168910,1445626169428,323,438,0,0,0,4,5,1,45,0005-00-0002-67.png,0001-00-0000-50.png
00000014,713,1,1445626170269,1445626170779,865,485,0,0,0,5,4,1,54,0001-00-0000-04.png,0005-00-0005-38.png
00000014,714,0,1445626171629,1445626172201,427,384,0,0,0,4,3,1,43,0005-00-0008-59.png,0003-00-0009-60.png
00000014,715,0,1445626176912,1445626177464,318,462,0,0,0,5,3,2,53,0001-00-0009-20.png,0003-00-0003-74.png
00000014,716,1,1445626181841,1445626182292,350,384,0,0,0,1,5,4,15,0004-00-0002-70.png,0001-00-0007-35.png
00000014,717,1,1445626183531,1445626184025,897,519,0,0,0,5,2,3,52,0001-00-0009-04.png,0002-00-0003-21.png
00000014,718,1,1445626184930,1445626185370,295,447,0,0,0,2,5,3,25,0002-00-0001-02.png,0001-00-0008-74.png
00000014,719,0,1445626186612,1445626187091,932,415,0,0,0,3,4,1,34,0003-00-0006-51.png,0005-00-0004-22.png
00000014,720,0,1445626193269,1445626193719,926,400,0,0,0,3,5,2,35,0003-00-0007-18.png,0001-00-0001-72.png
00000014,721,1,1445626197718,1445626198173,368,417,0,0,0,4,5,1,45,0005-00-0000-53.png,0001-00-0004-14.png
00000014,722,1,1445626199736,1445626200139,325,422,0,0,0,2,3,1,23,0002-00-0002-49.png,0003-00-0007-27.png
00000014,723,1,1445626201599,1445626202262,930,492,0,0,0,4,1,3,41,0005-00-0004-39.png,0004-00-0003-71.png
00000014,724,0,1445626203128,1445626203598,334,535,0,0,0,5,4,1,54,0001-00-0008-83.png,0005-00-0006-88.png
00000014,725,1,1445626207875,1445626208334,939,423,0,0,0,4,2,2,42,0005-00-0008-39.png,0002-00-0009-05.png
00000014,726,1,1445626209575,1445626210111,319,426,0,0,0,3,5,2,35,0003-00-0009-00.png,0001-00-0008-73.png
00000014,727,1,1445626211365,1445626211944,876,398,0,0,0,5,3,2,53,0001-00-0000-72.png,0003-00-0008-80.png
00000014,728,1,1445626212916,1445626213403,376,436,0,0,0,1,4,3,14,0004-00-0008-66.png,0005-00-0008-18.png
00000014,729,1,1445626214376,1445626214925,311,449,0,0,0,1,2,1,12,0004-00-0002-29.png,0002-00-0002-47.png
00000014,730,1,1445626215839,1445626216231,311,423,0,0,0,2,5,3,25,0002-00-0003-45.png,0001-00-0005-71.png
00000014,731,0,1445626217130,1445626217714,355,423,0,0,0,3,2,1,32,0003-00-0007-77.png,0002-00-0007-03.png
00000014,732,1,1445626221562,1445626222026,934,421,0,0,0,5,1,4,51,0001-00-0000-59.png,0004-00-0001-77.png
00000014,733,1,1445626223049,1445626223555,391,514,0,0,0,2,4,2,24,0002-00-0008-09.png,0005-00-0001-88.png
00000014,734,0,1445626224871,1445626225298,348,412,0,0,0,2,1,1,21,0002-00-0008-17.png,0004-00-0006-90.png
00000014,735,1,1445626229156,1445626229639,930,390,0,0,0,4,3,1,43,0005-00-0004-20.png,0003-00-0002-46.png
00000014,736,1,1445626230930,1445626231398,881,496,0,0,0,3,1,2,31,0003-00-0000-44.png,0004-00-0001-30.png
00000014,737,0,1445626232368,1445626232949,316,437,0,0,0,5,2,3,52,0001-00-0007-45.png,0002-00-0009-26.png
00000014,738,1,1445626239437,1445626240024,427,410,0,0,0,3,4,1,34,0003-00-0006-43.png,0005-00-0003-63.png
00000014,739,1,1445626241350,1445626241769,304,401,0,0,0,1,5,4,15,0004-00-0006-71.png,0001-00-0003-53.png
00000014,740,1,1445626243188,1445626243662,309,414,0,0,0,1,3,2,13,0004-00-0009-64.png,0003-00-0004-30.png
00000014,741,1,1445626244591,1445626245131,894,486,0,0,0,4,2,2,42,0005-00-0005-23.png,0002-00-0008-90.png
00000014,742,0,1445626245976,1445626246520,881,416,0,0,0,1,3,2,13,0004-00-0002-59.png,0003-00-0003-90.png
00000014,743,0,1445626250563,1445626251020,896,524,0,0,0,4,5,1,45,0005-00-0000-51.png,0001-00-0004-47.png
00000014,744,1,1445626255191,1445626255726,405,363,0,0,0,3,5,2,35,0003-00-0005-99.png,0001-00-0002-34.png
00000014,745,1,1445626256982,1445626257625,876,387,0,0,0,4,1,3,41,0005-00-0008-72.png,0004-00-0005-37.png
00000014,746,1,1445626258762,1445626259282,870,472,0,0,0,3,2,1,32,0003-00-0002-40.png,0002-00-0004-08.png
00000014,747,1,1445626260194,1445626260662,355,545,0,0,0,2,5,3,25,0002-00-0006-63.png,0001-00-0000-95.png
00000014,748,0,1445626261571,1445626262058,316,439,0,0,0,4,3,1,43,0005-00-0005-27.png,0003-00-0007-47.png
00000014,749,1,1445626265471,1445626265899,950,404,0,0,0,5,1,4,51,0001-00-0005-25.png,0004-00-0000-88.png
00000014,750,0,1445626267162,1445626267644,344,499,0,0,0,3,1,2,31,0003-00-0003-74.png,0004-00-0008-70.png
00000014,751,0,1445626270809,1445626271282,869,520,0,0,0,3,4,1,34,0003-00-0007-83.png,0005-00-0007-97.png
00000014,752,1,1445626275253,1445626275844,420,479,0,0,0,1,5,4,15,0004-00-0007-51.png,0001-00-0008-56.png
00000014,753,1,1445626277020,1445626277448,309,434,0,0,0,2,3,1,23,0002-00-0006-77.png,0003-00-0006-59.png
00000014,754,0,1445626278390,1445626278818,334,457,0,0,0,2,1,1,21,0002-00-0001-08.png,0004-00-0001-27.png
00000014,755,1,1445626282356,1445626282788,922,393,0,0,0,5,4,1,54,0001-00-0004-30.png,0005-00-0000-62.png
00000014,756,1,1445626284049,1445626284534,902,435,0,0,0,5,3,2,53,0001-00-0009-01.png,0003-00-0008-37.png
00000014,757,0,1445626285667,1445626286154,909,523,0,0,0,1,2,1,12,0004-00-0007-68.png,0002-00-0006-40.png
00000014,758,1,1445626289432,1445626289961,397,519,0,0,0,2,4,2,24,0002-00-0008-28.png,0005-00-0007-36.png
00000014,759,1,1445626291203,1445626291812,914,455,0,0,0,5,2,3,52,0001-00-0002-76.png,0002-00-0007-16.png
00000014,760,1,1445626292783,1445626293226,386,426,0,0,0,1,4,3,14,0004-00-0006-31.png,0005-00-0002-77.png
00000014,761,0,1445626294140,1445626294595,309,448,0,0,0,5,4,1,54,0001-00-0002-53.png,0005-00-0005-21.png
00000014,762,1,1445626298265,1445626298697,372,403,0,0,0,1,2,1,12,0004-00-0002-77.png,0002-00-0006-48.png
00000014,763,0,1445626299736,1445626300151,376,462,0,0,0,3,2,1,32,0003-00-0008-91.png,0002-00-0008-32.png
00000014,764,1,1445626304061,1445626304499,938,450,0,0,0,4,2,2,42,0005-00-0000-07.png,0002-00-0007-59.png
00000014,765,1,1445626305683,1445626306201,927,410,0,0,0,5,1,4,51,0001-00-0005-24.png,0004-00-0006-18.png
00000014,766,1,1445626307333,1445626307784,289,456,0,0,0,3,5,2,35,0003-00-0008-60.png,0001-00-0009-19.png
00000014,767,1,1445626308924,1445626309315,309,455,0,0,0,1,5,4,15,0004-00-0006-91.png,0001-00-0002-08.png
00000014,768,0,1445626310372,1445626310880,876,423,0,0,0,1,4,3,14,0004-00-0004-46.png,0005-00-0008-42.png
00000014,769,0,1445626314922,1445626315371,878,519,0,0,0,4,5,1,45,0005-00-0000-30.png,0001-00-0006-17.png
00000014,770,1,1445626318333,1445626318732,926,488,0,0,0,4,1,3,41,0005-00-0006-52.png,0004-00-0008-18.png
00000014,771,1,1445626319646,1445626320204,927,449,0,0,0,2,1,1,21,0002-00-0001-97.png,0004-00-0005-56.png
00000014,772,0,1445626321095,1445626321834,422,532,0,0,0,4,3,1,43,0005-00-0008-09.png,0003-00-0002-29.png
00000014,773,1,1445626324875,1445626325292,267,382,0,0,0,1,3,2,13,0004-00-0000-82.png,0003-00-0004-48.png
00000014,774,1,1445626326336,1445626326806,914,423,0,0,0,5,3,2,53,0001-00-0000-22.png,0003-00-0000-99.png
00000014,775,1,1445626327709,1445626328151,350,410,0,0,0,2,3,1,23,0002-00-0008-19.png,0003-00-0007-64.png
00000014,776,1,1445626328996,1445626329407,360,535,0,0,0,2,5,3,25,0002-00-0006-90.png,0001-00-0008-21.png
00000014,777,0,1445626330400,1445626330819,322,466,0,0,0,3,1,2,31,0003-00-0006-30.png,0004-00-0001-11.png
00000014,778,0,1445626335989,1445626336403,872,543,0,0,0,3,4,1,34,0003-00-0009-76.png,0005-00-0004-23.png
00000014,779,1,1445626339242,1445626339678,931,415,0,0,0,5,2,3,52,0001-00-0003-62.png,0002-00-0004-03.png
00000014,780,0,1445626340866,1445626341372,912,424,0,0,0,2,4,2,24,0002-00-0008-61.png,0005-00-0004-75.png
00000014,781,0,1445626344343,1445626344761,349,422,0,0,0,2,1,1,21,0002-00-0003-96.png,0004-00-0002-92.png
00000014,782,1,1445626347620,1445626347986,898,390,0,0,0,5,3,2,53,0001-00-0008-03.png,0003-00-0005-62.png
00000014,783,0,1445626348979,1445626349393,932,419,0,0,0,2,4,2,24,0002-00-0001-24.png,0005-00-0005-18.png
00000014,784,1,1445626353665,1445626354117,889,487,0,0,0,5,4,1,54,0001-00-0001-23.png,0005-00-0002-70.png
00000014,785,1,1445626355433,1445626355921,316,416,0,0,0,2,3,1,23,0002-00-0007-49.png,0003-00-0005-20.png
00000014,786,0,1445626357143,1445626357717,373,392,0,0,0,5,1,4,51,0001-00-0004-08.png,0004-00-0007-12.png
00000014,787,1,1445626361884,1445626362445,350,475,0,0,0,2,5,3,25,0002-00-0009-76.png,0001-00-0000-61.png
00000014,788,0,1445626363624,1445626364074,324,442,0,0,0,4,3,1,43,0005-00-0000-50.png,0003-00-0009-03.png
00000014,789,0,1445626367262,1445626367690,924,406,0,0,0,3,4,1,34,0003-00-0000-69.png,0005-00-0009-51.png
00000014,790,0,1445626372240,1445626372740,966,460,0,0,0,4,5,1,45,0005-00-0008-19.png,0001-00-0001-26.png
00000014,791,1,1445626375837,1445626376305,968,429,0,0,0,5,2,3,52,0001-00-0001-40.png,0002-00-0000-11.png
00000014,792,1,1445626377398,1445626377960,337,407,0,0,0,3,5,2,35,0003-00-0000-42.png,0001-00-0007-15.png
00000014,793,1,1445626379706,1445626380207,905,493,0,0,0,3,2,1,32,0003-00-0002-31.png,0002-00-0004-79.png
00000014,794,1,1445626381522,1445626382038,924,483,0,0,0,4,2,2,42,0005-00-0003-37.png,0002-00-0004-25.png
00000014,795,1,1445626383010,1445626383446,311,448,0,0,0,1,3,2,13,0004-00-0007-83.png,0003-00-0008-49.png
00000014,796,1,1445626384342,1445626384777,386,535,0,0,0,1,5,4,15,0004-00-0000-92.png,0001-00-0006-71.png
00000014,797,1,1445626385696,1445626386142,326,441,0,0,0,1,4,3,14,0004-00-0004-31.png,0005-00-0000-91.png
00000014,798,0,1445626386996,1445626387510,869,392,0,0,0,1,2,1,12,0004-00-0009-40.png,0002-00-0006-17.png
00000014,799,1,1445626390809,1445626391346,875,502,0,0,0,3,1,2,31,0003-00-0009-48.png,0004-00-0003-45.png
00000014,800,1,1445626392658,1445626393158,920,419,0,0,0,4,1,3,41,0005-00-0006-59.png,0004-00-0008-05.png
00000014,801,1,1445626394450,1445626395039,393,398,0,0,0,2,3,1,23,0002-00-0009-76.png,0003-00-0003-04.png
00000014,802,1,1445626396401,1445626396885,927,423,0,0,0,5,1,4,51,0001-00-0001-37.png,0004-00-0000-68.png
00000014,803,1,1445626398110,1445626398607,298,417,0,0,0,1,3,2,13,0004-00-0007-08.png,0003-00-0002-25.png
00000014,804,1,1445626399653,1445626400148,955,413,0,0,0,3,1,2,31,0003-00-0002-88.png,0004-00-0009-67.png
00000014,805,1,1445626401081,1445626401588,344,420,0,0,0,2,5,3,25,0002-00-0002-03.png,0001-00-0003-00.png
00000014,806,1,1445626402510,1445626402977,401,410,0,0,0,1,5,4,15,0004-00-0008-32.png,0001-00-0007-09.png
00000014,807,0,1445626403934,1445626404522,401,424,0,0,0,5,4,1,54,0001-00-0007-35.png,0005-00-0001-39.png
00000014,808,0,1445626407781,1445626408253,418,436,0,0,0,2,1,1,21,0002-00-0004-59.png,0004-00-0000-94.png
00000014,809,1,1445626411478,1445626411915,888,384,0,0,0,5,2,3,52,0001-00-0008-17.png,0002-00-0003-70.png
00000014,810,1,1445626412970,1445626413427,330,478,0,0,0,4,5,1,45,0005-00-0008-45.png,0001-00-0005-29.png
00000014,811,0,1445626414477,1445626415007,863,501,0,0,0,1,2,1,12,0004-00-0006-90.png,0002-00-0002-91.png
00000014,812,1,1445626420209,1445626420689,974,410,0,0,0,4,1,3,41,0005-00-0007-24.png,0004-00-0001-93.png
00000014,813,0,1445626421883,1445626422349,956,431,0,0,0,3,4,1,34,0003-00-0005-57.png,0005-00-0007-55.png
00000014,814,0,1445626425493,1445626426001,903,521,0,0,0,2,4,2,24,0002-00-0000-97.png,0005-00-0009-80.png
00000014,815,1,1445626429496,1445626430057,427,410,0,0,0,3,5,2,35,0003-00-0005-39.png,0001-00-0007-41.png
00000014,816,0,1445626431236,1445626431782,331,436,0,0,0,4,3,1,43,0005-00-0001-59.png,0003-00-0009-59.png
00000014,817,1,1445626435164,1445626435653,949,429,0,0,0,4,2,2,42,0005-00-0007-35.png,0002-00-0008-48.png
00000014,818,0,1445626436998,1445626437492,333,441,0,0,0,3,2,1,32,0003-00-0002-58.png,0002-00-0001-93.png
00000014,819,0,1445626441840,1445626442273,363,449,0,0,0,5,3,2,53,0001-00-0004-91.png,0003-00-0009-03.png
00000014,820,0,1445626445747,1445626446190,939,397,0,0,0,1,4,3,14,0004-00-0005-64.png,0005-00-0009-90.png
00000014,821,1,1445626449582,1445626450048,932,421,0,0,0,4,1,3,41,0005-00-0007-20.png,0004-00-0002-66.png
00000014,822,1,1445626451418,1445626451917,896,514,0,0,0,3,1,2,31,0003-00-0008-06.png,0004-00-0003-38.png
00000014,823,1,1445626452922,1445626453358,939,372,0,0,0,2,1,1,21,0002-00-0003-00.png,0004-00-0004-38.png
00000014,824,1,1445626454272,1445626454739,900,422,0,0,0,4,2,2,42,0005-00-0008-27.png,0002-00-0001-75.png
00000014,825,0,1445626456241,1445626456744,900,475,0,0,0,1,2,1,12,0004-00-0009-49.png,0002-00-0008-51.png
00000014,826,1,1445626461659,1445626462173,360,420,0,0,0,1,4,3,14,0004-00-0009-80.png,0005-00-0000-44.png
00000014,827,1,1445626463318,1445626463791,340,408,0,0,0,2,4,2,24,0002-00-0002-02.png,0005-00-0007-08.png
00000014,828,1,1445626464668,1445626465076,350,410,0,0,0,2,3,1,23,0002-00-0005-96.png,0003-00-0007-86.png
00000014,829,1,1445626465950,1445626466523,926,397,0,0,0,5,2,3,52,0001-00-0005-77.png,0002-00-0004-89.png
00000014,830,0,1445626467383,1445626467877,363,424,0,0,0,5,1,4,51,0001-00-0004-40.png,0004-00-0003-05.png
00000014,831,0,1445626471338,1445626471840,401,423,0,0,0,4,3,1,43,0005-00-0008-47.png,0003-00-0003-95.png
00000014,832,1,1445626475502,1445626475905,305,412,0,0,0,4,5,1,45,0005-00-0006-26.png,0001-00-0005-45.png
00000014,833,1,1445626477117,1445626477766,410,362,0,0,0,3,5,2,35,0003-00-0001-19.png,0001-00-0003-49.png
00000014,834,0,1445626478883,1445626479376,350,384,0,0,0,5,3,2,53,0001-00-0000-44.png,0003-00-0008-57.png
00000014,835,0,1445626482261,1445626482305,478,427,0,0,0,5,4,1,54,0001-00-0005-48.png,0005-00-0006-64.png
00000014,836,1,1445626486087,1445626487171,975,478,0,0,0,3,2,1,32,0003-00-0009-44.png,0002-00-0003-36.png
00000014,837,1,1445626488361,1445626488773,401,384,0,0,0,1,3,2,13,0004-00-0002-38.png,0003-00-0006-89.png
00000014,838,1,1445626489897,1445626490366,311,461,0,0,0,3,4,1,34,0003-00-0007-84.png,0005-00-0001-04.png
00000014,839,1,1445626491504,1445626492043,266,395,0,0,0,1,5,4,15,0004-00-0001-72.png,0001-00-0007-78.png
00000014,840,1,1445626493004,1445626493417,376,410,0,0,0,2,5,3,25,0002-00-0000-01.png,0001-00-0004-85.png
00000014,841,1,1445626494305,1445626494813,884,498,0,0,0,4,2,2,42,0005-00-0005-76.png,0002-00-0006-88.png
00000014,842,1,1445626496105,1445626496527,329,429,0,0,0,1,5,4,15,0004-00-0007-48.png,0001-00-0004-42.png
00000014,843,1,1445626497396,1445626497797,412,431,0,0,0,3,4,1,34,0003-00-0008-51.png,0005-00-0003-51.png
00000014,844,1,1445626498717,1445626499248,899,410,0,0,0,2,1,1,21,0002-00-0002-28.png,0004-00-0001-42.png
00000014,845,1,1445626500085,1445626500656,953,387,0,0,0,3,1,2,31,0003-00-0004-84.png,0004-00-0007-01.png
00000014,846,1,1445626501865,1445626502319,350,410,0,0,0,1,3,2,13,0004-00-0009-23.png,0003-00-0000-97.png
00000014,847,1,1445626503258,1445626503684,394,419,0,0,0,2,4,2,24,0002-00-0001-61.png,0005-00-0008-73.png
00000014,848,0,1445626504600,1445626505074,383,462,0,0,0,5,3,2,53,0001-00-0009-33.png,0003-00-0000-82.png
00000014,849,1,1445626508544,1445626509071,345,446,0,0,0,2,5,3,25,0002-00-0006-45.png,0001-00-0003-76.png
00000014,850,1,1445626511399,1445626511876,919,414,0,0,0,3,2,1,32,0003-00-0006-93.png,0002-00-0003-35.png
00000014,851,0,1445626513007,1445626513696,927,372,0,0,0,1,2,1,12,0004-00-0005-13.png,0002-00-0006-64.png
00000014,852,1,1445626516774,1445626517208,427,501,0,0,0,1,4,3,14,0004-00-0001-18.png,0005-00-0008-58.png
00000014,853,1,1445626519050,1445626519545,893,526,0,0,0,5,2,3,52,0001-00-0007-16.png,0002-00-0005-01.png
00000014,854,1,1445626520632,1445626521123,376,410,0,0,0,3,5,2,35,0003-00-0003-47.png,0001-00-0001-96.png
00000014,855,1,1445626522536,1445626522956,362,553,0,0,0,4,5,1,45,0005-00-0005-89.png,0001-00-0001-49.png
00000014,856,0,1445626523999,1445626524383,325,449,0,0,0,5,1,4,51,0001-00-0001-41.png,0004-00-0001-53.png
00000014,857,0,1445626527619,1445626528160,415,391,0,0,0,5,4,1,54,0001-00-0005-45.png,0005-00-0000-87.png
00000014,858,1,1445626531206,1445626531641,888,449,0,0,0,4,3,1,43,0005-00-0005-69.png,0003-00-0009-34.png
00000014,859,1,1445626532512,1445626532974,392,392,0,0,0,2,3,1,23,0002-00-0003-97.png,0003-00-0004-23.png
00000014,860,1,1445626533817,1445626534934,908,453,0,0,0,4,1,3,41,0005-00-0009-75.png,0004-00-0000-51.png
00000014,861,1,1445626535756,1445626536214,416,560,0,0,0,3,5,2,35,0003-00-0004-14.png,0001-00-0000-80.png
00000014,862,1,1445626537065,1445626537610,343,479,0,0,0,2,3,1,23,0002-00-0009-37.png,0003-00-0005-92.png
00000014,863,0,1445626538561,1445626539162,884,514,0,0,0,1,2,1,12,0004-00-0004-42.png,0002-00-0006-07.png
00000014,864,0,1445626542227,1445626542797,343,422,0,0,0,5,3,2,53,0001-00-0000-20.png,0003-00-0003-07.png
00000014,865,1,1445626546132,1445626546587,937,424,0,0,0,5,1,4,51,0001-00-0005-69.png,0004-00-0003-28.png
00000014,866,0,1445626547454,1445626547947,389,553,0,0,0,2,1,1,21,0002-00-0006-97.png,0004-00-0003-42.png
00000014,867,1,1445626556205,1445626556708,990,462,0,0,0,4,2,2,42,0005-00-0001-02.png,0002-00-0006-94.png
00000014,868,1,1445626558135,1445626558605,321,469,0,0,0,1,4,3,14,0004-00-0009-30.png,0005-00-0006-10.png
00000014,869,0,1445626559865,1445626560410,905,427,0,0,0,3,4,1,34,0003-00-0000-29.png,0005-00-0008-47.png
00000014,870,1,1445626563839,1445626564293,401,500,0,0,0,1,3,2,13,0004-00-0006-89.png,0003-00-0005-35.png
00000014,871,0,1445626565499,1445626566012,901,410,0,0,0,4,5,1,45,0005-00-0003-82.png,0001-00-0003-80.png
00000014,872,1,1445626569794,1445626570299,927,423,0,0,0,5,4,1,54,0001-00-0003-16.png,0005-00-0002-35.png
00000014,873,1,1445626572021,1445626572501,931,427,0,0,0,5,2,3,52,0001-00-0001-89.png,0002-00-0003-24.png
00000014,874,1,1445626573659,1445626574122,313,476,0,0,0,1,5,4,15,0004-00-0008-47.png,0001-00-0009-67.png
00000014,875,1,1445626575380,1445626575856,931,394,0,0,0,4,1,3,41,0005-00-0009-71.png,0004-00-0006-62.png
00000014,876,1,1445626576931,1445626577382,316,439,0,0,0,2,4,2,24,0002-00-0008-02.png,0005-00-0006-43.png
00000014,877,1,1445626578390,1445626578818,325,475,0,0,0,2,5,3,25,0002-00-0006-97.png,0001-00-0008-57.png
00000014,878,1,1445626580252,1445626581110,923,406,0,0,0,4,3,1,43,0005-00-0003-45.png,0003-00-0004-69.png
00000014,879,1,1445626582022,1445626582490,927,439,0,0,0,3,2,1,32,0003-00-0009-39.png,0002-00-0007-30.png
00000014,880,1,1445626583431,1445626583881,904,440,0,0,0,3,1,2,31,0003-00-0007-90.png,0004-00-0005-79.png
00000014,881,0,1445626584770,1445626585245,905,427,0,0,0,3,4,1,34,0003-00-0002-25.png,0005-00-0007-68.png
00000014,882,1,1445626588926,1445626589477,938,487,0,0,0,4,1,3,41,0005-00-0008-83.png,0004-00-0009-88.png
00000014,883,1,1445626590775,1445626591270,927,410,0,0,0,5,2,3,52,0001-00-0005-35.png,0002-00-0009-61.png
00000014,884,1,1445626592165,1445626592622,313,424,0,0,0,2,3,1,23,0002-00-0002-23.png,0003-00-0002-31.png
00000014,885,1,1445626593483,1445626594088,418,445,0,0,0,1,5,4,15,0004-00-0007-77.png,0001-00-0006-34.png
00000014,886,0,1445626595044,1445626595551,908,414,0,0,0,1,2,1,12,0004-00-0009-00.png,0002-00-0001-17.png
00000014,887,1,1445626598814,1445626599286,936,413,0,0,0,3,1,2,31,0003-00-0005-71.png,0004-00-0006-68.png
00000014,888,1,1445626600583,1445626601048,339,416,0,0,0,1,3,2,13,0004-00-0009-55.png,0003-00-0002-95.png
00000014,889,1,1445626602294,1445626602761,940,442,0,0,0,3,2,1,32,0003-00-0009-40.png,0002-00-0006-11.png
00000014,890,0,1445626603609,1445626604180,344,499,0,0,0,5,1,4,51,0001-00-0000-18.png,0004-00-0001-62.png
00000014,891,1,1445626610053,1445626610484,945,409,0,0,0,4,2,2,42,0005-00-0005-84.png,0002-00-0007-70.png
00000014,892,0,1445626612279,1445626612750,934,428,0,0,0,4,5,1,45,0005-00-0002-89.png,0001-00-0002-56.png
00000014,893,0,1445626615848,1445626616271,413,503,0,0,0,5,4,1,54,0001-00-0001-44.png,0005-00-0000-83.png
00000014,894,0,1445626619516,1445626620000,339,395,0,0,0,4,3,1,43,0005-00-0003-13.png,0003-00-0008-13.png
00000014,895,0,1445626623252,1445626623663,951,410,0,0,0,3,5,2,35,0003-00-0007-64.png,0001-00-0003-65.png
00000014,896,1,1445626626634,1445626626699,490,384,0,0,0,2,5,3,25,0002-00-0002-07.png,0001-00-0009-71.png
00000014,897,0,1445626628101,1445626628573,365,547,0,0,0,2,1,1,21,0002-00-0008-57.png,0004-00-0009-89.png
00000014,898,1,1445626631630,1445626632126,912,398,0,0,0,5,3,2,53,0001-00-0001-97.png,0003-00-0009-68.png
00000014,899,1,1445626633350,1445626633782,314,458,0,0,0,2,4,2,24,0002-00-0005-11.png,0005-00-0008-88.png
00000014,900,1,1445626634741,1445626635173,311,448,0,0,0,1,4,3,14,0004-00-0008-37.png,0005-00-0006-52.png
00000014,901,0,1445626636288,1445626636800,382,518,0,0,0,3,2,1,32,0003-00-0004-63.png,0002-00-0009-19.png
00000014,902,1,1445626640030,1445626640462,333,419,0,0,0,2,5,3,25,0002-00-0006-19.png,0001-00-0004-89.png
00000014,903,1,1445626641629,1445626642076,413,541,0,0,0,3,4,1,34,0003-00-0003-80.png,0005-00-0007-73.png
00000014,904,0,1445626642950,1445626643433,931,414,0,0,0,4,5,1,45,0005-00-0005-59.png,0001-00-0001-59.png
00000014,905,1,1445626646507,1445626646947,928,408,0,0,0,4,1,3,41,0005-00-0009-07.png,0004-00-0004-37.png
00000014,906,0,1445626647805,1445626648237,387,462,0,0,0,5,3,2,53,0001-00-0002-30.png,0003-00-0005-23.png
00000014,907,1,1445626651480,1445626651902,905,375,0,0,0,4,3,1,43,0005-00-0003-71.png,0003-00-0000-62.png
00000014,908,1,1445626652999,1445626653480,896,488,0,0,0,4,2,2,42,0005-00-0008-60.png,0002-00-0004-42.png
00000014,909,1,1445626654327,1445626654788,376,410,0,0,0,1,5,4,15,0004-00-0005-38.png,0001-00-0007-95.png
00000014,910,1,1445626655648,1445626656165,880,427,0,0,0,5,2,3,52,0001-00-0003-82.png,0002-00-0008-22.png
00000014,911,0,1445626657100,1445626658023,869,475,0,0,0,3,5,2,35,0003-00-0000-16.png,0001-00-0002-75.png
00000014,912,1,1445626662012,1445626662517,348,397,0,0,0,1,2,1,12,0004-00-0003-13.png,0002-00-0009-30.png
00000014,913,1,1445626663800,1445626664271,357,491,0,0,0,2,4,2,24,0002-00-0000-62.png,0005-00-0006-48.png
00000014,914,1,1445626665352,1445626665826,927,384,0,0,0,3,1,2,31,0003-00-0000-09.png,0004-00-0001-26.png
00000014,915,1,1445626666772,1445626667220,388,542,0,0,0,1,4,3,14,0004-00-0005-15.png,0005-00-0008-09.png
00000014,916,1,1445626668432,1445626668912,900,410,0,0,0,5,4,1,54,0001-00-0007-60.png,0005-00-0008-05.png
00000014,917,0,1445626670062,1445626670489,363,443,0,0,0,2,1,1,21,0002-00-0007-47.png,0004-00-0004-52.png
00000014,918,1,1445626673718,1445626674180,402,510,0,0,0,1,3,2,13,0004-00-0005-54.png,0003-00-0000-46.png
00000014,919,1,1445626675341,1445626675802,337,444,0,0,0,2,3,1,23,0002-00-0007-13.png,0003-00-0007-08.png
00000014,920,0,1445626677120,1445626677591,348,488,0,0,0,5,1,4,51,0001-00-0000-08.png,0004-00-0002-61.png
00000014,921,0,1445626680769,1445626681272,929,415,0,0,0,2,4,2,24,0002-00-0004-25.png,0005-00-0000-71.png
00000014,922,0,1445626684324,1445626684772,924,430,0,0,0,3,4,1,34,0003-00-0005-85.png,0005-00-0003-92.png
00000014,923,0,1445626688039,1445626688604,955,505,0,0,0,1,2,1,12,0004-00-0002-62.png,0002-00-0008-53.png
00000014,924,1,1445626692095,1445626692594,925,485,0,0,0,5,2,3,52,0001-00-0008-56.png,0002-00-0003-93.png
00000014,925,0,1445626693675,1445626694209,352,427,0,0,0,4,2,2,42,0005-00-0008-54.png,0002-00-0009-40.png
00000014,926,1,1445626697065,1445626697517,948,487,0,0,0,4,1,3,41,0005-00-0008-76.png,0004-00-0005-74.png
00000014,927,1,1445626698355,1445626698781,905,401,0,0,0,3,1,2,31,0003-00-0006-42.png,0004-00-0004-47.png
00000014,928,1,1445626699679,1445626700075,337,406,0,0,0,1,5,4,15,0004-00-0009-64.png,0001-00-0007-37.png
00000014,929,1,1445626700951,1445626701506,897,405,0,0,0,2,1,1,21,0002-00-0001-50.png,0004-00-0001-65.png
00000014,930,1,1445626702360,1445626702899,860,414,0,0,0,4,3,1,43,0005-00-0001-68.png,0003-00-0003-03.png
00000014,931,0,1445626703792,1445626704253,345,446,0,0,0,5,1,4,51,0001-00-0006-53.png,0004-00-0005-42.png
00000014,932,1,1445626707291,1445626707696,902,480,0,0,0,5,3,2,53,0001-00-0009-34.png,0003-00-0005-03.png
00000014,933,1,1445626708742,1445626709175,392,444,0,0,0,1,3,2,13,0004-00-0009-19.png,0003-00-0006-29.png
00000014,934,1,1445626710124,1445626710558,311,474,0,0,0,1,4,3,14,0004-00-0009-64.png,0005-00-0009-04.png
00000014,935,0,1445626711495,1445626712196,386,420,0,0,0,3,2,1,32,0003-00-0009-45.png,0002-00-0002-55.png
00000014,936,1,1445626715481,1445626716023,376,422,0,0,0,2,5,3,25,0002-00-0008-78.png,0001-00-0006-91.png
00000014,937,1,1445626717209,1445626717676,389,436,0,0,0,3,5,2,35,0003-00-0008-18.png,0001-00-0009-24.png
00000014,938,1,1445626718830,1445626719278,325,489,0,0,0,4,5,1,45,0005-00-0006-83.png,0001-00-0005-06.png
00000014,939,0,1445626720201,1445626720620,418,471,0,0,0,5,4,1,54,0001-00-0006-17.png,0005-00-0006-31.png
00000014,940,1,1445626723988,1445626724429,307,445,0,0,0,2,3,1,23,0002-00-0004-28.png,0003-00-0003-14.png
00000014,941,1,1445626726024,1445626726479,888,527,0,0,0,3,2,1,32,0003-00-0003-07.png,0002-00-0003-14.png
00000014,942,1,1445626727615,1445626728209,381,545,0,0,0,3,5,2,35,0003-00-0009-13.png,0001-00-0001-09.png
