subject_id,trial,correct_response,stim_time,response_time,x_coord,y_coord,trial_timeout,timeout_time,interTrial_timeout,left_rank,right_rank,distance,joint_rank,left_image,right_image
9,1,0,1444929391373,1444929392054,382,451,0,0,0,2,4,2,24,0002-00-0003-77.png,0005-00-0002-69.png
9,2,0,1444929408231,1444929409026,914,354,0,0,0,5,4,1,54,0001-00-0005-00.png,0005-00-0002-29.png
9,3,0,1444929410348,1444929410901,990,491,0,0,0,2,4,2,24,0002-00-0006-00.png,0005-00-0000-83.png
9,4,0,1444929412037,1444929412045,925,292,0,0,0,3,5,2,35,0003-00-0005-45.png,0001-00-0001-55.png
9,5,1,1444929415178,1444929415190,860,333,0,0,0,5,4,1,54,0001-00-0009-10.png,0005-00-0007-73.png
9,6,0,1444929418319,1444929418844,979,416,0,0,0,2,3,1,23,0002-00-0006-28.png,0003-00-0006-73.png
9,7,1,1444929420246,1444929420942,939,344,0,0,0,1,2,1,12,0004-00-0009-94.png,0002-00-0005-22.png
9,8,1,1444929422205,1444929422816,327,347,0,0,0,3,1,2,31,0003-00-0006-55.png,0004-00-0007-21.png
9,9,1,1444929424181,1444929424699,344,371,0,0,0,5,4,1,54,0001-00-0004-85.png,0005-00-0006-36.png
9,10,1,1444929427889,1444929428393,958,402,0,0,0,2,1,1,21,0002-00-0001-67.png,0004-00-0002-57.png
9,11,1,1444929429356,1444929429464,858,432,0,0,0,3,4,1,34,0003-00-0003-86.png,0005-00-0002-02.png
9,12,1,1444929430691,1444929431531,432,246,0,0,0,3,2,1,32,0003-00-0009-44.png,0002-00-0008-81.png
9,13,1,1444929432406,1444929433012,424,262,0,0,0,5,2,3,52,0001-00-0007-12.png,0002-00-0008-09.png
9,14,1,1444929434276,1444929435097,409,242,0,0,0,3,2,1,32,0003-00-0002-10.png,0002-00-0004-07.png
9,15,1,1444929436107,1444929436155,878,366,0,0,0,4,1,3,41,0005-00-0008-02.png,0004-00-0002-08.png
9,16,0,1444929438352,1444929439680,396,429,0,0,0,2,5,3,25,0002-00-0002-31.png,0001-00-0002-70.png
9,17,1,1444929440986,1444929441821,1041,279,0,0,0,1,2,1,12,0004-00-0008-19.png,0002-00-0009-23.png
9,18,1,1444929443034,1444929443719,942,332,0,0,0,4,5,1,45,0005-00-0009-22.png,0001-00-0001-17.png
9,19,1,1444929444702,1444929444726,875,389,0,0,0,5,2,3,52,0001-00-0002-15.png,0002-00-0003-60.png
9,20,1,1444929449194,1444929449726,936,409,0,0,0,4,5,1,45,0005-00-0007-00.png,0001-00-0004-75.png
9,21,1,1444929450604,1444929451351,389,292,0,0,0,3,1,2,31,0003-00-0008-04.png,0004-00-0002-81.png
9,22,0,1444929452551,1444929453344,321,473,0,0,0,3,5,2,35,0003-00-0001-36.png,0001-00-0001-21.png
9,23,0,1444929455132,1444929455778,926,358,0,0,0,3,4,1,34,0003-00-0003-46.png,0005-00-0001-77.png
9,24,1,1444929456905,1444929456949,873,358,0,0,0,5,1,4,51,0001-00-0001-81.png,0004-00-0006-20.png
9,25,0,1444929460126,1444929460683,411,381,0,0,0,4,5,1,45,0005-00-0006-16.png,0001-00-0008-13.png
9,26,1,1444929461521,1444929462925,366,402,0,0,0,3,2,1,32,0003-00-0008-22.png,0002-00-0000-17.png
9,27,0,1444929464320,1444929464807,988,514,0,0,0,2,5,3,25,0002-00-0002-53.png,0001-00-0005-30.png
9,28,1,1444929465861,1444929465915,871,429,0,0,0,1,3,2,13,0004-00-0000-16.png,0003-00-0004-58.png
9,29,0,1444929466980,1444929467016,858,398,0,0,0,1,5,4,15,0004-00-0003-38.png,0001-00-0001-90.png
9,30,0,1444929469870,1444929470416,939,359,0,0,0,5,4,1,54,0001-00-0009-83.png,0005-00-0001-38.png
9,31,1,1444929471251,1444929471910,446,315,0,0,0,5,2,3,52,0001-00-0005-33.png,0002-00-0002-19.png
9,32,1,1444929472874,1444929474255,1054,331,0,0,0,3,1,2,31,0003-00-0008-66.png,0004-00-0009-95.png
9,33,0,1444929475149,1444929475177,900,410,0,0,0,2,3,1,23,0002-00-0006-48.png,0003-00-0007-88.png
9,34,0,1444929478298,1444929478796,959,355,0,0,0,5,3,2,53,0001-00-0000-05.png,0003-00-0002-40.png
9,35,0,1444929480099,1444929480651,964,410,0,0,0,3,5,2,35,0003-00-0008-99.png,0001-00-0006-53.png
9,36,0,1444929481499,1444929481579,927,400,0,0,0,3,5,2,35,0003-00-0005-32.png,0001-00-0007-75.png
9,37,1,1444929482668,1444929482711,866,401,0,0,0,5,2,3,52,0001-00-0003-72.png,0002-00-0006-10.png
9,38,1,1444929483914,1444929483954,865,396,0,0,0,1,5,4,15,0004-00-0007-17.png,0001-00-0009-75.png
9,39,0,1444929487086,1444929487617,987,463,0,0,0,4,5,1,45,0005-00-0007-14.png,0001-00-0007-98.png
9,40,1,1444929490460,1444929490945,343,376,0,0,0,2,1,1,21,0002-00-0000-83.png,0004-00-0008-03.png
9,41,1,1444929492210,1444929492784,377,368,0,0,0,1,2,1,12,0004-00-0003-05.png,0002-00-0007-18.png
9,42,0,1444929493723,1444929494365,441,242,0,0,0,4,5,1,45,0005-00-0005-19.png,0001-00-0004-92.png
9,43,0,1444929495363,1444929496140,483,223,0,0,0,1,2,1,12,0004-00-0000-07.png,0002-00-0009-51.png
9,44,0,1444929499624,1444929500153,982,391,0,0,0,3,4,1,34,0003-00-0007-08.png,0005-00-0002-24.png
9,45,1,1444929501013,1444929501735,1045,294,0,0,0,3,4,1,34,0003-00-0006-19.png,0005-00-0007-97.png
9,46,1,1444929502612,1444929502686,901,424,0,0,0,2,5,3,25,0002-00-0004-98.png,0001-00-0003-25.png
9,47,0,1444929503680,1444929504415,332,446,0,0,0,5,3,2,53,0001-00-0005-73.png,0003-00-0003-21.png
9,48,1,1444929505527,1444929506132,461,220,0,0,0,5,1,4,51,0001-00-0005-36.png,0004-00-0004-79.png
9,49,1,1444929507067,1444929508163,373,322,0,0,0,1,5,4,15,0004-00-0000-22.png,0001-00-0000-66.png
9,50,1,1444929509096,1444929509722,444,272,0,0,0,3,2,1,32,0003-00-0003-55.png,0002-00-0008-06.png
9,51,1,1444929510703,1444929511396,336,353,0,0,0,4,5,1,45,0005-00-0006-90.png,0001-00-0009-17.png
9,52,1,1444929512385,1444929513652,400,286,0,0,0,5,3,2,53,0001-00-0006-55.png,0003-00-0002-75.png
9,53,1,1444929514889,1444929515278,874,552,0,0,0,4,3,1,43,0005-00-0003-46.png,0003-00-0003-26.png
9,54,1,1444929516343,1444929517030,964,290,0,0,0,5,2,3,52,0001-00-0008-29.png,0002-00-0001-36.png
9,55,0,1444929518017,1444929518057,905,422,0,0,0,1,2,1,12,0004-00-0000-19.png,0002-00-0003-46.png
9,56,1,1444929519221,1444929519245,884,420,0,0,0,2,4,2,24,0002-00-0007-88.png,0005-00-0004-70.png
9,57,0,1444929520390,1444929520997,487,245,0,0,0,1,3,2,13,0004-00-0002-75.png,0003-00-0003-18.png
9,58,0,1444929522004,1444929522008,865,449,0,0,0,3,5,2,35,0003-00-0003-65.png,0001-00-0004-88.png
9,59,0,1444929523297,1444929523341,882,427,0,0,0,2,5,3,25,0002-00-0002-29.png,0001-00-0004-16.png
9,60,0,1444929526520,1444929527021,1046,287,0,0,0,4,3,1,43,0005-00-0001-70.png,0003-00-0003-56.png
9,61,1,1444929527873,1444929528467,945,380,0,0,0,4,2,2,42,0005-00-0009-54.png,0002-00-0007-81.png
9,62,0,1444929529334,1444929529354,862,368,0,0,0,4,5,1,45,0005-00-0008-67.png,0001-00-0008-58.png
9,63,0,1444929530349,1444929531028,333,462,0,0,0,4,3,1,43,0005-00-0001-75.png,0003-00-0001-22.png
9,64,0,1444929532228,1444929532789,462,239,0,0,0,3,5,2,35,0003-00-0008-97.png,0001-00-0009-92.png
9,65,0,1444929533667,1444929534334,1072,247,0,0,0,1,3,2,13,0004-00-0004-78.png,0003-00-0008-81.png
9,66,1,1444929535319,1444929535355,882,438,0,0,0,2,1,1,21,0002-00-0008-64.png,0004-00-0002-23.png
9,67,0,1444929536621,1444929537321,900,379,0,0,0,3,4,1,34,0003-00-0006-32.png,0005-00-0001-13.png
9,68,0,1444929538229,1444929538880,462,253,0,0,0,5,4,1,54,0001-00-0006-56.png,0005-00-0002-38.png
9,69,0,1444929540038,1444929540702,427,396,0,0,0,1,2,1,12,0004-00-0004-19.png,0002-00-0000-50.png
9,70,1,1444929541648,1444929542300,936,332,0,0,0,1,5,4,15,0004-00-0007-61.png,0001-00-0002-07.png
9,71,1,1444929543301,1444929544073,414,317,0,0,0,2,4,2,24,0002-00-0004-23.png,0005-00-0009-73.png
9,72,1,1444929545512,1444929546027,480,256,0,0,0,5,4,1,54,0001-00-0008-15.png,0005-00-0004-05.png
9,73,0,1444929546925,1444929546954,871,421,0,0,0,5,3,2,53,0001-00-0005-15.png,0003-00-0009-85.png
9,74,1,1444929548197,1444929548221,867,460,0,0,0,3,1,2,31,0003-00-0000-14.png,0004-00-0008-04.png
9,75,0,1444929551526,1444929552006,939,332,0,0,0,2,5,3,25,0002-00-0002-08.png,0001-00-0009-61.png
9,76,1,1444929552842,1444929553431,443,271,0,0,0,1,3,2,13,0004-00-0000-04.png,0003-00-0005-07.png
9,77,0,1444929554329,1444929554882,925,352,0,0,0,5,4,1,54,0001-00-0001-12.png,0005-00-0009-15.png
9,78,1,1444929555769,1444929555773,872,384,0,0,0,5,1,4,51,0001-00-0009-51.png,0004-00-0005-76.png
9,79,0,1444929556880,1444929557463,359,404,0,0,0,2,5,3,25,0002-00-0003-68.png,0001-00-0001-10.png
9,80,0,1444929558490,1444929559107,316,397,0,0,0,1,5,4,15,0004-00-0007-41.png,0001-00-0000-08.png
9,81,0,1444929560171,1444929560952,357,365,0,0,0,3,5,2,35,0003-00-0000-19.png,0001-00-0002-11.png
9,82,0,1444929561930,1444929562526,923,346,0,0,0,5,1,4,51,0001-00-0007-56.png,0004-00-0001-67.png
9,83,1,1444929563454,1444929563507,860,406,0,0,0,1,2,1,12,0004-00-0007-94.png,0002-00-0009-85.png
9,84,1,1444929566567,1444929566832,1017,358,0,0,0,4,1,3,41,0005-00-0000-34.png,0004-00-0005-91.png
9,85,0,1444929567735,1444929567787,871,467,0,0,0,1,3,2,13,0004-00-0008-64.png,0003-00-0004-93.png
9,86,1,1444929568892,1444929569573,453,304,0,0,0,4,3,1,43,0005-00-0007-83.png,0003-00-0002-36.png
9,87,1,1444929570624,1444929571767,344,473,0,0,0,2,4,2,24,0002-00-0000-65.png,0005-00-0004-15.png
9,88,1,1444929574875,1444929575453,485,287,0,0,0,5,2,3,52,0001-00-0003-83.png,0002-00-0000-19.png
9,89,1,1444929576273,1444929576929,937,389,0,0,0,3,1,2,31,0003-00-0006-33.png,0004-00-0000-78.png
9,90,1,1444929577805,1444929578413,937,346,0,0,0,2,3,1,23,0002-00-0005-19.png,0003-00-0009-59.png
9,91,1,1444929579369,1444929579385,876,403,0,0,0,5,1,4,51,0001-00-0005-55.png,0004-00-0003-26.png
9,92,0,1444929582828,1444929583343,371,386,0,0,0,2,5,3,25,0002-00-0002-76.png,0001-00-0002-22.png
9,93,1,1444929584179,1444929584817,478,265,0,0,0,4,3,1,43,0005-00-0004-44.png,0003-00-0008-93.png
9,94,0,1444929585760,1444929586333,449,237,0,0,0,2,4,2,24,0002-00-0005-82.png,0005-00-0008-79.png
9,95,1,1444929587250,1444929587964,1047,262,0,0,0,1,4,3,14,0004-00-0006-52.png,0005-00-0005-42.png
9,96,1,1444929588929,1444929588965,869,400,0,0,0,3,2,1,32,0003-00-0008-78.png,0002-00-0005-38.png
9,97,1,1444929590018,1444929590042,858,367,0,0,0,2,1,1,21,0002-00-0000-80.png,0004-00-0002-92.png
9,98,0,1444929592975,1444929593083,889,280,0,0,0,3,5,2,35,0003-00-0002-19.png,0001-00-0000-57.png
9,99,0,1444929593954,1444929594516,433,281,0,0,0,1,2,1,12,0004-00-0008-93.png,0002-00-0000-02.png
9,100,1,1444929595459,1444929596045,370,403,0,0,0,4,1,3,41,0005-00-0003-06.png,0004-00-0003-51.png
9,101,1,1444929597109,1444929597125,881,377,0,0,0,2,4,2,24,0002-00-0009-10.png,0005-00-0004-89.png
9,102,1,1444929600106,1444929600571,1067,295,0,0,0,3,1,2,31,0003-00-0007-26.png,0004-00-0001-55.png
9,103,1,1444929601387,1444929601935,359,387,0,0,0,4,1,3,41,0005-00-0001-36.png,0004-00-0003-17.png
9,104,0,1444929607195,1444929607718,1053,306,0,0,0,5,4,1,54,0001-00-0007-15.png,0005-00-0003-28.png
9,105,1,1444929608594,1444929609131,1067,243,0,0,0,3,2,1,32,0003-00-0006-05.png,0002-00-0002-16.png
9,106,1,1444929610003,1444929610023,877,400,0,0,0,2,3,1,23,0002-00-0009-14.png,0003-00-0007-96.png
9,107,1,1444929612857,1444929613406,374,374,0,0,0,2,1,1,21,0002-00-0008-48.png,0004-00-0009-89.png
9,108,1,1444929614686,1444929615212,932,344,0,0,0,4,1,3,41,0005-00-0002-94.png,0004-00-0002-49.png
9,109,1,1444929616065,1444929616753,952,346,0,0,0,1,4,3,14,0004-00-0005-62.png,0005-00-0003-82.png
9,110,0,1444929617625,1444929617675,912,370,0,0,0,5,3,2,53,0001-00-0005-61.png,0003-00-0001-04.png
9,111,0,1444929618778,1444929618812,895,400,0,0,0,5,4,1,54,0001-00-0007-44.png,0005-00-0007-84.png
9,112,1,1444929621780,1444929622386,483,295,0,0,0,1,5,4,15,0004-00-0003-01.png,0001-00-0006-94.png
9,113,0,1444929623680,1444929623776,891,264,0,0,0,3,5,2,35,0003-00-0004-13.png,0001-00-0004-42.png
9,114,0,1444929626830,1444929627297,938,373,0,0,0,1,5,4,15,0004-00-0004-97.png,0001-00-0006-59.png
9,115,0,1444929628128,1444929628168,866,431,0,0,0,4,3,1,43,0005-00-0005-35.png,0003-00-0009-38.png
9,116,1,1444929631334,1444929631902,349,352,0,0,0,4,2,2,42,0005-00-0004-43.png,0002-00-0008-38.png
9,117,1,1444929634786,1444929635374,441,403,0,0,0,5,1,4,51,0001-00-0007-72.png,0004-00-0005-31.png
9,118,0,1444929636689,1444929637152,955,368,0,0,0,1,5,4,15,0004-00-0005-52.png,0001-00-0002-62.png
9,119,1,1444929638029,1444929638077,913,358,0,0,0,3,1,2,31,0003-00-0002-70.png,0004-00-0005-40.png
9,120,1,1444929641039,1444929641510,1041,279,0,0,0,5,1,4,51,0001-00-0008-90.png,0004-00-0000-88.png
9,121,0,1444929642781,1444929643330,462,238,0,0,0,1,2,1,12,0004-00-0000-68.png,0002-00-0002-06.png
9,122,1,1444929644221,1444929644815,892,403,0,0,0,5,3,2,53,0001-00-0002-71.png,0003-00-0001-45.png
9,123,0,1444929646034,1444929646066,885,366,0,0,0,2,4,2,24,0002-00-0002-78.png,0005-00-0000-63.png
9,124,1,1444929647183,1444929647211,901,357,0,0,0,4,2,2,42,0005-00-0003-60.png,0002-00-0007-26.png
9,125,1,1444929648473,1444929648501,883,394,0,0,0,5,2,3,52,0001-00-0006-37.png,0002-00-0002-17.png
9,126,0,1444929651417,1444929651973,994,418,0,0,0,3,4,1,34,0003-00-0000-76.png,0005-00-0003-70.png
9,127,0,1444929653244,1444929653793,342,399,0,0,0,2,3,1,23,0002-00-0005-24.png,0003-00-0004-62.png
9,128,1,1444929654614,1444929655334,434,219,0,0,0,4,3,1,43,0005-00-0003-60.png,0003-00-0004-45.png
9,129,0,1444929656184,1444929656800,887,373,0,0,0,1,4,3,14,0004-00-0000-35.png,0005-00-0002-92.png
9,130,0,1444929657925,1444929657969,907,422,0,0,0,1,4,3,14,0004-00-0007-44.png,0005-00-0001-82.png
9,131,0,1444929660928,1444929661418,940,388,0,0,0,2,1,1,21,0002-00-0009-11.png,0004-00-0009-15.png
9,132,0,1444929662261,1444929662931,381,380,0,0,0,5,3,2,53,0001-00-0008-75.png,0003-00-0007-26.png
9,133,0,1444929666005,1444929666489,374,381,0,0,0,1,5,4,15,0004-00-0002-56.png,0001-00-0008-30.png
9,134,1,1444929667765,1444929668303,1082,315,0,0,0,2,3,1,23,0002-00-0009-59.png,0003-00-0003-98.png
9,135,1,1444929669141,1444929669202,912,409,0,0,0,4,2,2,42,0005-00-0005-23.png,0002-00-0002-81.png
9,136,1,1444929672316,1444929672546,990,306,0,0,0,4,1,3,41,0005-00-0008-61.png,0004-00-0005-23.png
9,137,1,1444929675512,1444929676396,406,299,0,0,0,4,2,2,42,0005-00-0008-53.png,0002-00-0006-85.png
9,138,1,1444929677240,1444929677805,445,267,0,0,0,5,3,2,53,0001-00-0004-81.png,0003-00-0003-44.png
9,139,1,1444929678693,1444929679286,350,402,0,0,0,4,2,2,42,0005-00-0001-04.png,0002-00-0007-68.png
9,140,0,1444929680425,1444929681029,945,324,0,0,0,3,5,2,35,0003-00-0004-65.png,0001-00-0001-72.png
9,141,1,1444929681932,1444929681970,870,384,0,0,0,2,1,1,21,0002-00-0009-38.png,0004-00-0001-29.png
9,142,1,1444929683028,1444929683740,1077,253,0,0,0,3,1,2,31,0003-00-0004-24.png,0004-00-0003-98.png
9,143,1,1444929684618,1444929684662,868,426,0,0,0,3,1,2,31,0003-00-0007-16.png,0004-00-0003-59.png
9,144,1,1444929685831,1444929686680,470,260,0,0,0,1,3,2,13,0004-00-0002-30.png,0003-00-0000-65.png
9,145,0,1444929687644,1444929688489,954,382,0,0,0,1,4,3,14,0004-00-0006-12.png,0005-00-0004-69.png
9,146,1,1444929689423,1444929689463,862,438,0,0,0,4,2,2,42,0005-00-0000-16.png,0002-00-0009-26.png
9,147,0,1444929690561,1444929690597,880,425,0,0,0,2,5,3,25,0002-00-0001-22.png,0001-00-0003-75.png
9,148,1,1444929691711,1444929691747,870,399,0,0,0,3,2,1,32,0003-00-0000-97.png,0002-00-0000-24.png
9,149,1,1444929694833,1444929695313,475,246,0,0,0,4,3,1,43,0005-00-0003-02.png,0003-00-0009-49.png
9,150,0,1444929697356,1444929697922,1052,291,0,0,0,1,2,1,12,0004-00-0007-34.png,0002-00-0001-90.png
9,151,1,1444929700941,1444929701394,979,334,0,0,0,2,3,1,23,0002-00-0001-88.png,0003-00-0001-58.png
9,152,1,1444929702287,1444929702863,437,265,0,0,0,5,1,4,51,0001-00-0004-62.png,0004-00-0008-94.png
9,153,1,1444929703800,1444929704529,492,240,0,0,0,2,1,1,21,0002-00-0003-84.png,0004-00-0004-32.png
9,154,1,1444929705464,1444929706170,938,330,0,0,0,5,4,1,54,0001-00-0007-94.png,0005-00-0005-28.png
9,155,1,1444929707176,1444929707184,897,365,0,0,0,5,2,3,52,0001-00-0003-75.png,0002-00-0003-17.png
9,156,0,1444929710326,1444929710602,1044,303,0,0,0,2,5,3,25,0002-00-0006-40.png,0001-00-0006-22.png
9,157,1,1444929711470,1444929712182,402,296,0,0,0,5,2,3,52,0001-00-0004-15.png,0002-00-0001-74.png
9,158,1,1444929713013,1444929713749,885,356,0,0,0,4,1,3,41,0005-00-0007-75.png,0004-00-0000-44.png
9,159,1,1444929714726,1444929714786,900,415,0,0,0,1,3,2,13,0004-00-0001-55.png,0003-00-0007-38.png
9,160,0,1444929715889,1444929716717,460,307,0,0,0,2,4,2,24,0002-00-0002-89.png,0005-00-0009-66.png
9,161,1,1444929717938,1444929718589,463,253,0,0,0,1,3,2,13,0004-00-0006-29.png,0003-00-0000-81.png
9,162,0,1444929721732,1444929721917,939,395,0,0,0,4,5,1,45,0005-00-0006-42.png,0001-00-0005-07.png
9,163,1,1444929722846,1444929723479,361,382,0,0,0,1,4,3,14,0004-00-0004-93.png,0005-00-0002-26.png
9,164,1,1444929724406,1444929725028,476,248,0,0,0,1,5,4,15,0004-00-0006-01.png,0001-00-0009-56.png
9,165,1,1444929725947,1444929726607,1041,288,0,0,0,1,3,2,13,0004-00-0000-54.png,0003-00-0007-38.png
9,166,1,1444929727527,1444929727572,902,399,0,0,0,3,2,1,32,0003-00-0006-66.png,0002-00-0007-10.png
9,167,1,1444929730677,1444929731135,1030,306,0,0,0,1,4,3,14,0004-00-0001-19.png,0005-00-0003-86.png
9,168,0,1444929732431,1444929732999,467,264,0,0,0,4,5,1,45,0005-00-0004-64.png,0001-00-0001-79.png
9,169,1,1444929733834,1444929734543,439,282,0,0,0,5,1,4,51,0001-00-0005-02.png,0004-00-0000-62.png
9,170,1,1444929735438,1444929736011,932,340,0,0,0,3,2,1,32,0003-00-0002-49.png,0002-00-0003-95.png
9,171,1,1444929736945,1444929736985,902,443,0,0,0,4,2,2,42,0005-00-0001-58.png,0002-00-0007-16.png
9,172,1,1444929739806,1444929740262,1043,273,0,0,0,5,3,2,53,0001-00-0008-66.png,0003-00-0007-23.png
9,173,0,1444929741088,1444929741140,878,398,0,0,0,2,1,1,21,0002-00-0003-24.png,0004-00-0004-43.png
9,174,1,1444929744253,1444929744765,960,447,0,0,0,3,1,2,31,0003-00-0000-70.png,0004-00-0002-79.png
9,175,1,1444929745600,1444929746329,436,252,0,0,0,4,2,2,42,0005-00-0001-65.png,0002-00-0006-61.png
9,176,1,1444929747622,1444929748265,939,292,0,0,0,2,3,1,23,0002-00-0003-11.png,0003-00-0000-39.png
9,177,1,1444929749127,1444929749752,1110,279,0,0,0,4,1,3,41,0005-00-0001-65.png,0004-00-0009-30.png
9,178,1,1444929750599,1444929750611,859,359,0,0,0,4,3,1,43,0005-00-0008-42.png,0003-00-0000-15.png
9,179,0,1444929753668,1444929754524,350,333,0,0,0,3,4,1,34,0003-00-0005-24.png,0005-00-0000-40.png
9,180,0,1444929755839,1444929756743,1066,292,0,0,0,1,4,3,14,0004-00-0003-98.png,0005-00-0003-51.png
9,181,0,1444929759782,1444929760280,365,396,0,0,0,3,4,1,34,0003-00-0009-98.png,0005-00-0009-21.png
9,182,0,1444929761553,1444929762167,924,351,0,0,0,4,3,1,43,0005-00-0000-65.png,0003-00-0002-80.png
9,183,0,1444929763033,1444929763801,1074,270,0,0,0,1,4,3,14,0004-00-0002-59.png,0005-00-0007-44.png
9,184,0,1444929764737,1444929764765,887,377,0,0,0,1,4,3,14,0004-00-0000-55.png,0005-00-0003-50.png
9,185,0,1444929765966,1444929766014,868,423,0,0,0,3,4,1,34,0003-00-0004-02.png,0005-00-0001-02.png
9,186,1,1444929768918,1444929769088,863,345,0,0,0,4,2,2,42,0005-00-0007-36.png,0002-00-0001-15.png
9,187,1,1444929770057,1444929770653,450,273,0,0,0,4,5,1,45,0005-00-0007-07.png,0001-00-0001-21.png
9,188,0,1444929771559,1444929772204,1118,269,0,0,0,2,4,2,24,0002-00-0005-63.png,0005-00-0005-92.png
9,189,1,1444929773100,1444929773128,898,390,0,0,0,5,1,4,51,0001-00-0003-41.png,0004-00-0005-98.png
9,190,1,1444929774160,1444929774210,859,425,0,0,0,4,1,3,41,0005-00-0000-51.png,0004-00-0005-05.png
9,191,1,1444929777561,1444929778086,462,253,0,0,0,2,3,1,23,0002-00-0003-26.png,0003-00-0003-28.png
9,192,0,1444929779369,1444929779911,914,359,0,0,0,2,5,3,25,0002-00-0002-89.png,0001-00-0007-09.png
9,193,1,1444929780810,1444929781446,363,332,0,0,0,4,1,3,41,0005-00-0008-95.png,0004-00-0007-20.png
9,194,1,1444929782470,1444929783194,962,334,0,0,0,5,3,2,53,0001-00-0005-69.png,0003-00-0005-16.png
9,195,1,1444929784170,1444929784190,911,359,0,0,0,2,1,1,21,0002-00-0009-99.png,0004-00-0005-68.png
9,196,1,1444929787211,1444929788104,442,252,0,0,0,3,4,1,34,0003-00-0001-74.png,0005-00-0009-34.png
9,197,0,1444929791273,1444929791293,879,274,0,0,0,1,3,2,13,0004-00-0005-65.png,0003-00-0002-39.png
9,198,1,1444929794227,1444929794691,965,329,0,0,0,3,2,1,32,0003-00-0007-15.png,0002-00-0005-42.png
9,199,1,1444929795537,1444929795577,869,452,0,0,0,4,1,3,41,0005-00-0005-70.png,0004-00-0004-55.png
9,200,1,1444929796651,1444929796731,877,410,0,0,0,5,2,3,52,0001-00-0003-78.png,0002-00-0001-75.png
9,201,1,1444929799670,1444929800185,329,398,0,0,0,2,3,1,23,0002-00-0007-16.png,0003-00-0000-64.png
9,202,1,1444929801526,1444929802055,916,336,0,0,0,3,5,2,35,0003-00-0003-82.png,0001-00-0000-08.png
9,203,1,1444929805098,1444929805668,917,320,0,0,0,5,2,3,52,0001-00-0003-46.png,0002-00-0004-81.png
9,204,1,1444929806965,1444929807534,469,274,0,0,0,1,5,4,15,0004-00-0004-87.png,0001-00-0000-59.png
9,205,0,1444929809030,1444929809220,935,359,0,0,0,1,4,3,14,0004-00-0009-25.png,0005-00-0001-27.png
9,206,0,1444929810237,1444929810882,445,270,0,0,0,3,4,1,34,0003-00-0007-21.png,0005-00-0006-73.png
9,207,1,1444929811923,1444929812796,957,351,0,0,0,1,2,1,12,0004-00-0007-31.png,0002-00-0003-59.png
9,208,1,1444929813701,1444929814269,1078,310,0,0,0,4,2,2,42,0005-00-0009-61.png,0002-00-0009-38.png
9,209,1,1444929815213,1444929815253,885,409,0,0,0,5,2,3,52,0001-00-0007-37.png,0002-00-0004-25.png
9,210,0,1444929818434,1444929818667,950,299,0,0,0,4,2,2,42,0005-00-0008-37.png,0002-00-0008-42.png
9,211,0,1444929819577,1444929820189,470,234,0,0,0,4,5,1,45,0005-00-0000-87.png,0001-00-0009-51.png
9,212,1,1444929821167,1444929821890,487,282,0,0,0,5,4,1,54,0001-00-0003-07.png,0005-00-0005-81.png
9,213,0,1444929822776,1444929823414,1054,279,0,0,0,1,5,4,15,0004-00-0001-56.png,0001-00-0004-04.png
9,214,0,1444929824312,1444929824328,893,366,0,0,0,3,5,2,35,0003-00-0001-92.png,0001-00-0003-91.png
9,215,0,1444929827338,1444929827789,1016,290,0,0,0,2,3,1,23,0002-00-0001-86.png,0003-00-0001-45.png
9,216,1,1444929829058,1444929829653,1065,288,0,0,0,3,2,1,32,0003-00-0007-05.png,0002-00-0009-40.png
9,217,0,1444929830475,1444929830499,901,390,0,0,0,4,5,1,45,0005-00-0004-61.png,0001-00-0007-69.png
9,218,1,1444929833649,1444929833862,939,426,0,0,0,2,5,3,25,0002-00-0008-03.png,0001-00-0006-24.png
9,219,1,1444929834741,1444929835458,1046,289,0,0,0,1,5,4,15,0004-00-0002-35.png,0001-00-0007-05.png
9,220,1,1444929836330,1444929837246,370,372,0,0,0,3,1,2,31,0003-00-0008-63.png,0004-00-0001-93.png
9,221,1,1444929840103,1444929840155,883,383,0,0,0,2,4,2,24,0002-00-0001-75.png,0005-00-0007-16.png
9,222,1,1444929843128,1444929843602,1054,279,0,0,0,2,3,1,23,0002-00-0000-31.png,0003-00-0002-26.png
9,223,0,1444929844826,1444929845446,425,268,0,0,0,3,5,2,35,0003-00-0006-08.png,0001-00-0002-48.png
9,224,0,1444929846287,1444929846963,463,265,0,0,0,1,2,1,12,0004-00-0008-10.png,0002-00-0001-19.png
9,225,1,1444929847926,1444929848590,944,352,0,0,0,5,4,1,54,0001-00-0008-65.png,0005-00-0009-29.png
9,226,1,1444929849936,1444929850522,347,390,0,0,0,5,3,2,53,0001-00-0004-97.png,0003-00-0008-42.png
9,227,0,1444929851362,1444929852059,459,257,0,0,0,2,4,2,24,0002-00-0005-55.png,0005-00-0005-97.png
9,228,1,1444929853006,1444929853688,445,254,0,0,0,3,1,2,31,0003-00-0007-58.png,0004-00-0008-48.png
9,229,1,1444929854655,1444929855444,926,335,0,0,0,3,2,1,32,0003-00-0003-89.png,0002-00-0009-50.png
9,230,0,1444929856313,1444929857184,461,233,0,0,0,3,4,1,34,0003-00-0007-95.png,0005-00-0003-80.png
9,231,1,1444929860300,1444929860842,461,291,0,0,0,4,2,2,42,0005-00-0004-82.png,0002-00-0008-17.png
9,232,1,1444929862148,1444929862736,1068,276,0,0,0,5,4,1,54,0001-00-0000-97.png,0005-00-0009-20.png
9,233,1,1444929863636,1444929864379,442,330,0,0,0,2,4,2,24,0002-00-0002-19.png,0005-00-0005-71.png
9,234,1,1444929865595,1444929865863,963,474,0,0,0,4,1,3,41,0005-00-0003-49.png,0004-00-0009-86.png
9,235,0,1444929868794,1444929869247,1077,279,0,0,0,1,2,1,12,0004-00-0007-12.png,0002-00-0008-52.png
9,236,0,1444929870078,1444929870106,871,432,0,0,0,1,2,1,12,0004-00-0008-80.png,0002-00-0004-20.png
9,237,1,1444929871190,1444929871226,871,410,0,0,0,4,2,2,42,0005-00-0005-28.png,0002-00-0006-42.png
9,238,0,1444929874331,1444929874961,913,328,0,0,0,4,5,1,45,0005-00-0009-86.png,0001-00-0007-87.png
9,239,1,1444929875839,1444929875883,892,373,0,0,0,4,3,1,43,0005-00-0007-13.png,0003-00-0002-51.png
9,240,1,1444929876944,1444929877008,870,427,0,0,0,3,2,1,32,0003-00-0007-41.png,0002-00-0005-64.png
9,241,1,1444929880104,1444929880540,1092,279,0,0,0,1,3,2,13,0004-00-0000-25.png,0003-00-0001-14.png
9,242,1,1444929881773,1444929882353,341,386,0,0,0,2,4,2,24,0002-00-0004-38.png,0005-00-0003-66.png
9,243,1,1444929883275,1444929883962,466,227,0,0,0,5,4,1,54,0001-00-0007-32.png,0005-00-0001-42.png
9,244,0,1444929884813,1444929885414,1018,331,0,0,0,3,5,2,35,0003-00-0002-50.png,0001-00-0002-99.png
9,245,1,1444929886433,1444929886481,905,404,0,0,0,4,2,2,42,0005-00-0009-48.png,0002-00-0000-60.png
9,246,1,1444929887556,1444929887604,898,436,0,0,0,1,5,4,15,0004-00-0001-72.png,0001-00-0009-80.png
9,247,0,1444929890569,1444929891076,392,384,0,0,0,5,4,1,54,0001-00-0008-64.png,0005-00-0009-58.png
9,248,1,1444929892288,1444929892861,1076,292,0,0,0,5,2,3,52,0001-00-0005-98.png,0002-00-0004-70.png
9,249,0,1444929893708,1444929893748,896,401,0,0,0,3,5,2,35,0003-00-0005-39.png,0001-00-0003-65.png
9,250,1,1444929896757,1444929897216,932,311,0,0,0,5,4,1,54,0001-00-0000-48.png,0005-00-0007-71.png
9,251,1,1444929898519,1444929899090,488,279,0,0,0,2,1,1,21,0002-00-0001-17.png,0004-00-0004-83.png
9,252,1,1444929900228,1444929900272,888,384,0,0,0,2,3,1,23,0002-00-0009-15.png,0003-00-0003-80.png
9,253,1,1444929901331,1444929901355,868,392,0,0,0,5,1,4,51,0001-00-0006-83.png,0004-00-0001-84.png
9,254,0,1444929904591,1444929905087,344,348,0,0,0,1,3,2,13,0004-00-0006-28.png,0003-00-0002-06.png
9,255,0,1444929906389,1444929907055,426,289,0,0,0,4,3,1,43,0005-00-0000-63.png,0003-00-0002-78.png
9,256,1,1444929910195,1444929910668,1092,264,0,0,0,5,4,1,54,0001-00-0004-30.png,0005-00-0005-94.png
9,257,0,1444929911493,1444929912059,371,357,0,0,0,3,4,1,34,0003-00-0001-72.png,0005-00-0008-64.png
9,258,0,1444929912947,1444929913766,973,348,0,0,0,3,5,2,35,0003-00-0006-81.png,0001-00-0004-21.png
9,259,1,1444929914655,1444929914683,885,389,0,0,0,5,1,4,51,0001-00-0009-68.png,0004-00-0005-98.png
9,260,1,1444929917969,1444929918478,1086,267,0,0,0,3,1,2,31,0003-00-0000-27.png,0004-00-0002-40.png
9,261,0,1444929919346,1444929919362,860,393,0,0,0,1,4,3,14,0004-00-0004-99.png,0005-00-0004-26.png
9,262,1,1444929920660,1444929920751,908,442,0,0,0,3,1,2,31,0003-00-0000-23.png,0004-00-0004-74.png
9,263,0,1444929921773,1444929921809,877,433,0,0,0,4,5,1,45,0005-00-0002-53.png,0001-00-0006-64.png
9,264,1,1444929924844,1444929925392,384,339,0,0,0,4,2,2,42,0005-00-0006-22.png,0002-00-0007-49.png
9,265,1,1444929926601,1444929927183,414,378,0,0,0,1,4,3,14,0004-00-0007-53.png,0005-00-0000-42.png
9,266,0,1444929928065,1444929928768,1048,262,0,0,0,5,3,2,53,0001-00-0008-37.png,0003-00-0008-07.png
9,267,1,1444929929689,1444929929701,895,389,0,0,0,4,3,1,43,0005-00-0003-29.png,0003-00-0001-78.png
9,268,0,1444929932783,1444929933268,976,410,0,0,0,2,3,1,23,0002-00-0004-48.png,0003-00-0005-61.png
9,269,0,1444929934492,1444929935043,1041,340,0,0,0,3,4,1,34,0003-00-0001-16.png,0005-00-0007-16.png
9,270,1,1444929935921,1444929936566,485,245,0,0,0,4,1,3,41,0005-00-0009-80.png,0004-00-0008-20.png
9,271,1,1444929937401,1444929938060,1075,260,0,0,0,2,5,3,25,0002-00-0007-05.png,0001-00-0006-79.png
9,272,1,1444929938973,1444929939013,902,426,0,0,0,4,1,3,41,0005-00-0001-39.png,0004-00-0005-33.png
9,273,1,1444929942175,1444929942660,449,272,0,0,0,5,1,4,51,0001-00-0009-49.png,0004-00-0007-61.png
9,274,0,1444929943871,1444929944396,1099,245,0,0,0,2,4,2,24,0002-00-0004-60.png,0005-00-0004-80.png
9,275,0,1444929945237,1444929945253,892,425,0,0,0,1,2,1,12,0004-00-0004-34.png,0002-00-0000-83.png
9,276,0,1444929946336,1444929946364,870,439,0,0,0,1,5,4,15,0004-00-0007-05.png,0001-00-0009-47.png
9,277,1,1444929949487,1444929949496,954,355,0,0,0,2,3,1,23,0002-00-0005-39.png,0003-00-0006-07.png
9,278,1,1444929952647,1444929952675,924,307,0,0,0,4,3,1,43,0005-00-0009-13.png,0003-00-0005-42.png
9,279,0,1444929953684,1444929954303,366,406,0,0,0,3,4,1,34,0003-00-0001-84.png,0005-00-0002-15.png
9,280,1,1444929955260,1444929955943,1078,265,0,0,0,5,3,2,53,0001-00-0000-27.png,0003-00-0008-10.png
9,281,1,1444929956832,1444929956840,887,415,0,0,0,4,2,2,42,0005-00-0008-83.png,0002-00-0005-22.png
9,282,0,1444929959742,1444929960372,508,256,0,0,0,2,3,1,23,0002-00-0008-34.png,0003-00-0008-07.png
9,283,0,1444929963443,1444929964137,364,392,0,0,0,1,4,3,14,0004-00-0006-74.png,0005-00-0008-38.png
9,284,0,1444929965418,1444929966139,1062,285,0,0,0,5,4,1,54,0001-00-0009-61.png,0005-00-0007-82.png
9,285,1,1444929967016,1444929967079,881,411,0,0,0,5,1,4,51,0001-00-0005-13.png,0004-00-0002-51.png
9,286,0,1444929968198,1444929968239,885,412,0,0,0,5,3,2,53,0001-00-0008-98.png,0003-00-0000-26.png
9,287,0,1444929971130,1444929971588,364,375,0,0,0,3,4,1,34,0003-00-0004-42.png,0005-00-0003-47.png
9,288,0,1444929972811,1444929973427,483,253,0,0,0,4,5,1,45,0005-00-0001-08.png,0001-00-0004-01.png
9,289,0,1444929976408,1444929977081,933,415,0,0,0,3,5,2,35,0003-00-0004-95.png,0001-00-0005-62.png
9,290,1,1444929978359,1444929978911,489,222,0,0,0,2,4,2,24,0002-00-0004-15.png,0005-00-0002-98.png
9,291,1,1444929979785,1444929980711,935,345,0,0,0,3,1,2,31,0003-00-0003-39.png,0004-00-0003-62.png
9,292,1,1444929981652,1444929981681,895,416,0,0,0,2,4,2,24,0002-00-0008-38.png,0005-00-0008-69.png
9,293,1,1444929984841,1444929985329,1080,253,0,0,0,4,3,1,43,0005-00-0002-92.png,0003-00-0006-04.png
9,294,1,1444929986178,1444929986830,423,430,0,0,0,5,4,1,54,0001-00-0005-31.png,0005-00-0001-22.png
9,295,1,1444929987655,1444929988390,943,338,0,0,0,1,4,3,14,0004-00-0005-85.png,0005-00-0001-77.png
9,296,1,1444929989223,1444929990495,354,433,0,0,0,5,1,4,51,0001-00-0001-94.png,0004-00-0005-33.png
9,297,1,1444929991434,1444929992151,521,304,0,0,0,5,1,4,51,0001-00-0008-80.png,0004-00-0006-73.png
9,298,1,1444929993160,1444929993180,884,385,0,0,0,2,3,1,23,0002-00-0002-14.png,0003-00-0000-69.png
9,299,1,1444929994334,1444929994346,862,420,0,0,0,3,5,2,35,0003-00-0007-01.png,0001-00-0002-49.png
9,300,1,1444929997492,1444929997975,1086,309,0,0,0,2,5,3,25,0002-00-0005-34.png,0001-00-0003-76.png
9,301,0,1444929998842,1444929999441,358,398,0,0,0,2,4,2,24,0002-00-0007-12.png,0005-00-0001-73.png
9,302,0,1444930000346,1444930000978,971,311,0,0,0,2,5,3,25,0002-00-0007-92.png,0001-00-0002-90.png
9,303,0,1444930001856,1444930001872,861,394,0,0,0,3,4,1,34,0003-00-0003-44.png,0005-00-0006-42.png
9,304,1,1444930004817,1444930005318,1077,279,0,0,0,2,1,1,21,0002-00-0005-01.png,0004-00-0006-21.png
9,305,1,1444930006617,1444930007159,471,270,0,0,0,2,3,1,23,0002-00-0003-21.png,0003-00-0003-91.png
9,306,1,1444930007978,1444930008638,486,258,0,0,0,3,2,1,32,0003-00-0002-36.png,0002-00-0005-04.png
9,307,0,1444930009494,1444930010153,472,234,0,0,0,1,2,1,12,0004-00-0008-12.png,0002-00-0004-30.png
9,308,1,1444930011065,1444930011766,1078,253,0,0,0,3,1,2,31,0003-00-0005-16.png,0004-00-0009-05.png
9,309,0,1444930012917,1444930012941,913,401,0,0,0,1,5,4,15,0004-00-0008-14.png,0001-00-0007-65.png
9,310,1,1444930014427,1444930014471,888,410,0,0,0,4,1,3,41,0005-00-0001-72.png,0004-00-0007-10.png
9,311,1,1444930017584,1444930018181,461,269,0,0,0,5,2,3,52,0001-00-0000-55.png,0002-00-0007-56.png
9,312,1,1444930021294,1444930021322,936,306,0,0,0,2,1,1,21,0002-00-0003-06.png,0004-00-0003-05.png
9,313,1,1444930022248,1444930022832,369,365,0,0,0,4,3,1,43,0005-00-0009-73.png,0003-00-0007-90.png
9,314,1,1444930024143,1444930024748,1047,272,0,0,0,4,2,2,42,0005-00-0009-68.png,0002-00-0004-84.png
9,315,0,1444930025571,1444930026317,896,350,0,0,0,3,5,2,35,0003-00-0005-60.png,0001-00-0003-48.png
9,316,1,1444930027266,1444930027306,872,415,0,0,0,4,3,1,43,0005-00-0003-31.png,0003-00-0008-55.png
9,317,1,1444930028391,1444930028415,876,402,0,0,0,5,4,1,54,0001-00-0005-07.png,0005-00-0004-77.png
9,318,0,1444930031474,1444930031910,940,351,0,0,0,2,5,3,25,0002-00-0006-72.png,0001-00-0000-38.png
9,319,1,1444930033139,1444930033798,435,239,0,0,0,2,1,1,21,0002-00-0001-66.png,0004-00-0004-31.png
9,320,1,1444930035087,1444930035127,876,358,0,0,0,1,3,2,13,0004-00-0000-76.png,0003-00-0001-07.png
9,321,1,1444930038534,1444930038989,922,328,0,0,0,4,1,3,41,0005-00-0002-52.png,0004-00-0008-97.png
9,322,0,1444930040303,1444930040800,921,352,0,0,0,1,2,1,12,0004-00-0009-08.png,0002-00-0000-19.png
9,323,1,1444930041641,1444930042537,935,340,0,0,0,2,5,3,25,0002-00-0007-69.png,0001-00-0007-05.png
9,324,1,1444930043452,1444930043472,886,369,0,0,0,3,2,1,32,0003-00-0007-32.png,0002-00-0008-81.png
9,325,1,1444930046333,1444930046829,356,355,0,0,0,3,1,2,31,0003-00-0009-43.png,0004-00-0007-97.png
9,326,1,1444930048116,1444930049067,943,356,0,0,0,1,3,2,13,0004-00-0006-09.png,0003-00-0001-43.png
9,327,0,1444930049912,1444930050645,454,314,0,0,0,1,2,1,12,0004-00-0004-56.png,0002-00-0005-90.png
9,328,1,1444930051858,1444930051930,862,384,0,0,0,3,5,2,35,0003-00-0006-68.png,0001-00-0008-04.png
9,329,0,1444930054785,1444930055319,384,361,0,0,0,1,4,3,14,0004-00-0005-00.png,0005-00-0009-91.png
9,330,1,1444930056612,1444930057283,468,278,0,0,0,2,1,1,21,0002-00-0009-61.png,0004-00-0006-53.png
9,331,1,1444930058639,1444930059219,1068,261,0,0,0,4,2,2,42,0005-00-0002-17.png,0002-00-0009-87.png
9,332,1,1444930060088,1444930060124,893,422,0,0,0,5,3,2,53,0001-00-0009-53.png,0003-00-0001-13.png
9,333,1,1444930061262,1444930061925,1021,349,0,0,0,5,3,2,53,0001-00-0009-61.png,0003-00-0005-56.png
9,334,1,1444930062908,1444930062920,873,391,0,0,0,3,2,1,32,0003-00-0000-57.png,0002-00-0000-28.png
9,335,1,1444930066158,1444930066713,389,385,0,0,0,4,1,3,41,0005-00-0008-59.png,0004-00-0007-47.png
9,336,1,1444930068039,1444930068573,909,344,0,0,0,3,4,1,34,0003-00-0001-76.png,0005-00-0009-06.png
9,337,1,1444930069480,1444930070251,486,242,0,0,0,3,5,2,35,0003-00-0001-48.png,0001-00-0006-77.png
9,338,1,1444930071168,1444930071180,867,384,0,0,0,5,1,4,51,0001-00-0009-15.png,0004-00-0008-74.png
9,339,0,1444930072271,1444930072299,868,412,0,0,0,1,3,2,13,0004-00-0003-21.png,0003-00-0002-51.png
9,340,0,1444930075394,1444930075845,949,331,0,0,0,2,4,2,24,0002-00-0006-04.png,0005-00-0005-47.png
9,341,0,1444930077174,1444930077818,357,382,0,0,0,4,3,1,43,0005-00-0001-16.png,0003-00-0004-32.png
9,342,1,1444930078666,1444930079278,443,292,0,0,0,1,5,4,15,0004-00-0002-60.png,0001-00-0009-18.png
9,343,0,1444930080419,1444930080468,875,432,0,0,0,1,3,2,13,0004-00-0003-99.png,0003-00-0005-07.png
9,344,0,1444930081484,1444930082219,1058,272,0,0,0,1,3,2,13,0004-00-0004-87.png,0003-00-0007-63.png
9,345,1,1444930083060,1444930083084,907,389,0,0,0,3,1,2,31,0003-00-0003-06.png,0004-00-0001-68.png
9,346,1,1444930084206,1444930084896,870,382,0,0,0,2,1,1,21,0002-00-0002-76.png,0004-00-0009-05.png
9,347,1,1444930085936,1444930085952,901,431,0,0,0,5,3,2,53,0001-00-0006-05.png,0003-00-0004-90.png
9,348,0,1444930087342,1444930087386,875,413,0,0,0,2,4,2,24,0002-00-0003-58.png,0005-00-0001-74.png
9,349,1,1444930090412,1444930090949,1067,270,0,0,0,4,1,3,41,0005-00-0005-55.png,0004-00-0008-06.png
9,350,1,1444930092233,1444930092252,859,361,0,0,0,2,1,1,21,0002-00-0000-18.png,0004-00-0006-10.png
9,351,0,1444930095367,1444930095933,454,281,0,0,0,1,5,4,15,0004-00-0006-32.png,0001-00-0006-76.png
9,352,0,1444930097195,1444930097768,941,337,0,0,0,4,5,1,45,0005-00-0000-95.png,0001-00-0003-69.png
9,353,0,1444930100820,1444930101311,1070,279,0,0,0,3,5,2,35,0003-00-0002-25.png,0001-00-0005-88.png
9,354,1,1444930102166,1444930102210,860,385,0,0,0,2,5,3,25,0002-00-0009-51.png,0001-00-0004-46.png
9,355,1,1444930105322,1444930105782,939,393,0,0,0,3,2,1,32,0003-00-0002-72.png,0002-00-0002-55.png
9,356,1,1444930107062,1444930107690,1066,309,0,0,0,2,3,1,23,0002-00-0008-55.png,0003-00-0003-95.png
9,357,1,1444930108602,1444930108630,866,390,0,0,0,5,2,3,52,0001-00-0007-46.png,0002-00-0002-89.png
9,358,0,1444930111933,1444930112527,457,268,0,0,0,1,3,2,13,0004-00-0005-76.png,0003-00-0009-40.png
9,359,1,1444930113840,1444930114566,481,238,0,0,0,1,3,2,13,0004-00-0007-64.png,0003-00-0003-73.png
9,360,1,1444930117655,1444930117750,971,288,0,0,0,5,1,4,51,0001-00-0007-45.png,0004-00-0006-56.png
9,361,1,1444930120812,1444930121006,875,397,0,0,0,1,4,3,14,0004-00-0001-23.png,0005-00-0001-44.png
9,362,0,1444930121936,1444930122546,459,238,0,0,0,2,1,1,21,0002-00-0005-26.png,0004-00-0002-36.png
9,363,1,1444930123516,1444930124219,931,323,0,0,0,4,2,2,42,0005-00-0009-21.png,0002-00-0002-98.png
9,364,0,1444930127104,1444930127665,355,389,0,0,0,5,3,2,53,0001-00-0003-40.png,0003-00-0003-57.png
9,365,1,1444930128485,1444930129122,1041,305,0,0,0,4,2,2,42,0005-00-0005-92.png,0002-00-0000-33.png
9,366,1,1444930130045,1444930130081,859,397,0,0,0,1,5,4,15,0004-00-0002-79.png,0001-00-0002-64.png
9,367,1,1444930131160,1444930132104,477,266,0,0,0,3,1,2,31,0003-00-0002-12.png,0004-00-0006-96.png
9,368,1,1444930132979,1444930133007,875,424,0,0,0,5,1,4,51,0001-00-0004-74.png,0004-00-0001-80.png
9,369,1,1444930134191,1444930134219,901,408,0,0,0,4,1,3,41,0005-00-0005-84.png,0004-00-0007-11.png
9,370,1,1444930135373,1444930135401,888,396,0,0,0,2,5,3,25,0002-00-0006-87.png,0001-00-0007-83.png
9,371,1,1444930138502,1444930138974,1078,279,0,0,0,3,2,1,32,0003-00-0008-69.png,0002-00-0006-47.png
9,372,0,1444930140261,1444930140850,470,238,0,0,0,2,4,2,24,0002-00-0007-95.png,0005-00-0009-23.png
9,373,1,1444930141673,1444930142410,480,231,0,0,0,2,4,2,24,0002-00-0004-39.png,0005-00-0002-76.png
9,374,0,1444930143281,1444930144043,1059,272,0,0,0,1,4,3,14,0004-00-0000-76.png,0005-00-0008-30.png
9,375,1,1444930145011,1444930145019,890,402,0,0,0,3,1,2,31,0003-00-0006-68.png,0004-00-0008-56.png
9,376,1,1444930146275,1444930146303,893,396,0,0,0,2,1,1,21,0002-00-0003-91.png,0004-00-0009-69.png
9,377,1,1444930149482,1444930149667,862,322,0,0,0,2,4,2,24,0002-00-0002-14.png,0005-00-0005-08.png
9,378,1,1444930152764,1444930153360,963,418,0,0,0,5,2,3,52,0001-00-0007-87.png,0002-00-0001-40.png
9,379,1,1444930154612,1444930155155,1032,277,0,0,0,2,1,1,21,0002-00-0005-94.png,0004-00-0002-86.png
9,380,0,1444930156073,1444930156085,883,395,0,0,0,4,5,1,45,0005-00-0008-83.png,0001-00-0004-16.png
9,381,1,1444930158985,1444930159567,1050,298,0,0,0,4,1,3,41,0005-00-0001-14.png,0004-00-0004-24.png
9,382,1,1444930160424,1444930160761,991,492,0,0,0,3,1,2,31,0003-00-0006-05.png,0004-00-0005-12.png
9,383,1,1444930163998,1444930164493,935,357,0,0,0,1,3,2,13,0004-00-0002-02.png,0003-00-0006-64.png
9,384,1,1444930165842,1444930166458,469,268,0,0,0,3,2,1,32,0003-00-0005-18.png,0002-00-0006-29.png
9,385,1,1444930167290,1444930168041,465,316,0,0,0,4,3,1,43,0005-00-0009-80.png,0003-00-0001-86.png
9,386,1,1444930169180,1444930169220,865,400,0,0,0,4,3,1,43,0005-00-0009-46.png,0003-00-0005-26.png
9,387,1,1444930170323,1444930170371,863,398,0,0,0,2,3,1,23,0002-00-0009-45.png,0003-00-0005-23.png
9,388,1,1444930171702,1444930172315,950,339,0,0,0,5,1,4,51,0001-00-0001-01.png,0004-00-0000-95.png
9,389,1,1444930173143,1444930173167,928,386,0,0,0,5,4,1,54,0001-00-0002-00.png,0005-00-0006-45.png
9,390,1,1444930177677,1444930178240,458,268,0,0,0,5,2,3,52,0001-00-0002-79.png,0002-00-0005-88.png
9,391,0,1444930179514,1444930180654,458,256,0,0,0,4,5,1,45,0005-00-0003-54.png,0001-00-0004-06.png
9,392,0,1444930181940,1444930182228,1016,505,0,0,0,2,3,1,23,0002-00-0006-32.png,0003-00-0009-04.png
9,393,0,1444930183263,1444930183974,457,337,0,0,0,2,3,1,23,0002-00-0003-62.png,0003-00-0002-22.png
9,394,0,1444930185070,1444930185704,1062,314,0,0,0,5,3,2,53,0001-00-0008-13.png,0003-00-0001-55.png
9,395,0,1444930186573,1444930186600,906,412,0,0,0,4,3,1,43,0005-00-0009-02.png,0003-00-0002-05.png
9,396,1,1444930187783,1444930187823,900,443,0,0,0,3,1,2,31,0003-00-0006-88.png,0004-00-0006-61.png
9,397,0,1444930188985,1444930189033,905,451,0,0,0,1,3,2,13,0004-00-0003-89.png,0003-00-0001-13.png
9,398,0,1444930190178,1444930190214,882,451,0,0,0,1,2,1,12,0004-00-0003-28.png,0002-00-0005-68.png
9,399,1,1444930193634,1444930194136,440,296,0,0,0,5,3,2,53,0001-00-0006-34.png,0003-00-0003-40.png
9,400,1,1444930195427,1444930196225,933,325,0,0,0,1,5,4,15,0004-00-0000-60.png,0001-00-0009-47.png
9,401,1,1444930199366,1444930199915,504,247,0,0,0,2,1,1,21,0002-00-0004-52.png,0004-00-0009-32.png
9,402,1,1444930200767,1444930201178,988,548,0,0,0,2,1,1,21,0002-00-0003-94.png,0004-00-0003-38.png
9,403,0,1444930204365,1444930204831,1067,307,0,0,0,4,5,1,45,0005-00-0008-99.png,0001-00-0000-09.png
9,404,0,1444930206064,1444930206859,1043,258,0,0,0,3,5,2,35,0003-00-0001-76.png,0001-00-0008-87.png
9,405,1,1444930207785,1444930207813,879,384,0,0,0,1,2,1,12,0004-00-0004-66.png,0002-00-0005-96.png
9,406,1,1444930208817,1444930208853,869,432,0,0,0,1,4,3,14,0004-00-0005-63.png,0005-00-0006-31.png
9,407,1,1444930211941,1444930212185,881,312,0,0,0,2,3,1,23,0002-00-0007-90.png,0003-00-0007-36.png
9,408,0,1444930215367,1444930215797,1067,279,0,0,0,3,4,1,34,0003-00-0009-61.png,0005-00-0008-51.png
9,409,1,1444930217106,1444930217749,459,284,0,0,0,4,3,1,43,0005-00-0001-75.png,0003-00-0005-00.png
9,410,1,1444930219123,1444930219734,392,373,0,0,0,3,2,1,32,0003-00-0001-29.png,0002-00-0001-46.png
9,411,1,1444930221617,1444930222190,486,220,0,0,0,2,5,3,25,0002-00-0009-41.png,0001-00-0000-40.png
9,412,0,1444930223099,1444930223751,948,363,0,0,0,4,3,1,43,0005-00-0002-70.png,0003-00-0005-44.png
9,413,1,1444930224616,1444930224655,879,414,0,0,0,5,4,1,54,0001-00-0004-67.png,0005-00-0007-32.png
9,414,1,1444930225862,1444930225882,858,438,0,0,0,3,1,2,31,0003-00-0007-63.png,0004-00-0003-53.png
9,415,0,1444930227044,1444930227072,867,421,0,0,0,2,5,3,25,0002-00-0000-97.png,0001-00-0005-97.png
9,416,1,1444930228465,1444930229041,482,272,0,0,0,5,3,2,53,0001-00-0009-87.png,0003-00-0006-15.png
9,417,1,1444930230433,1444930230978,371,386,0,0,0,2,1,1,21,0002-00-0000-24.png,0004-00-0006-15.png
9,418,1,1444930231892,1444930232654,977,290,0,0,0,4,2,2,42,0005-00-0000-37.png,0002-00-0003-85.png
9,419,1,1444930233694,1444930234425,1052,279,0,0,0,5,3,2,53,0001-00-0006-10.png,0003-00-0000-96.png
9,420,0,1444930235420,1444930236169,430,290,0,0,0,1,4,3,14,0004-00-0009-62.png,0005-00-0000-32.png
9,421,1,1444930237320,1444930237959,897,387,0,0,0,4,2,2,42,0005-00-0006-01.png,0002-00-0009-94.png
9,422,1,1444930238966,1444930239006,889,398,0,0,0,1,2,1,12,0004-00-0001-34.png,0002-00-0008-39.png
9,423,1,1444930242365,1444930242861,434,300,0,0,0,4,5,1,45,0005-00-0009-79.png,0001-00-0008-85.png
9,424,0,1444930244066,1444930244623,1056,267,0,0,0,4,3,1,43,0005-00-0007-23.png,0003-00-0003-08.png
9,425,0,1444930245507,1444930245527,895,401,0,0,0,5,4,1,54,0001-00-0008-78.png,0005-00-0003-52.png
9,426,1,1444930248579,1444930249071,990,314,0,0,0,5,2,3,52,0001-00-0007-30.png,0002-00-0008-07.png
9,427,1,1444930249904,1444930250540,473,260,0,0,0,4,2,2,42,0005-00-0001-91.png,0002-00-0002-09.png
9,428,1,1444930251539,1444930252270,906,350,0,0,0,3,5,2,35,0003-00-0007-46.png,0001-00-0005-86.png
9,429,0,1444930253329,1444930253349,876,418,0,0,0,1,4,3,14,0004-00-0004-03.png,0005-00-0007-19.png
9,430,0,1444930254561,1444930254589,867,432,0,0,0,4,5,1,45,0005-00-0004-01.png,0001-00-0002-30.png
9,431,1,1444930257609,1444930258105,469,284,0,0,0,5,2,3,52,0001-00-0002-51.png,0002-00-0006-82.png
9,432,0,1444930259381,1444930259941,1041,279,0,0,0,5,3,2,53,0001-00-0004-25.png,0003-00-0006-39.png
9,433,0,1444930260788,1444930261669,921,353,0,0,0,1,2,1,12,0004-00-0009-45.png,0002-00-0006-38.png
9,434,0,1444930262570,1444930262586,898,424,0,0,0,5,4,1,54,0001-00-0005-86.png,0005-00-0000-85.png
9,435,0,1444930263771,1444930263795,891,407,0,0,0,1,2,1,12,0004-00-0001-18.png,0002-00-0003-21.png
9,436,1,1444930264895,1444930264915,878,410,0,0,0,5,4,1,54,0001-00-0009-48.png,0005-00-0009-42.png
9,437,0,1444930267995,1444930268051,913,332,0,0,0,3,5,2,35,0003-00-0006-47.png,0001-00-0005-39.png
9,438,1,1444930271541,1444930272008,411,410,0,0,0,3,1,2,31,0003-00-0001-82.png,0004-00-0009-20.png
9,439,1,1444930273210,1444930273782,391,380,0,0,0,1,3,2,13,0004-00-0002-04.png,0003-00-0005-87.png
9,440,1,1444930274702,1444930275506,1016,303,0,0,0,5,3,2,53,0001-00-0009-92.png,0003-00-0008-81.png
9,441,0,1444930276505,1444930276561,922,431,0,0,0,1,5,4,15,0004-00-0009-86.png,0001-00-0006-16.png
9,442,1,1444930277744,1444930277780,901,417,0,0,0,3,2,1,32,0003-00-0009-59.png,0002-00-0004-66.png
9,443,1,1444930278906,1444930278922,877,453,0,0,0,2,5,3,25,0002-00-0003-00.png,0001-00-0007-11.png
9,444,0,1444930282046,1444930282539,1072,311,0,0,0,1,2,1,12,0004-00-0007-60.png,0002-00-0005-69.png
9,445,1,1444930283375,1444930284405,459,246,0,0,0,3,2,1,32,0003-00-0002-37.png,0002-00-0002-61.png
9,446,1,1444930285719,1444930285774,862,394,0,0,0,4,2,2,42,0005-00-0000-13.png,0002-00-0002-75.png
9,447,1,1444930286834,1444930287668,899,400,0,0,0,2,3,1,23,0002-00-0000-44.png,0003-00-0008-84.png
9,448,1,1444930290510,1444930291004,375,413,0,0,0,4,1,3,41,0005-00-0008-05.png,0004-00-0006-83.png
9,449,1,1444930292309,1444930293190,943,352,0,0,0,1,3,2,13,0004-00-0002-45.png,0003-00-0009-53.png
9,450,1,1444930294058,1444930294795,419,333,0,0,0,4,1,3,41,0005-00-0009-02.png,0004-00-0001-35.png
9,451,1,1444930296148,1444930296184,885,389,0,0,0,2,5,3,25,0002-00-0000-34.png,0001-00-0005-33.png
9,452,0,1444930297199,1444930297227,862,358,0,0,0,3,4,1,34,0003-00-0005-01.png,0005-00-0009-01.png
9,453,1,1444930298343,1444930298371,875,387,0,0,0,2,1,1,21,0002-00-0007-36.png,0004-00-0008-44.png
9,454,1,1444930299495,1444930299519,889,413,0,0,0,5,1,4,51,0001-00-0008-48.png,0004-00-0005-58.png
9,455,1,1444930302646,1444930303120,403,401,0,0,0,5,3,2,53,0001-00-0008-53.png,0003-00-0004-33.png
9,456,0,1444930304395,1444930305027,421,402,0,0,0,2,4,2,24,0002-00-0000-43.png,0005-00-0005-04.png
9,457,0,1444930305848,1444930305892,859,387,0,0,0,3,4,1,34,0003-00-0001-54.png,0005-00-0007-19.png
9,458,0,1444930308728,1444930308748,420,518,0,0,0,1,4,3,14,0004-00-0006-83.png,0005-00-0001-08.png
9,459,0,1444930309770,1444930310349,333,373,0,0,0,4,5,1,45,0005-00-0005-15.png,0001-00-0007-17.png
9,460,1,1444930311261,1444930311944,908,367,0,0,0,4,2,2,42,0005-00-0001-59.png,0002-00-0005-07.png
9,461,1,1444930312849,1444930312861,904,383,0,0,0,3,1,2,31,0003-00-0002-41.png,0004-00-0000-22.png
9,462,1,1444930315931,1444930316403,964,393,0,0,0,4,2,2,42,0005-00-0004-44.png,0002-00-0008-72.png
9,463,1,1444930317242,1444930317842,931,378,0,0,0,2,3,1,23,0002-00-0006-50.png,0003-00-0004-26.png
9,464,0,1444930318702,1444930318736,901,425,0,0,0,4,5,1,45,0005-00-0001-54.png,0001-00-0001-35.png
9,465,1,1444930319757,1444930319785,865,410,0,0,0,1,5,4,15,0004-00-0006-03.png,0001-00-0000-86.png
9,466,0,1444930322867,1444930323298,1067,278,0,0,0,2,4,2,24,0002-00-0001-74.png,0005-00-0002-20.png
9,467,1,1444930324636,1444930325230,490,237,0,0,0,2,1,1,21,0002-00-0006-72.png,0004-00-0005-76.png
9,468,1,1444930326591,1444930326639,862,395,0,0,0,4,5,1,45,0005-00-0001-51.png,0001-00-0006-61.png
9,469,1,1444930329472,1444930329958,939,323,0,0,0,4,3,1,43,0005-00-0002-16.png,0003-00-0005-41.png
9,470,1,1444930331285,1444930331293,870,388,0,0,0,2,5,3,25,0002-00-0004-33.png,0001-00-0006-02.png
9,471,1,1444930334512,1444930334975,1041,270,0,0,0,1,5,4,15,0004-00-0002-11.png,0001-00-0003-49.png
9,472,1,1444930335923,1444930336769,921,350,0,0,0,5,3,2,53,0001-00-0001-77.png,0003-00-0008-65.png
9,473,0,1444930337694,1444930337722,923,365,0,0,0,3,4,1,34,0003-00-0008-71.png,0005-00-0007-65.png
9,474,1,1444930338798,1444930338838,875,444,0,0,0,1,5,4,15,0004-00-0001-89.png,0001-00-0001-02.png
9,475,1,1444930341687,1444930342175,476,266,0,0,0,2,3,1,23,0002-00-0008-00.png,0003-00-0004-60.png
9,476,1,1444930343410,1444930343989,1024,287,0,0,0,4,3,1,43,0005-00-0005-50.png,0003-00-0007-93.png
9,477,1,1444930344825,1444930344849,859,384,0,0,0,2,1,1,21,0002-00-0008-15.png,0004-00-0007-80.png
9,478,1,1444930348019,1444930348843,437,271,0,0,0,4,3,1,43,0005-00-0004-01.png,0003-00-0009-02.png
9,479,1,1444930350137,1444930350918,955,324,0,0,0,3,2,1,32,0003-00-0009-44.png,0002-00-0009-55.png
9,480,0,1444930351785,1444930351845,869,427,0,0,0,4,1,3,41,0005-00-0002-50.png,0004-00-0002-73.png
9,481,1,1444930352960,1444930352988,881,411,0,0,0,1,3,2,13,0004-00-0007-99.png,0003-00-0002-35.png
9,482,0,1444930356159,1444930356332,862,436,0,0,0,3,5,2,35,0003-00-0006-44.png,0001-00-0007-71.png
9,483,1,1444930357318,1444930358149,358,333,0,0,0,5,1,4,51,0001-00-0004-93.png,0004-00-0003-31.png
9,484,0,1444930361017,1444930361629,417,403,0,0,0,3,2,1,32,0003-00-0004-90.png,0002-00-0001-05.png
9,485,1,1444930362926,1444930363544,455,267,0,0,0,1,3,2,13,0004-00-0006-39.png,0003-00-0006-38.png
9,486,1,1444930365003,1444930365388,938,517,0,0,0,5,2,3,52,0001-00-0002-20.png,0002-00-0000-14.png
9,487,1,1444930366355,1444930367203,380,325,0,0,0,5,2,3,52,0001-00-0008-67.png,0002-00-0002-73.png
9,488,1,1444930368121,1444930368149,888,384,0,0,0,2,3,1,23,0002-00-0000-06.png,0003-00-0006-33.png
9,489,1,1444930369198,1444930369234,877,465,0,0,0,5,1,4,51,0001-00-0006-09.png,0004-00-0004-31.png
9,490,0,1444930370489,1444930370517,883,427,0,0,0,2,5,3,25,0002-00-0002-23.png,0001-00-0004-28.png
9,491,1,1444930371643,1444930371663,900,431,0,0,0,4,1,3,41,0005-00-0008-94.png,0004-00-0009-48.png
9,492,1,1444930374532,1444930375005,396,348,0,0,0,5,4,1,54,0001-00-0005-28.png,0005-00-0002-79.png
9,493,0,1444930376333,1444930376993,928,351,0,0,0,1,4,3,14,0004-00-0009-27.png,0005-00-0008-57.png
9,494,1,1444930377849,1444930377889,876,410,0,0,0,4,2,2,42,0005-00-0005-10.png,0002-00-0003-09.png
9,495,1,1444930378982,1444930379751,394,315,0,0,0,5,1,4,51,0001-00-0002-61.png,0004-00-0009-12.png
9,496,1,1444930380693,1444930380729,859,410,0,0,0,1,5,4,15,0004-00-0009-55.png,0001-00-0005-84.png
9,497,1,1444930383796,1444930384267,1035,275,0,0,0,2,3,1,23,0002-00-0008-89.png,0003-00-0002-48.png
9,498,0,1444930385110,1444930386158,1060,280,0,0,0,1,2,1,12,0004-00-0003-67.png,0002-00-0004-93.png
9,499,1,1444930389361,1444930389985,445,271,0,0,0,5,2,3,52,0001-00-0008-91.png,0002-00-0006-78.png
9,500,1,1444930390808,1444930392010,343,357,0,0,0,4,5,1,45,0005-00-0000-74.png,0001-00-0006-65.png
9,501,1,1444930392874,1444930393749,939,398,0,0,0,4,1,3,41,0005-00-0002-78.png,0004-00-0006-70.png
9,502,0,1444930394643,1444930394683,886,435,0,0,0,5,3,2,53,0001-00-0008-05.png,0003-00-0009-54.png
9,503,0,1444930395708,1444930396780,912,344,0,0,0,4,5,1,45,0005-00-0003-75.png,0001-00-0005-81.png
9,504,0,1444930397696,1444930397716,880,384,0,0,0,1,2,1,12,0004-00-0008-87.png,0002-00-0002-11.png
9,505,1,1444930400818,1444930401328,959,336,0,0,0,4,2,2,42,0005-00-0003-77.png,0002-00-0003-19.png
9,506,1,1444930402155,1444930402782,479,259,0,0,0,5,2,3,52,0001-00-0002-23.png,0002-00-0009-05.png
9,507,0,1444930403760,1444930404812,1051,306,0,0,0,1,5,4,15,0004-00-0000-20.png,0001-00-0008-32.png
9,508,1,1444930407992,1444930408506,1050,306,0,0,0,2,1,1,21,0002-00-0009-19.png,0004-00-0003-52.png
9,509,1,1444930409328,1444930409976,470,262,0,0,0,4,3,1,43,0005-00-0001-01.png,0003-00-0004-89.png
9,510,1,1444930410921,1444930411574,1041,267,0,0,0,4,1,3,41,0005-00-0007-49.png,0004-00-0000-44.png
9,511,0,1444930412492,1444930412520,932,435,0,0,0,4,5,1,45,0005-00-0009-76.png,0001-00-0007-87.png
9,512,1,1444930415684,1444930416215,948,423,0,0,0,4,1,3,41,0005-00-0008-61.png,0004-00-0001-34.png
9,513,1,1444930417604,1444930417652,862,342,0,0,0,2,1,1,21,0002-00-0006-62.png,0004-00-0000-81.png
9,514,0,1444930418684,1444930419458,454,263,0,0,0,2,3,1,23,0002-00-0003-97.png,0003-00-0001-93.png
9,515,1,1444930420891,1444930421829,403,332,0,0,0,2,4,2,24,0002-00-0007-83.png,0005-00-0008-46.png
9,516,0,1444930423016,1444930423620,1054,296,0,0,0,2,5,3,25,0002-00-0004-34.png,0001-00-0001-87.png
9,517,1,1444930424687,1444930424723,892,354,0,0,0,5,2,3,52,0001-00-0007-35.png,0002-00-0003-02.png
9,518,1,1444930425719,1444930425739,859,387,0,0,0,3,2,1,32,0003-00-0001-13.png,0002-00-0005-18.png
9,519,0,1444930428801,1444930429253,889,333,0,0,0,3,4,1,34,0003-00-0007-21.png,0005-00-0005-38.png
9,520,0,1444930430097,1444930431363,387,310,0,0,0,1,3,2,13,0004-00-0001-38.png,0003-00-0009-99.png
9,521,0,1444930432530,1444930433333,900,355,0,0,0,1,2,1,12,0004-00-0005-73.png,0002-00-0009-81.png
9,522,0,1444930434204,1444930434256,869,415,0,0,0,1,4,3,14,0004-00-0008-97.png,0005-00-0007-51.png
9,523,1,1444930435301,1444930435321,872,422,0,0,0,3,2,1,32,0003-00-0005-46.png,0002-00-0000-61.png
9,524,1,1444930438530,1444930439045,1041,297,0,0,0,4,1,3,41,0005-00-0000-56.png,0004-00-0001-46.png
9,525,1,1444930439876,1444930440227,939,522,0,0,0,5,4,1,54,0001-00-0003-39.png,0005-00-0000-95.png
9,526,1,1444930443389,1444930443904,1042,302,0,0,0,5,2,3,52,0001-00-0002-16.png,0002-00-0009-67.png
9,527,1,1444930444733,1444930444777,859,429,0,0,0,1,3,2,13,0004-00-0006-97.png,0003-00-0001-62.png
9,528,0,1444930447682,1444930448230,362,342,0,0,0,1,2,1,12,0004-00-0009-01.png,0002-00-0000-49.png
9,529,0,1444930449054,1444930449797,1049,267,0,0,0,3,5,2,35,0003-00-0004-42.png,0001-00-0002-86.png
9,530,1,1444930450631,1444930451527,387,358,0,0,0,4,5,1,45,0005-00-0007-32.png,0001-00-0009-99.png
9,531,0,1444930452420,1444930453185,444,321,0,0,0,1,5,4,15,0004-00-0009-94.png,0001-00-0008-18.png
9,532,0,1444930454460,1444930454504,880,392,0,0,0,1,4,3,14,0004-00-0009-80.png,0005-00-0006-93.png
9,533,1,1444930455561,1444930455597,869,410,0,0,0,1,3,2,13,0004-00-0002-98.png,0003-00-0003-61.png
9,534,1,1444930456864,1444930456892,888,410,0,0,0,3,2,1,32,0003-00-0003-03.png,0002-00-0004-93.png
9,535,0,1444930460034,1444930460506,378,387,0,0,0,2,5,3,25,0002-00-0002-49.png,0001-00-0003-52.png
9,536,1,1444930461752,1444930462380,508,260,0,0,0,3,5,2,35,0003-00-0004-41.png,0001-00-0002-91.png
9,537,1,1444930465531,1444930466022,1066,280,0,0,0,3,1,2,31,0003-00-0004-39.png,0004-00-0009-46.png
9,538,0,1444930467327,1444930467924,367,361,0,0,0,2,5,3,25,0002-00-0009-97.png,0001-00-0007-73.png
9,539,0,1444930468747,1444930469555,450,344,0,0,0,3,5,2,35,0003-00-0005-48.png,0001-00-0002-43.png
9,540,1,1444930470835,1444930470887,885,373,0,0,0,5,4,1,54,0001-00-0008-41.png,0005-00-0008-30.png
9,541,1,1444930471957,1444930471993,865,409,0,0,0,2,1,1,21,0002-00-0009-27.png,0004-00-0004-43.png
9,542,0,1444930474830,1444930475356,913,422,0,0,0,3,4,1,34,0003-00-0001-04.png,0005-00-0008-85.png
9,543,1,1444930476698,1444930477247,375,392,0,0,0,1,4,3,14,0004-00-0004-30.png,0005-00-0005-76.png
9,544,0,1444930478078,1444930478941,1041,268,0,0,0,1,5,4,15,0004-00-0006-01.png,0001-00-0003-25.png
9,545,1,1444930479898,1444930480651,1071,265,0,0,0,3,2,1,32,0003-00-0004-58.png,0002-00-0005-38.png
9,546,0,1444930481655,1444930481691,913,436,0,0,0,3,4,1,34,0003-00-0004-61.png,0005-00-0003-69.png
9,547,1,1444930482768,1444930483530,478,333,0,0,0,5,3,2,53,0001-00-0005-14.png,0003-00-0002-46.png
9,548,0,1444930484474,1444930484574,862,456,0,0,0,2,4,2,24,0002-00-0006-63.png,0005-00-0000-67.png
9,549,1,1444930487657,1444930488102,990,399,0,0,0,5,1,4,51,0001-00-0007-37.png,0004-00-0009-66.png
9,550,1,1444930488938,1444930488970,871,436,0,0,0,5,1,4,51,0001-00-0001-08.png,0004-00-0004-35.png
9,551,1,1444930492066,1444930492569,964,395,0,0,0,3,2,1,32,0003-00-0008-71.png,0002-00-0001-18.png
9,552,1,1444930493390,1444930494053,462,254,0,0,0,1,5,4,15,0004-00-0007-20.png,0001-00-0002-49.png
9,553,1,1444930494975,1444930495638,880,402,0,0,0,4,3,1,43,0005-00-0004-20.png,0003-00-0005-77.png
9,554,1,1444930496533,1444930496553,868,399,0,0,0,4,1,3,41,0005-00-0001-39.png,0004-00-0007-97.png
9,555,0,1444930499723,1444930500184,941,337,0,0,0,1,4,3,14,0004-00-0006-67.png,0005-00-0000-21.png
9,556,1,1444930501520,1444930502278,1047,290,0,0,0,5,2,3,52,0001-00-0007-03.png,0002-00-0008-53.png
9,557,1,1444930505227,1444930505331,940,293,0,0,0,1,4,3,14,0004-00-0000-81.png,0005-00-0004-60.png
9,558,0,1444930508489,1444930509052,957,444,0,0,0,2,4,2,24,0002-00-0000-37.png,0005-00-0002-14.png
9,559,0,1444930511988,1444930512550,1040,285,0,0,0,5,3,2,53,0001-00-0008-53.png,0003-00-0007-40.png
9,560,1,1444930513406,1444930514137,923,377,0,0,0,4,1,3,41,0005-00-0002-39.png,0004-00-0009-43.png
9,561,0,1444930515027,1444930515075,905,395,0,0,0,3,5,2,35,0003-00-0000-81.png,0001-00-0007-73.png
9,562,0,1444930518256,1444930518520,880,309,0,0,0,1,2,1,12,0004-00-0001-81.png,0002-00-0007-25.png
9,563,0,1444930519465,1444930520073,453,243,0,0,0,2,5,3,25,0002-00-0001-43.png,0001-00-0003-33.png
9,564,1,1444930520947,1444930520979,865,354,0,0,0,2,4,2,24,0002-00-0002-34.png,0005-00-0006-61.png
9,565,1,1444930522059,1444930522111,872,399,0,0,0,3,2,1,32,0003-00-0006-92.png,0002-00-0006-73.png
9,566,0,1444930525269,1444930525764,941,303,0,0,0,1,3,2,13,0004-00-0003-69.png,0003-00-0006-69.png
9,567,1,1444930527037,1444930527617,1074,314,0,0,0,3,1,2,31,0003-00-0000-12.png,0004-00-0003-71.png
9,568,0,1444930528444,1444930528492,900,386,0,0,0,2,5,3,25,0002-00-0006-28.png,0001-00-0001-02.png
9,569,0,1444930535092,1444930535121,893,353,0,0,0,1,5,4,15,0004-00-0006-77.png,0001-00-0002-81.png
9,570,1,1444930538151,1444930538799,990,410,0,0,0,5,4,1,54,0001-00-0007-10.png,0005-00-0001-77.png
9,571,0,1444930539659,1444930540389,366,340,0,0,0,3,4,1,34,0003-00-0005-20.png,0005-00-0008-13.png
9,572,1,1444930541229,1444930541914,389,377,0,0,0,3,1,2,31,0003-00-0001-22.png,0004-00-0009-73.png
9,573,1,1444930542842,1444930543477,1058,273,0,0,0,1,3,2,13,0004-00-0008-32.png,0003-00-0009-49.png
9,574,1,1444930544352,1444930544976,930,339,0,0,0,3,1,2,31,0003-00-0002-17.png,0004-00-0004-52.png
9,575,1,1444930545920,1444930545984,933,460,0,0,0,5,2,3,52,0001-00-0000-97.png,0002-00-0002-32.png
9,576,0,1444930548886,1444930549384,1044,293,0,0,0,3,4,1,34,0003-00-0002-05.png,0005-00-0009-74.png
9,577,1,1444930550286,1444930550314,871,410,0,0,0,5,2,3,52,0001-00-0002-63.png,0002-00-0006-46.png
9,578,1,1444930553436,1444930553912,935,325,0,0,0,5,1,4,51,0001-00-0001-06.png,0004-00-0006-01.png
9,579,1,1444930555224,1444930555240,863,309,0,0,0,5,1,4,51,0001-00-0006-66.png,0004-00-0006-32.png
9,580,1,1444930556326,1444930556912,432,265,0,0,0,5,2,3,52,0001-00-0001-24.png,0002-00-0000-72.png
9,581,0,1444930558333,1444930558695,966,482,0,0,0,3,1,2,31,0003-00-0004-66.png,0004-00-0009-40.png
9,582,0,1444930561932,1444930562474,382,368,0,0,0,4,5,1,45,0005-00-0004-83.png,0001-00-0006-16.png
9,583,1,1444930563759,1444930564294,1040,282,0,0,0,1,4,3,14,0004-00-0004-35.png,0005-00-0007-76.png
9,584,0,1444930565181,1444930565193,883,398,0,0,0,1,2,1,12,0004-00-0008-75.png,0002-00-0008-12.png
9,585,0,1444930566222,1444930566270,907,412,0,0,0,1,4,3,14,0004-00-0003-19.png,0005-00-0005-03.png
9,586,1,1444930567256,1444930567276,882,452,0,0,0,5,2,3,52,0001-00-0007-94.png,0002-00-0000-00.png
9,587,1,1444930568560,1444930568584,916,424,0,0,0,2,4,2,24,0002-00-0000-82.png,0005-00-0009-27.png
9,588,0,1444930571749,1444930572216,1049,314,0,0,0,4,5,1,45,0005-00-0002-64.png,0001-00-0005-29.png
9,589,1,1444930573489,1444930574088,444,264,0,0,0,5,4,1,54,0001-00-0003-90.png,0005-00-0001-27.png
9,590,1,1444930575425,1444930575457,857,405,0,0,0,4,2,2,42,0005-00-0008-95.png,0002-00-0007-78.png
9,591,1,1444930578444,1444930578480,523,455,0,0,0,4,1,3,41,0005-00-0000-32.png,0004-00-0001-56.png
9,592,1,1444930581597,1444930581625,906,352,0,0,0,3,4,1,34,0003-00-0000-36.png,0005-00-0001-44.png
9,593,1,1444930584569,1444930585071,1048,285,0,0,0,5,3,2,53,0001-00-0003-71.png,0003-00-0002-86.png
9,594,0,1444930586104,1444930587058,1046,323,0,0,0,2,5,3,25,0002-00-0002-25.png,0001-00-0002-09.png
9,595,1,1444930587913,1444930587937,865,400,0,0,0,2,1,1,21,0002-00-0007-45.png,0004-00-0007-43.png
9,596,1,1444930591157,1444930591669,1074,292,0,0,0,4,3,1,43,0005-00-0006-21.png,0003-00-0003-63.png
9,597,0,1444930592549,1444930592573,887,446,0,0,0,3,4,1,34,0003-00-0000-15.png,0005-00-0000-04.png
9,598,1,1444930593399,1444930594167,417,338,0,0,0,3,4,1,34,0003-00-0001-68.png,0005-00-0006-68.png
9,599,1,1444930595083,1444930596158,456,264,0,0,0,5,1,4,51,0001-00-0005-29.png,0004-00-0004-09.png
9,600,1,1444930597079,1444930597107,869,389,0,0,0,5,1,4,51,0001-00-0009-41.png,0004-00-0005-57.png
9,601,1,1444930600234,1444930600275,954,325,0,0,0,2,3,1,23,0002-00-0008-37.png,0003-00-0002-69.png
9,602,1,1444930601293,1444930601953,914,348,0,0,0,5,3,2,53,0001-00-0007-47.png,0003-00-0004-45.png
9,603,1,1444930602800,1444930602814,904,360,0,0,0,3,1,2,31,0003-00-0009-49.png,0004-00-0005-11.png
9,604,1,1444930606073,1444930606606,1072,331,0,0,0,4,2,2,42,0005-00-0004-20.png,0002-00-0009-96.png
9,605,0,1444930609509,1444930610102,1053,342,0,0,0,4,5,1,45,0005-00-0000-68.png,0001-00-0008-10.png
9,606,0,1444930611387,1444930612136,461,230,0,0,0,2,5,3,25,0002-00-0001-18.png,0001-00-0004-94.png
9,607,1,1444930615312,1444930615324,878,347,0,0,0,3,1,2,31,0003-00-0001-55.png,0004-00-0000-37.png
9,608,1,1444930618365,1444930618932,358,375,0,0,0,4,2,2,42,0005-00-0004-69.png,0002-00-0005-61.png
9,609,1,1444930620253,1444930620817,462,257,0,0,0,4,3,1,43,0005-00-0004-50.png,0003-00-0006-85.png
9,610,1,1444930622222,1444930622254,882,374,0,0,0,2,1,1,21,0002-00-0000-89.png,0004-00-0001-46.png
9,611,0,1444930625480,1444930626006,1041,266,0,0,0,4,2,2,42,0005-00-0001-48.png,0002-00-0007-72.png
9,612,1,1444930627237,1444930627281,862,380,0,0,0,1,5,4,15,0004-00-0006-81.png,0001-00-0004-47.png
9,613,0,1444930628372,1444930629532,1029,289,0,0,0,3,4,1,34,0003-00-0004-65.png,0005-00-0003-06.png
9,614,1,1444930632819,1444930633055,888,426,0,0,0,3,1,2,31,0003-00-0008-26.png,0004-00-0007-45.png
9,615,1,1444930633987,1444930634619,446,247,0,0,0,1,2,1,12,0004-00-0009-61.png,0002-00-0006-92.png
9,616,1,1444930635551,1444930636405,480,266,0,0,0,2,3,1,23,0002-00-0009-26.png,0003-00-0007-08.png
9,617,0,1444930639241,1444930639301,876,408,0,0,0,2,1,1,21,0002-00-0008-50.png,0004-00-0007-96.png
9,618,0,1444930640267,1444930640976,458,260,0,0,0,1,2,1,12,0004-00-0007-64.png,0002-00-0000-23.png
9,619,1,1444930641846,1444930641878,859,383,0,0,0,2,5,3,25,0002-00-0001-74.png,0001-00-0005-25.png
9,620,1,1444930644718,1444930645522,458,262,0,0,0,3,5,2,35,0003-00-0001-51.png,0001-00-0005-13.png
9,621,1,1444930646796,1444930647347,1067,265,0,0,0,3,2,1,32,0003-00-0005-48.png,0002-00-0000-34.png
9,622,0,1444930648256,1444930649009,1060,294,0,0,0,5,4,1,54,0001-00-0000-65.png,0005-00-0003-31.png
9,623,0,1444930649905,1444930649933,905,402,0,0,0,2,3,1,23,0002-00-0009-80.png,0003-00-0007-92.png
9,624,1,1444930651077,1444930651125,913,420,0,0,0,1,5,4,15,0004-00-0009-33.png,0001-00-0008-57.png
9,625,1,1444930654090,1444930654603,390,353,0,0,0,4,2,2,42,0005-00-0005-48.png,0002-00-0007-98.png
9,626,0,1444930655417,1444930656077,511,287,0,0,0,2,3,1,23,0002-00-0004-67.png,0003-00-0002-97.png
9,627,1,1444930657519,1444930658094,900,295,0,0,0,3,5,2,35,0003-00-0000-71.png,0001-00-0000-65.png
9,628,0,1444930659446,1444930659474,862,394,0,0,0,2,4,2,24,0002-00-0003-94.png,0005-00-0008-73.png
9,629,0,1444930660520,1444930660541,885,409,0,0,0,1,2,1,12,0004-00-0002-57.png,0002-00-0009-24.png
9,630,1,1444930661753,1444930662429,491,239,0,0,0,3,5,2,35,0003-00-0006-37.png,0001-00-0000-20.png
9,631,1,1444930663312,1444930664041,470,287,0,0,0,1,4,3,14,0004-00-0002-50.png,0005-00-0003-07.png
9,632,0,1444930665169,1444930665977,926,308,0,0,0,5,3,2,53,0001-00-0005-46.png,0003-00-0004-21.png
9,633,1,1444930666948,1444930666972,907,469,0,0,0,2,5,3,25,0002-00-0000-29.png,0001-00-0003-33.png
9,634,1,1444930668159,1444930668207,929,442,0,0,0,4,1,3,41,0005-00-0000-45.png,0004-00-0002-06.png
9,635,1,1444930669413,1444930669461,909,449,0,0,0,4,1,3,41,0005-00-0008-01.png,0004-00-0000-62.png
9,636,1,1444930672672,1444930673387,995,299,0,0,0,2,3,1,23,0002-00-0009-58.png,0003-00-0008-13.png
9,637,1,1444930674227,1444930674895,482,262,0,0,0,2,1,1,21,0002-00-0002-62.png,0004-00-0009-39.png
9,638,1,1444930675771,1444930676488,467,255,0,0,0,3,1,2,31,0003-00-0000-58.png,0004-00-0005-85.png
9,639,1,1444930677442,1444930677482,880,390,0,0,0,3,1,2,31,0003-00-0006-75.png,0004-00-0004-71.png
9,640,0,1444930680532,1444930681069,1047,323,0,0,0,1,5,4,15,0004-00-0002-82.png,0001-00-0004-67.png
9,641,1,1444930681954,1444930682730,907,341,0,0,0,4,2,2,42,0005-00-0001-55.png,0002-00-0004-20.png
9,642,0,1444930683591,1444930684409,1052,271,0,0,0,2,3,1,23,0002-00-0007-34.png,0003-00-0004-33.png
9,643,0,1444930685309,1444930685341,862,430,0,0,0,4,1,3,41,0005-00-0003-02.png,0004-00-0002-45.png
9,644,1,1444930686438,1444930687090,886,376,0,0,0,4,3,1,43,0005-00-0000-01.png,0003-00-0008-20.png
9,645,1,1444930687996,1444930688736,1048,272,0,0,0,4,1,3,41,0005-00-0004-07.png,0004-00-0003-77.png
9,646,1,1444930692072,1444930692568,460,286,0,0,0,2,4,2,24,0002-00-0004-48.png,0005-00-0006-72.png
9,647,0,1444930693788,1444930694504,479,290,0,0,0,4,5,1,45,0005-00-0004-99.png,0001-00-0009-82.png
9,648,0,1444930695399,1444930696137,1041,266,0,0,0,5,2,3,52,0001-00-0002-92.png,0002-00-0006-03.png
9,649,1,1444930699025,1444930699741,485,237,0,0,0,3,2,1,32,0003-00-0001-34.png,0002-00-0005-51.png
9,650,1,1444930702929,1444930703459,393,391,0,0,0,1,4,3,14,0004-00-0008-43.png,0005-00-0002-99.png
9,651,1,1444930704308,1444930705354,448,258,0,0,0,5,3,2,53,0001-00-0008-94.png,0003-00-0004-93.png
9,652,1,1444930706229,1444930706861,901,317,0,0,0,3,2,1,32,0003-00-0001-37.png,0002-00-0003-93.png
9,653,1,1444930707830,1444930707867,954,418,0,0,0,2,1,1,21,0002-00-0002-52.png,0004-00-0002-92.png
9,654,1,1444930708871,1444930708919,879,436,0,0,0,5,4,1,54,0001-00-0008-49.png,0005-00-0008-24.png
9,655,0,1444930711994,1444930712216,867,348,0,0,0,3,4,1,34,0003-00-0001-79.png,0005-00-0000-12.png
9,656,1,1444930715325,1444930716089,1098,282,0,0,0,1,5,4,15,0004-00-0006-21.png,0001-00-0005-44.png
9,657,1,1444930716930,1444930717554,1047,322,0,0,0,3,1,2,31,0003-00-0009-42.png,0004-00-0004-00.png
9,658,1,1444930718399,1444930718435,888,384,0,0,0,1,3,2,13,0004-00-0006-89.png,0003-00-0004-23.png
9,659,0,1444930721803,1444930721811,859,366,0,0,0,5,3,2,53,0001-00-0000-30.png,0003-00-0006-61.png
9,660,0,1444930723172,1444930723228,863,380,0,0,0,4,3,1,43,0005-00-0006-97.png,0003-00-0009-90.png
9,661,0,1444930724275,1444930724991,447,312,0,0,0,2,5,3,25,0002-00-0005-19.png,0001-00-0006-26.png
9,662,1,1444930726254,1444930726306,874,427,0,0,0,5,3,2,53,0001-00-0005-83.png,0003-00-0005-51.png
9,663,0,1444930727396,1444930728152,372,357,0,0,0,2,3,1,23,0002-00-0006-56.png,0003-00-0006-90.png
9,664,0,1444930729154,1444930729174,888,344,0,0,0,2,5,3,25,0002-00-0000-84.png,0001-00-0005-03.png
9,665,1,1444930732425,1444930732978,922,329,0,0,0,3,4,1,34,0003-00-0007-26.png,0005-00-0004-23.png
9,666,1,1444930736089,1444930736329,913,447,0,0,0,5,3,2,53,0001-00-0001-20.png,0003-00-0006-43.png
9,667,1,1444930739169,1444930739659,913,398,0,0,0,5,2,3,52,0001-00-0005-52.png,0002-00-0004-20.png
9,668,1,1444930740533,1444930740553,881,403,0,0,0,5,4,1,54,0001-00-0006-53.png,0005-00-0005-95.png
9,669,0,1444930741528,1444930742248,1055,292,0,0,0,1,4,3,14,0004-00-0000-99.png,0005-00-0003-69.png
9,670,0,1444930743115,1444930743801,373,373,0,0,0,3,4,1,34,0003-00-0001-80.png,0005-00-0000-64.png
9,671,1,1444930744877,1444930744889,885,396,0,0,0,1,5,4,15,0004-00-0008-51.png,0001-00-0001-51.png
9,672,0,1444930749211,1444930749746,939,401,0,0,0,1,3,2,13,0004-00-0002-94.png,0003-00-0002-47.png
9,673,1,1444930751019,1444930751671,434,273,0,0,0,3,2,1,32,0003-00-0004-19.png,0002-00-0006-44.png
9,674,1,1444930753045,1444930753621,1033,273,0,0,0,4,1,3,41,0005-00-0005-95.png,0004-00-0002-58.png
9,675,1,1444930754605,1444930754672,939,410,0,0,0,5,1,4,51,0001-00-0005-09.png,0004-00-0008-11.png
9,676,0,1444930757804,1444930758314,1051,285,0,0,0,2,5,3,25,0002-00-0001-76.png,0001-00-0003-95.png
9,677,1,1444930759576,1444930760374,440,247,0,0,0,1,3,2,13,0004-00-0004-39.png,0003-00-0003-66.png
9,678,1,1444930761732,1444930761910,939,462,0,0,0,3,4,1,34,0003-00-0006-15.png,0005-00-0002-52.png
9,679,0,1444930765002,1444930765505,1039,312,0,0,0,2,3,1,23,0002-00-0006-96.png,0003-00-0004-20.png
9,680,0,1444930766390,1444930766774,1013,560,0,0,0,2,4,2,24,0002-00-0006-21.png,0005-00-0002-58.png
9,681,0,1444930767784,1444930768477,466,227,0,0,0,1,4,3,14,0004-00-0000-12.png,0005-00-0009-93.png
9,682,1,1444930769889,1444930769925,888,370,0,0,0,5,2,3,52,0001-00-0008-47.png,0002-00-0006-51.png
9,683,1,1444930771009,1444930771033,858,413,0,0,0,5,2,3,52,0001-00-0004-01.png,0002-00-0007-39.png
9,684,0,1444930774172,1444930774666,1054,267,0,0,0,4,3,1,43,0005-00-0001-06.png,0003-00-0008-40.png
9,685,1,1444930776012,1444930776554,1055,262,0,0,0,1,4,3,14,0004-00-0007-32.png,0005-00-0005-98.png
9,686,1,1444930777929,1444930778554,430,376,0,0,0,2,4,2,24,0002-00-0006-86.png,0005-00-0006-25.png
9,687,1,1444930781756,1444930782247,453,265,0,0,0,4,3,1,43,0005-00-0005-55.png,0003-00-0005-34.png
9,688,0,1444930783073,1444930784076,460,256,0,0,0,1,5,4,15,0004-00-0006-44.png,0001-00-0009-05.png
9,689,1,1444930785430,1444930785776,911,515,0,0,0,1,4,3,14,0004-00-0002-97.png,0005-00-0005-50.png
9,690,0,1444930788730,1444930788738,521,426,0,0,0,3,4,1,34,0003-00-0001-45.png,0005-00-0009-94.png
9,691,0,1444930789796,1444930790834,453,262,0,0,0,1,2,1,12,0004-00-0007-44.png,0002-00-0000-64.png
9,692,1,1444930793650,1444930793698,910,531,0,0,0,5,2,3,52,0001-00-0005-46.png,0002-00-0003-91.png
9,693,1,1444930798847,1444930798945,927,279,0,0,0,5,1,4,51,0001-00-0002-99.png,0004-00-0002-14.png
9,694,1,1444930802387,1444930802828,968,322,0,0,0,3,1,2,31,0003-00-0001-77.png,0004-00-0005-78.png
9,695,1,1444930807345,1444930807384,894,346,0,0,0,5,3,2,53,0001-00-0002-27.png,0003-00-0006-02.png
9,696,1,1444930808378,1444930808944,412,295,0,0,0,4,1,3,41,0005-00-0004-00.png,0004-00-0009-68.png
9,697,1,1444930809969,1444930815464,1111,430,0,0,0,2,3,1,23,0002-00-0009-75.png,0003-00-0007-65.png
9,698,1,1444930819815,1444930820332,1016,552,0,0,0,3,1,2,31,0003-00-0002-59.png,0004-00-0000-60.png
9,699,1,1444930823484,1444930827386,1120,463,0,0,0,4,1,3,41,0005-00-0002-21.png,0004-00-0006-14.png
9,700,1,1444930828521,1444930830780,296,469,0,0,0,5,4,1,54,0001-00-0000-25.png,0005-00-0004-79.png
9,701,0,1444930831780,1444930832537,921,365,0,0,0,4,5,1,45,0005-00-0008-56.png,0001-00-0003-41.png
9,702,1,1444930833590,1444930833618,864,401,0,0,0,3,1,2,31,0003-00-0005-00.png,0004-00-0005-42.png
9,703,1,1444930834693,1444930835478,1005,279,0,0,0,5,3,2,53,0001-00-0008-68.png,0003-00-0007-75.png
9,704,0,1444930836373,1444930836409,862,420,0,0,0,2,1,1,21,0002-00-0000-00.png,0004-00-0006-15.png
9,705,1,1444930839622,1444930840119,926,362,0,0,0,1,2,1,12,0004-00-0001-94.png,0002-00-0004-59.png
9,706,1,1444930841400,1444930841925,480,242,0,0,0,5,4,1,54,0001-00-0003-93.png,0005-00-0002-88.png
9,707,1,1444930842930,1444930842970,906,365,0,0,0,3,2,1,32,0003-00-0000-51.png,0002-00-0009-01.png
9,708,1,1444930844028,1444930844083,862,410,0,0,0,2,3,1,23,0002-00-0003-60.png,0003-00-0004-33.png
9,709,1,1444930847282,1444930847842,964,348,0,0,0,1,4,3,14,0004-00-0008-12.png,0005-00-0006-62.png
9,710,1,1444930848694,1444930849252,912,352,0,0,0,4,3,1,43,0005-00-0001-20.png,0003-00-0007-98.png
9,711,1,1444930850136,1444930850844,499,290,0,0,0,4,2,2,42,0005-00-0009-78.png,0002-00-0005-41.png
9,712,0,1444930851946,1444930852709,459,281,0,0,0,1,4,3,14,0004-00-0004-51.png,0005-00-0001-24.png
9,713,0,1444930853673,1444930854498,440,306,0,0,0,3,5,2,35,0003-00-0006-94.png,0001-00-0000-99.png
9,714,1,1444930855588,1444930855615,876,410,0,0,0,2,4,2,24,0002-00-0009-07.png,0005-00-0000-55.png
9,715,1,1444930858649,1444930858937,986,313,0,0,0,5,3,2,53,0001-00-0009-74.png,0003-00-0002-30.png
9,716,1,1444930859862,1444930860574,944,340,0,0,0,2,3,1,23,0002-00-0008-43.png,0003-00-0004-29.png
9,717,1,1444930861553,1444930861573,909,449,0,0,0,2,5,3,25,0002-00-0001-02.png,0001-00-0008-92.png
9,718,1,1444930864842,1444930865106,931,323,0,0,0,5,1,4,51,0001-00-0006-11.png,0004-00-0003-27.png
9,719,1,1444930866072,1444930866104,888,436,0,0,0,5,1,4,51,0001-00-0008-72.png,0004-00-0007-03.png
9,720,1,1444930867101,1444930867121,869,428,0,0,0,5,1,4,51,0001-00-0007-24.png,0004-00-0007-89.png
9,721,1,1444930870369,1444930870875,1056,253,0,0,0,2,3,1,23,0002-00-0007-02.png,0003-00-0005-55.png
9,722,0,1444930871776,1444930871840,888,447,0,0,0,3,5,2,35,0003-00-0008-09.png,0001-00-0002-79.png
9,723,0,1444930875010,1444930875528,1056,313,0,0,0,5,1,4,51,0001-00-0001-16.png,0004-00-0004-26.png
9,724,1,1444930876799,1444930877381,478,252,0,0,0,3,1,2,31,0003-00-0003-62.png,0004-00-0003-16.png
9,725,1,1444930878328,1444930879055,913,318,0,0,0,4,1,3,41,0005-00-0002-78.png,0004-00-0005-13.png
9,726,0,1444930880021,1444930880052,916,375,0,0,0,4,5,1,45,0005-00-0006-25.png,0001-00-0001-33.png
9,727,0,1444930881189,1444930882011,451,242,0,0,0,3,5,2,35,0003-00-0003-56.png,0001-00-0005-56.png
9,728,1,1444930882997,1444930883049,875,419,0,0,0,4,3,1,43,0005-00-0002-82.png,0003-00-0003-33.png
9,729,0,1444930886186,1444930886683,479,283,0,0,0,1,2,1,12,0004-00-0008-82.png,0002-00-0000-67.png
9,730,1,1444930887938,1444930887986,907,358,0,0,0,3,2,1,32,0003-00-0000-46.png,0002-00-0006-95.png
9,731,1,1444930889051,1444930891454,944,368,0,0,0,2,1,1,21,0002-00-0000-94.png,0004-00-0004-93.png
9,732,0,1444930892339,1444930892995,1061,313,0,0,0,5,4,1,54,0001-00-0003-33.png,0005-00-0004-21.png
9,733,0,1444930893837,1444930893868,888,384,0,0,0,5,4,1,54,0001-00-0007-61.png,0005-00-0000-59.png
9,734,1,1444930897004,1444930897520,419,368,0,0,0,4,3,1,43,0005-00-0003-14.png,0003-00-0009-19.png
9,735,1,1444930898858,1444930899450,929,336,0,0,0,1,5,4,15,0004-00-0009-62.png,0001-00-0000-78.png
9,736,1,1444930900407,1444930900427,865,427,0,0,0,2,1,1,21,0002-00-0005-69.png,0004-00-0000-31.png
9,737,1,1444930903519,1444930904052,939,400,0,0,0,5,3,2,53,0001-00-0006-14.png,0003-00-0001-67.png
9,738,0,1444930905337,1444930905373,867,403,0,0,0,4,5,1,45,0005-00-0004-23.png,0001-00-0008-03.png
9,739,1,1444930906409,1444930907024,445,240,0,0,0,5,2,3,52,0001-00-0002-76.png,0002-00-0005-52.png
9,740,0,1444930907897,1444930907960,872,424,0,0,0,1,5,4,15,0004-00-0009-40.png,0001-00-0008-86.png
9,741,1,1444930909064,1444930909759,371,375,0,0,0,3,5,2,35,0003-00-0002-94.png,0001-00-0003-97.png
9,742,0,1444930910910,1444930911588,914,319,0,0,0,4,5,1,45,0005-00-0007-84.png,0001-00-0005-25.png
9,743,0,1444930913026,1444930913056,879,339,0,0,0,2,1,1,21,0002-00-0004-20.png,0004-00-0007-21.png
9,744,0,1444930916488,1444930917010,441,307,0,0,0,2,5,3,25,0002-00-0008-67.png,0001-00-0003-71.png
9,745,1,1444930917823,1444930919102,1047,298,0,0,0,4,2,2,42,0005-00-0001-65.png,0002-00-0007-43.png
9,746,0,1444930919988,1444930920012,870,447,0,0,0,1,2,1,12,0004-00-0002-61.png,0002-00-0008-87.png
9,747,1,1444930923092,1444930923376,935,359,0,0,0,1,5,4,15,0004-00-0009-70.png,0001-00-0002-81.png
9,748,1,1444930926384,1444930926900,1067,291,0,0,0,3,2,1,32,0003-00-0001-96.png,0002-00-0005-32.png
9,749,1,1444930929814,1444930930376,374,369,0,0,0,4,2,2,42,0005-00-0001-19.png,0002-00-0001-97.png
9,750,0,1444930931689,1444930932313,1010,262,0,0,0,1,2,1,12,0004-00-0003-37.png,0002-00-0000-87.png
9,751,1,1444930933247,1444930933265,887,425,0,0,0,5,4,1,54,0001-00-0008-47.png,0005-00-0000-64.png
9,752,1,1444930934395,1444930934435,888,410,0,0,0,4,1,3,41,0005-00-0009-63.png,0004-00-0003-87.png
9,753,1,1444930935538,1444930935598,895,454,0,0,0,3,1,2,31,0003-00-0009-00.png,0004-00-0008-52.png
9,754,0,1444930938788,1444930939293,1055,300,0,0,0,1,5,4,15,0004-00-0007-14.png,0001-00-0007-24.png
9,755,1,1444930940566,1444930941155,463,261,0,0,0,3,2,1,32,0003-00-0000-25.png,0002-00-0009-90.png
9,756,1,1444930942033,1444930942831,930,354,0,0,0,2,1,1,21,0002-00-0009-46.png,0004-00-0002-96.png
9,757,0,1444930943732,1444930944440,355,405,0,0,0,3,5,2,35,0003-00-0009-46.png,0001-00-0001-04.png
9,758,1,1444930945614,1444930945636,862,410,0,0,0,5,1,4,51,0001-00-0009-40.png,0004-00-0009-84.png
9,759,0,1444930946636,1444930946721,884,504,0,0,0,2,1,1,21,0002-00-0002-58.png,0004-00-0004-44.png
9,760,0,1444930947858,1444930947890,877,391,0,0,0,2,4,2,24,0002-00-0004-97.png,0005-00-0007-18.png
9,761,1,1444930950780,1444930951296,483,292,0,0,0,1,2,1,12,0004-00-0009-43.png,0002-00-0005-73.png
9,762,1,1444930952192,1444930952802,917,344,0,0,0,1,4,3,14,0004-00-0001-06.png,0005-00-0008-29.png
9,763,1,1444930953689,1444930953755,880,410,0,0,0,4,3,1,43,0005-00-0004-85.png,0003-00-0006-30.png
9,764,1,1444930954747,1444930955505,463,319,0,0,0,1,4,3,14,0004-00-0007-88.png,0005-00-0005-11.png
9,765,1,1444930956446,1444930957764,492,255,0,0,0,2,3,1,23,0002-00-0000-74.png,0003-00-0000-27.png
9,766,1,1444930960627,1444930961299,449,248,0,0,0,4,1,3,41,0005-00-0004-81.png,0004-00-0004-46.png
9,767,1,1444930962219,1444930962881,469,259,0,0,0,4,5,1,45,0005-00-0006-33.png,0001-00-0009-96.png
9,768,0,1444930963726,1444930964443,1069,335,0,0,0,3,4,1,34,0003-00-0008-20.png,0005-00-0005-03.png
9,769,0,1444930965337,1444930965369,933,416,0,0,0,2,3,1,23,0002-00-0006-39.png,0003-00-0009-26.png
9,770,0,1444930966531,1444930966569,894,426,0,0,0,1,4,3,14,0004-00-0004-71.png,0005-00-0005-27.png
9,771,0,1444930967714,1444930967762,879,467,0,0,0,1,4,3,14,0004-00-0004-41.png,0005-00-0009-74.png
9,772,1,1444930969009,1444930969044,941,407,0,0,0,4,3,1,43,0005-00-0001-43.png,0003-00-0002-19.png
9,773,0,1444930972286,1444930972829,513,309,0,0,0,4,2,2,42,0005-00-0009-69.png,0002-00-0000-64.png
9,774,0,1444930974137,1444930974766,491,264,0,0,0,5,3,2,53,0001-00-0006-63.png,0003-00-0003-27.png
9,775,0,1444930975602,1444930976505,981,355,0,0,0,3,5,2,35,0003-00-0009-86.png,0001-00-0002-50.png
9,776,1,1444930977480,1444930977504,924,441,0,0,0,3,1,2,31,0003-00-0001-45.png,0004-00-0002-88.png
9,777,1,1444930980644,1444930981189,480,274,0,0,0,2,4,2,24,0002-00-0003-01.png,0005-00-0008-25.png
9,778,1,1444930982062,1444930982920,453,237,0,0,0,3,2,1,32,0003-00-0002-32.png,0002-00-0001-78.png
9,779,0,1444930983877,1444930983929,862,436,0,0,0,5,2,3,52,0001-00-0006-64.png,0002-00-0006-79.png
9,780,1,1444930985085,1444930985908,1195,384,0,0,0,5,4,1,54,0001-00-0009-74.png,0005-00-0003-97.png
9,781,1,1444930986953,1444930987005,888,453,0,0,0,4,3,1,43,0005-00-0000-28.png,0003-00-0002-80.png
9,782,1,1444930987996,1444930988020,893,450,0,0,0,5,3,2,53,0001-00-0001-89.png,0003-00-0001-90.png
9,783,1,1444930990868,1444930991333,916,338,0,0,0,3,1,2,31,0003-00-0001-54.png,0004-00-0002-26.png
9,784,1,1444930992213,1444930992882,383,452,0,0,0,4,2,2,42,0005-00-0004-32.png,0002-00-0007-43.png
9,785,0,1444930994307,1444930994355,888,396,0,0,0,5,4,1,54,0001-00-0006-81.png,0005-00-0000-54.png
9,786,1,1444930995538,1444930996289,940,301,0,0,0,3,1,2,31,0003-00-0000-74.png,0004-00-0002-19.png
9,787,1,1444930997217,1444930997225,909,439,0,0,0,4,1,3,41,0005-00-0002-30.png,0004-00-0006-72.png
9,788,0,1444930998420,1444930998468,893,435,0,0,0,1,2,1,12,0004-00-0005-73.png,0002-00-0008-57.png
9,789,0,1444931001440,1444931001925,1097,354,0,0,0,4,5,1,45,0005-00-0004-01.png,0001-00-0001-46.png
9,790,1,1444931002757,1444931003426,463,245,0,0,0,4,2,2,42,0005-00-0002-80.png,0002-00-0007-07.png
9,791,0,1444931004258,1444931005175,374,352,0,0,0,3,4,1,34,0003-00-0005-47.png,0005-00-0004-83.png
9,792,1,1444931006133,1444931006193,875,453,0,0,0,5,4,1,54,0001-00-0002-91.png,0005-00-0003-31.png
9,793,1,1444931009133,1444931009209,955,336,0,0,0,1,3,2,13,0004-00-0003-14.png,0003-00-0003-80.png
9,794,1,1444931010163,1444931010765,1027,287,0,0,0,4,5,1,45,0005-00-0005-17.png,0001-00-0005-87.png
9,795,0,1444931013673,1444931014457,446,287,0,0,0,2,5,3,25,0002-00-0007-08.png,0001-00-0007-05.png
9,796,1,1444931017581,1444931017629,963,355,0,0,0,4,2,2,42,0005-00-0005-48.png,0002-00-0005-17.png
9,797,0,1444931020500,1444931021068,451,263,0,0,0,3,5,2,35,0003-00-0007-12.png,0001-00-0006-12.png
9,798,1,1444931021911,1444931022524,995,297,0,0,0,5,2,3,52,0001-00-0006-10.png,0002-00-0008-30.png
9,799,0,1444931023422,1444931023442,891,388,0,0,0,2,4,2,24,0002-00-0009-54.png,0005-00-0003-21.png
9,800,1,1444931024486,1444931024526,873,417,0,0,0,2,4,2,24,0002-00-0003-76.png,0005-00-0008-83.png
9,801,1,1444931027647,1444931028119,1059,274,0,0,0,1,4,3,14,0004-00-0008-38.png,0005-00-0004-34.png
9,802,0,1444931031025,1444931031572,469,297,0,0,0,3,4,1,34,0003-00-0009-53.png,0005-00-0004-69.png
9,803,1,1444931032842,1444931033395,1059,258,0,0,0,4,1,3,41,0005-00-0006-52.png,0004-00-0004-74.png
9,804,1,1444931034253,1444931035052,414,280,0,0,0,1,5,4,15,0004-00-0009-09.png,0001-00-0002-00.png
9,805,0,1444931036391,1444931036416,862,367,0,0,0,1,5,4,15,0004-00-0008-50.png,0001-00-0000-46.png
9,806,0,1444931037437,1444931037473,862,419,0,0,0,2,1,1,21,0002-00-0005-55.png,0004-00-0008-93.png
9,807,0,1444931040613,1444931041119,1049,286,0,0,0,1,3,2,13,0004-00-0003-66.png,0003-00-0008-63.png
9,808,0,1444931042005,1444931042025,862,436,0,0,0,2,4,2,24,0002-00-0001-39.png,0005-00-0006-92.png
9,809,1,1444931043048,1444931053423,500,312,0,0,0,4,5,1,45,0005-00-0003-47.png,0001-00-0005-56.png
9,810,0,1444931057014,1444931057539,1065,325,0,0,0,4,2,2,42,0005-00-0004-14.png,0002-00-0005-52.png
9,811,0,1444931058851,1444931059413,377,355,0,0,0,1,3,2,13,0004-00-0007-81.png,0003-00-0002-07.png
9,812,1,1444931060602,1444931061168,1050,267,0,0,0,4,3,1,43,0005-00-0007-63.png,0003-00-0005-73.png
9,813,0,1444931062082,1444931062110,866,401,0,0,0,1,5,4,15,0004-00-0008-58.png,0001-00-0004-23.png
9,814,1,1444931063135,1444931063850,439,289,0,0,0,3,4,1,34,0003-00-0003-96.png,0005-00-0007-32.png
9,815,0,1444931064852,1444931064892,861,366,0,0,0,2,4,2,24,0002-00-0007-56.png,0005-00-0004-84.png
9,816,0,1444931069843,1444931070410,433,271,0,0,0,4,5,1,45,0005-00-0005-48.png,0001-00-0009-01.png
9,817,0,1444931071669,1444931072297,489,277,0,0,0,5,4,1,54,0001-00-0005-22.png,0005-00-0004-44.png
9,818,0,1444931073649,1444931074282,1055,279,0,0,0,5,4,1,54,0001-00-0002-87.png,0005-00-0008-03.png
9,819,1,1444931075099,1444931075115,893,371,0,0,0,4,1,3,41,0005-00-0009-79.png,0004-00-0009-65.png
9,820,0,1444931078855,1444931079344,918,345,0,0,0,1,5,4,15,0004-00-0007-39.png,0001-00-0009-33.png
9,821,0,1444931080173,1444931080861,457,284,0,0,0,4,5,1,45,0005-00-0005-31.png,0001-00-0009-39.png
9,822,1,1444931082264,1444931082850,1073,312,0,0,0,2,4,2,24,0002-00-0007-99.png,0005-00-0007-81.png
9,823,1,1444931085792,1444931086295,940,332,0,0,0,2,5,3,25,0002-00-0001-28.png,0001-00-0004-49.png
9,824,1,1444931087128,1444931087797,1071,264,0,0,0,3,1,2,31,0003-00-0002-94.png,0004-00-0008-34.png
9,825,1,1444931088652,1444931088692,895,412,0,0,0,2,5,3,25,0002-00-0005-53.png,0001-00-0007-28.png
9,826,1,1444931089688,1444931089744,898,430,0,0,0,2,4,2,24,0002-00-0002-29.png,0005-00-0007-07.png
9,827,0,1444931095401,1444931095891,911,355,0,0,0,5,2,3,52,0001-00-0000-63.png,0002-00-0008-80.png
9,828,1,1444931096774,1444931097490,491,250,0,0,0,2,3,1,23,0002-00-0001-52.png,0003-00-0000-53.png
9,829,1,1444931098361,1444931098369,865,410,0,0,0,3,1,2,31,0003-00-0005-61.png,0004-00-0001-92.png
9,830,0,1444931101283,1444931101769,454,289,0,0,0,3,5,2,35,0003-00-0003-40.png,0001-00-0007-93.png
9,831,1,1444931103110,1444931103683,964,317,0,0,0,3,4,1,34,0003-00-0003-89.png,0005-00-0005-39.png
9,832,1,1444931104653,1444931104677,918,434,0,0,0,5,1,4,51,0001-00-0005-18.png,0004-00-0005-99.png
9,833,1,1444931109292,1444931109336,873,358,0,0,0,2,1,1,21,0002-00-0004-69.png,0004-00-0009-42.png
9,834,1,1444931112501,1444931112590,939,306,0,0,0,2,4,2,24,0002-00-0000-08.png,0005-00-0002-11.png
9,835,1,1444931114074,1444931114666,427,436,0,0,0,5,3,2,53,0001-00-0008-72.png,0003-00-0000-74.png
9,836,1,1444931115970,1444931116603,501,407,0,0,0,3,1,2,31,0003-00-0002-07.png,0004-00-0005-82.png
9,837,1,1444931119987,1444931120492,1055,306,0,0,0,1,3,2,13,0004-00-0000-33.png,0003-00-0004-37.png
9,838,1,1444931121783,1444931122427,1030,294,0,0,0,4,2,2,42,0005-00-0007-83.png,0002-00-0004-39.png
9,839,0,1444931123334,1444931123358,866,352,0,0,0,3,4,1,34,0003-00-0000-53.png,0005-00-0002-64.png
9,840,1,1444931126504,1444931126990,363,358,0,0,0,1,5,4,15,0004-00-0004-98.png,0001-00-0009-94.png
9,841,1,1444931128345,1444931128896,1056,304,0,0,0,1,5,4,15,0004-00-0002-35.png,0001-00-0003-44.png
9,842,1,1444931129740,1444931129776,888,396,0,0,0,2,5,3,25,0002-00-0001-65.png,0001-00-0002-77.png
9,843,1,1444931133699,1444931134325,458,258,0,0,0,5,2,3,52,0001-00-0004-27.png,0002-00-0007-43.png
9,844,1,1444931135161,1444931135828,467,242,0,0,0,1,5,4,15,0004-00-0000-83.png,0001-00-0000-19.png
9,845,1,1444931136659,1444931137442,366,349,0,0,0,5,2,3,52,0001-00-0005-58.png,0002-00-0008-27.png
9,846,1,1444931138308,1444931138896,921,341,0,0,0,4,3,1,43,0005-00-0008-59.png,0003-00-0002-60.png
9,847,0,1444931139852,1444931139892,918,406,0,0,0,2,3,1,23,0002-00-0005-84.png,0003-00-0005-29.png
9,848,1,1444931140875,1444931140903,880,408,0,0,0,5,2,3,52,0001-00-0000-74.png,0002-00-0002-59.png
9,849,1,1444931142006,1444931142701,488,257,0,0,0,5,2,3,52,0001-00-0005-34.png,0002-00-0000-88.png
9,850,1,1444931146162,1444931146713,1066,344,0,0,0,2,1,1,21,0002-00-0002-81.png,0004-00-0004-56.png
9,851,0,1444931148060,1444931148795,494,260,0,0,0,2,1,1,21,0002-00-0005-06.png,0004-00-0001-78.png
9,852,0,1444931149644,1444931150335,486,248,0,0,0,2,1,1,21,0002-00-0001-81.png,0004-00-0007-26.png
9,853,1,1444931151208,1444931152300,402,342,0,0,0,5,1,4,51,0001-00-0008-31.png,0004-00-0009-83.png
9,854,0,1444931153206,1444931153986,910,426,0,0,0,4,5,1,45,0005-00-0006-05.png,0001-00-0005-17.png
9,855,1,1444931155007,1444931155611,439,301,0,0,0,5,2,3,52,0001-00-0003-64.png,0002-00-0006-64.png
9,856,0,1444931156547,1444931157344,1051,341,0,0,0,1,3,2,13,0004-00-0008-78.png,0003-00-0009-67.png
9,857,0,1444931158414,1444931158454,919,427,0,0,0,1,5,4,15,0004-00-0000-16.png,0001-00-0004-11.png
9,858,1,1444931161323,1444931161971,388,384,0,0,0,3,2,1,32,0003-00-0001-48.png,0002-00-0003-06.png
9,859,0,1444931162814,1444931162862,862,514,0,0,0,1,2,1,12,0004-00-0006-48.png,0002-00-0001-20.png
9,860,0,1444931163946,1444931164734,493,262,0,0,0,1,2,1,12,0004-00-0009-51.png,0002-00-0008-12.png
9,861,1,1444931165584,1444931165612,862,498,0,0,0,1,3,2,13,0004-00-0009-23.png,0003-00-0005-86.png
9,862,1,1444931166940,1444931166968,888,384,0,0,0,1,2,1,12,0004-00-0001-28.png,0002-00-0009-53.png
9,863,0,1444931168019,1444931168043,886,435,0,0,0,4,5,1,45,0005-00-0006-57.png,0001-00-0006-08.png
9,864,1,1444931169312,1444931169344,888,446,0,0,0,1,2,1,12,0004-00-0000-69.png,0002-00-0000-31.png
9,865,1,1444931172321,1444931172858,460,272,0,0,0,4,1,3,41,0005-00-0004-10.png,0004-00-0005-42.png
9,866,1,1444931173723,1444931174377,1041,279,0,0,0,5,1,4,51,0001-00-0007-88.png,0004-00-0008-69.png
9,867,1,1444931175318,1444931175330,899,453,0,0,0,3,4,1,34,0003-00-0000-64.png,0005-00-0004-05.png
9,868,1,1444931176428,1444931176480,907,446,0,0,0,3,5,2,35,0003-00-0007-61.png,0001-00-0008-69.png
9,869,0,1444931179657,1444931179943,938,438,0,0,0,4,5,1,45,0005-00-0008-65.png,0001-00-0001-14.png
9,870,1,1444931180938,1444931181576,441,317,0,0,0,1,4,3,14,0004-00-0008-89.png,0005-00-0003-31.png
9,871,0,1444931182481,1444931183294,900,336,0,0,0,2,1,1,21,0002-00-0007-74.png,0004-00-0005-33.png
9,872,0,1444931186248,1444931186826,922,404,0,0,0,3,1,2,31,0003-00-0004-12.png,0004-00-0007-24.png
9,873,0,1444931187799,1444931187855,883,455,0,0,0,2,4,2,24,0002-00-0000-34.png,0005-00-0004-62.png
9,874,1,1444931189090,1444931189477,992,529,0,0,0,5,4,1,54,0001-00-0005-42.png,0005-00-0007-17.png
9,875,1,1444931192666,1444931193151,1067,279,0,0,0,2,5,3,25,0002-00-0008-72.png,0001-00-0007-77.png
9,876,0,1444931194087,1444931194828,1051,291,0,0,0,2,5,3,25,0002-00-0000-83.png,0001-00-0000-64.png
9,877,1,1444931195725,1444931195765,923,415,0,0,0,4,2,2,42,0005-00-0002-09.png,0002-00-0003-66.png
9,878,0,1444931196911,1444931196947,862,410,0,0,0,1,2,1,12,0004-00-0009-67.png,0002-00-0008-94.png
9,879,0,1444931202478,1444931202988,354,370,0,0,0,5,2,3,52,0001-00-0002-17.png,0002-00-0006-57.png
9,880,1,1444931203834,1444931204254,965,562,0,0,0,2,3,1,23,0002-00-0008-16.png,0003-00-0007-66.png
9,881,1,1444931212276,1444931212802,338,390,0,0,0,5,3,2,53,0001-00-0004-38.png,0003-00-0004-59.png
9,882,1,1444931213838,1444931214913,344,339,0,0,0,5,3,2,53,0001-00-0000-99.png,0003-00-0001-43.png
9,883,0,1444931215826,1444931216508,1060,256,0,0,0,1,3,2,13,0004-00-0003-29.png,0003-00-0000-10.png
9,884,0,1444931217447,1444931218154,437,256,0,0,0,4,5,1,45,0005-00-0006-16.png,0001-00-0005-91.png
9,885,0,1444931218984,1444931219004,876,437,0,0,0,5,3,2,53,0001-00-0008-36.png,0003-00-0008-01.png
9,886,1,1444931222764,1444931222792,486,410,0,0,0,1,3,2,13,0004-00-0002-61.png,0003-00-0002-87.png
9,887,1,1444931226352,1444931226875,1031,306,0,0,0,3,2,1,32,0003-00-0005-32.png,0002-00-0003-43.png
9,888,1,1444931227958,1444931228872,939,346,0,0,0,2,4,2,24,0002-00-0002-02.png,0005-00-0003-35.png
9,889,0,1444931229829,1444931229857,912,359,0,0,0,1,2,1,12,0004-00-0004-06.png,0002-00-0005-21.png
9,890,1,1444931230861,1444931230893,892,409,0,0,0,5,3,2,53,0001-00-0000-02.png,0003-00-0000-55.png
9,891,0,1444931235449,1444931235505,445,479,0,0,0,3,4,1,34,0003-00-0009-10.png,0005-00-0004-20.png
9,892,1,1444931237671,1444931238105,299,370,0,0,0,2,5,3,25,0002-00-0004-69.png,0001-00-0007-21.png
9,893,0,1444931241895,1444931242610,999,359,0,0,0,3,5,2,35,0003-00-0006-61.png,0001-00-0008-18.png
9,894,1,1444931246321,1444931246824,906,276,0,0,0,5,1,4,51,0001-00-0005-96.png,0004-00-0008-27.png
9,895,0,1444931256363,1444931256876,1038,282,0,0,0,3,5,2,35,0003-00-0003-49.png,0001-00-0000-35.png
9,896,1,1444931257935,1444931257967,868,346,0,0,0,3,5,2,35,0003-00-0006-34.png,0001-00-0007-88.png
9,897,1,1444931259189,1444931259237,1001,564,0,0,0,1,3,2,13,0004-00-0005-86.png,0003-00-0008-19.png
9,898,1,1444931262994,1444931263572,886,307,0,0,0,4,1,3,41,0005-00-0000-28.png,0004-00-0004-22.png
9,899,1,1444931265251,1444931265793,222,423,0,0,0,5,4,1,54,0001-00-0009-33.png,0005-00-0005-76.png
9,900,1,1444931267541,1444931268298,299,339,0,0,0,3,2,1,32,0003-00-0005-28.png,0002-00-0002-32.png
9,901,1,1444931269825,1444931270393,376,384,0,0,0,5,3,2,53,0001-00-0002-33.png,0003-00-0004-10.png
9,902,1,1444931274961,1444931275621,1027,332,0,0,0,5,3,2,53,0001-00-0001-64.png,0003-00-0004-46.png
9,903,1,1444931277704,1444931278285,1040,316,0,0,0,1,3,2,13,0004-00-0002-25.png,0003-00-0003-06.png
9,904,1,1444931279185,1444931279797,944,363,0,0,0,1,4,3,14,0004-00-0008-30.png,0005-00-0006-90.png
9,905,1,1444931280633,1444931280677,888,418,0,0,0,3,5,2,35,0003-00-0004-65.png,0001-00-0004-32.png
9,906,0,1444931281718,1444931282376,917,417,0,0,0,3,4,1,34,0003-00-0000-25.png,0005-00-0005-09.png
9,907,1,1444931283335,1444931284214,464,269,0,0,0,4,3,1,43,0005-00-0001-06.png,0003-00-0008-96.png
9,908,1,1444931285094,1444931285895,376,343,0,0,0,4,3,1,43,0005-00-0003-72.png,0003-00-0004-45.png
9,909,1,1444931286751,1444931287425,1055,266,0,0,0,5,1,4,51,0001-00-0001-78.png,0004-00-0007-19.png
9,910,1,1444931288316,1444931288366,888,395,0,0,0,1,3,2,13,0004-00-0006-59.png,0003-00-0001-54.png
9,911,1,1444931292997,1444931293546,1029,306,0,0,0,2,5,3,25,0002-00-0008-51.png,0001-00-0000-32.png
9,912,0,1444931295324,1444931295603,903,307,0,0,0,1,3,2,13,0004-00-0001-30.png,0003-00-0007-32.png
9,913,1,1444931299197,1444931299241,900,327,0,0,0,4,1,3,41,0005-00-0002-99.png,0004-00-0006-71.png
9,914,0,1444931302452,1444931302752,967,293,0,0,0,2,3,1,23,0002-00-0002-31.png,0003-00-0009-72.png
9,915,0,1444931303737,1444931304438,970,357,0,0,0,1,5,4,15,0004-00-0002-32.png,0001-00-0001-47.png
9,916,0,1444931307606,1444931308100,957,326,0,0,0,4,5,1,45,0005-00-0005-98.png,0001-00-0006-45.png
9,917,1,1444931309038,1444931309078,858,445,0,0,0,2,1,1,21,0002-00-0008-38.png,0004-00-0005-08.png
9,918,1,1444931309970,1444931310602,1016,266,0,0,0,4,3,1,43,0005-00-0004-22.png,0003-00-0003-64.png
9,919,1,1444931311431,1444931312141,466,269,0,0,0,5,1,4,51,0001-00-0007-11.png,0004-00-0005-39.png
9,920,1,1444931313501,1444931314086,408,347,0,0,0,4,2,2,42,0005-00-0006-30.png,0002-00-0008-86.png
9,921,1,1444931315025,1444931315732,1092,268,0,0,0,1,4,3,14,0004-00-0003-39.png,0005-00-0008-41.png
9,922,0,1444931316566,1444931316606,913,448,0,0,0,4,5,1,45,0005-00-0003-76.png,0001-00-0002-30.png
9,923,0,1444931319939,1444931320480,1067,306,0,0,0,1,4,3,14,0004-00-0001-46.png,0005-00-0001-61.png
9,924,1,1444931321387,1444931322057,919,322,0,0,0,3,4,1,34,0003-00-0009-19.png,0005-00-0003-28.png
9,925,0,1444931323088,1444931323096,868,402,0,0,0,5,3,2,53,0001-00-0002-74.png,0003-00-0009-98.png
9,926,1,1444931326341,1444931326841,459,271,0,0,0,5,1,4,51,0001-00-0007-06.png,0004-00-0008-01.png
9,927,0,1444931327809,1444931328470,481,280,0,0,0,2,1,1,21,0002-00-0002-60.png,0004-00-0000-87.png
9,928,1,1444931329358,1444931330241,939,310,0,0,0,2,1,1,21,0002-00-0001-50.png,0004-00-0000-12.png
9,929,0,1444931331200,1444931331780,1052,283,0,0,0,1,3,2,13,0004-00-0003-67.png,0003-00-0006-97.png
9,930,1,1444931332785,1444931332834,888,436,0,0,0,5,4,1,54,0001-00-0006-62.png,0005-00-0006-98.png
9,931,1,1444931336015,1444931336481,371,337,0,0,0,5,1,4,51,0001-00-0008-69.png,0004-00-0001-91.png
9,932,1,1444931337937,1444931338519,457,279,0,0,0,3,2,1,32,0003-00-0003-80.png,0002-00-0007-51.png
9,933,1,1444931339555,1444931340141,946,343,0,0,0,4,2,2,42,0005-00-0005-59.png,0002-00-0002-32.png
9,934,1,1444931341004,1444931341100,913,447,0,0,0,1,3,2,13,0004-00-0005-12.png,0003-00-0003-38.png
9,935,1,1444931342070,1444931342138,913,449,0,0,0,4,3,1,43,0005-00-0008-77.png,0003-00-0005-14.png
9,936,1,1444931343123,1444931343183,899,422,0,0,0,5,1,4,51,0001-00-0004-89.png,0004-00-0005-12.png
9,937,1,1444931346662,1444931347253,913,346,0,0,0,5,2,3,52,0001-00-0007-25.png,0002-00-0008-79.png
9,938,0,1444931348221,1444931348269,862,427,0,0,0,2,3,1,23,0002-00-0005-30.png,0003-00-0007-51.png
9,939,1,1444931349266,1444931349330,888,436,0,0,0,3,5,2,35,0003-00-0007-15.png,0001-00-0000-57.png
9,940,1,1444931352553,1444931353087,474,293,0,0,0,5,4,1,54,0001-00-0008-70.png,0005-00-0001-53.png
9,941,0,1444931353994,1444931354392,994,548,0,0,0,2,5,3,25,0002-00-0008-48.png,0001-00-0003-76.png
9,942,1,1444931355866,1444931356408,885,335,0,0,0,3,2,1,32,0003-00-0005-15.png,0002-00-0002-33.png
9,943,0,1444931360265,1444931360830,1041,331,0,0,0,3,4,1,34,0003-00-0000-49.png,0005-00-0006-17.png
9,944,0,1444931364848,1444931365376,452,297,0,0,0,1,4,3,14,0004-00-0009-67.png,0005-00-0004-00.png
9,945,1,1444931368475,1444931368982,948,330,0,0,0,4,5,1,45,0005-00-0000-05.png,0001-00-0008-04.png
9,946,0,1444931369895,1444931369970,922,488,0,0,0,2,5,3,25,0002-00-0007-69.png,0001-00-0009-17.png
9,947,1,1444931372855,1444931373408,939,418,0,0,0,4,1,3,41,0005-00-0007-42.png,0004-00-0003-16.png
9,948,1,1444931374357,1444931374397,936,446,0,0,0,4,3,1,43,0005-00-0007-91.png,0003-00-0007-94.png
9,949,0,1444931375427,1444931376195,480,280,0,0,0,2,5,3,25,0002-00-0006-72.png,0001-00-0007-56.png
9,950,0,1444931377182,1444931377215,923,434,0,0,0,5,2,3,52,0001-00-0007-26.png,0002-00-0007-84.png
9,951,1,1444931378263,1444931378991,910,290,0,0,0,5,1,4,51,0001-00-0002-41.png,0004-00-0006-50.png
9,952,0,1444931382404,1444931382468,898,332,0,0,0,4,5,1,45,0005-00-0005-87.png,0001-00-0007-77.png
9,953,0,1444931385319,1444931385837,383,363,0,0,0,2,5,3,25,0002-00-0005-64.png,0001-00-0006-42.png
9,954,1,1444931386737,1444931386757,890,464,0,0,0,2,3,1,23,0002-00-0002-24.png,0003-00-0009-56.png
9,955,1,1444931387762,1444931387842,888,452,0,0,0,5,1,4,51,0001-00-0000-71.png,0004-00-0006-75.png
9,956,1,1444931392424,1444931392452,890,337,0,0,0,4,2,2,42,0005-00-0005-58.png,0002-00-0000-15.png
9,957,1,1444931393429,1444931393457,887,418,0,0,0,3,2,1,32,0003-00-0000-30.png,0002-00-0006-15.png
9,958,1,1444931394529,1444931394557,859,418,0,0,0,4,1,3,41,0005-00-0005-73.png,0004-00-0005-00.png
9,959,1,1444931395584,1444931395644,888,422,0,0,0,3,2,1,32,0003-00-0003-53.png,0002-00-0001-84.png
9,960,1,1444931398794,1444931400017,429,242,0,0,0,2,4,2,24,0002-00-0000-36.png,0005-00-0004-24.png
9,961,1,1444931400907,1444931400947,864,441,0,0,0,3,4,1,34,0003-00-0003-34.png,0005-00-0008-61.png
9,962,1,1444931401949,1444931402001,922,410,0,0,0,5,4,1,54,0001-00-0003-21.png,0005-00-0005-48.png
9,963,0,1444931402926,1444931402982,906,443,0,0,0,1,2,1,12,0004-00-0008-13.png,0002-00-0007-15.png
9,964,0,1444931405880,1444931406448,495,263,0,0,0,3,4,1,34,0003-00-0004-90.png,0005-00-0001-02.png
9,965,1,1444931407332,1444931407379,859,489,0,0,0,3,5,2,35,0003-00-0002-61.png,0001-00-0003-78.png
9,966,0,1444931411560,1444931412007,1040,251,0,0,0,3,5,2,35,0003-00-0008-80.png,0001-00-0001-55.png
9,967,1,1444931412871,1444931412895,884,463,0,0,0,2,4,2,24,0002-00-0005-90.png,0005-00-0007-01.png
9,968,1,1444931415885,1444931416391,938,358,0,0,0,4,2,2,42,0005-00-0003-96.png,0002-00-0001-10.png
9,969,1,1444931417315,1444931417354,884,473,0,0,0,5,2,3,52,0001-00-0002-19.png,0002-00-0001-65.png
9,970,1,1444931418320,1444931418387,913,426,0,0,0,3,2,1,32,0003-00-0008-09.png,0002-00-0000-50.png
9,971,1,1444931419334,1444931419392,913,462,0,0,0,4,3,1,43,0005-00-0000-55.png,0003-00-0005-58.png
9,972,1,1444931422395,1444931422950,417,369,0,0,0,3,2,1,32,0003-00-0008-69.png,0002-00-0008-85.png
9,973,1,1444931423906,1444931423978,888,488,0,0,0,5,1,4,51,0001-00-0001-78.png,0004-00-0002-33.png
9,974,1,1444931427310,1444931427813,941,332,0,0,0,4,2,2,42,0005-00-0006-23.png,0002-00-0002-96.png
9,975,0,1444931428703,1444931428755,911,469,0,0,0,5,2,3,52,0001-00-0002-18.png,0002-00-0003-18.png
9,976,0,1444931429718,1444931429766,907,418,0,0,0,1,2,1,12,0004-00-0002-59.png,0002-00-0005-32.png
9,977,1,1444931433378,1444931433860,945,313,0,0,0,3,2,1,32,0003-00-0007-31.png,0002-00-0003-61.png
9,978,1,1444931434693,1444931434729,885,490,0,0,0,1,5,4,15,0004-00-0007-03.png,0001-00-0007-93.png
9,979,1,1444931437907,1444931438423,468,253,0,0,0,3,1,2,31,0003-00-0002-14.png,0004-00-0007-76.png
9,980,0,1444931439307,1444931439335,888,488,0,0,0,1,2,1,12,0004-00-0003-79.png,0002-00-0000-04.png
9,981,1,1444931440330,1444931440398,930,410,0,0,0,4,1,3,41,0005-00-0003-11.png,0004-00-0006-85.png
9,982,0,1444931443589,1444931444126,989,361,0,0,0,1,2,1,12,0004-00-0006-18.png,0002-00-0007-65.png
9,983,1,1444931445063,1444931445326,988,520,0,0,0,1,3,2,13,0004-00-0002-25.png,0003-00-0005-51.png
9,984,1,1444931448352,1444931448876,1077,313,0,0,0,5,4,1,54,0001-00-0004-11.png,0005-00-0003-15.png
9,985,0,1444931449782,1444931450484,496,269,0,0,0,1,3,2,13,0004-00-0008-07.png,0003-00-0008-27.png
9,986,1,1444931451329,1444931451379,913,410,0,0,0,4,1,3,41,0005-00-0007-02.png,0004-00-0003-60.png
9,987,1,1444931454622,1444931454658,876,334,0,0,0,2,4,2,24,0002-00-0009-12.png,0005-00-0002-20.png
9,988,1,1444931458578,1444931459261,945,354,0,0,0,3,5,2,35,0003-00-0000-27.png,0001-00-0001-14.png
9,989,1,1444931460154,1444931460186,862,473,0,0,0,5,1,4,51,0001-00-0006-21.png,0004-00-0009-25.png
9,990,1,1444931461179,1444931461211,873,462,0,0,0,2,3,1,23,0002-00-0004-04.png,0003-00-0008-93.png
9,991,1,1444931462232,1444931462292,905,410,0,0,0,5,4,1,54,0001-00-0008-68.png,0005-00-0007-17.png
9,992,0,1444931463306,1444931463342,897,462,0,0,0,1,4,3,14,0004-00-0009-69.png,0005-00-0007-56.png
9,993,1,1444931466249,1444931466257,511,439,0,0,0,1,3,2,13,0004-00-0003-68.png,0003-00-0000-21.png
9,994,1,1444931469290,1444931470021,499,275,0,0,0,2,4,2,24,0002-00-0007-07.png,0005-00-0001-37.png
9,995,0,1444931470877,1444931471823,1076,279,0,0,0,2,1,1,21,0002-00-0000-23.png,0004-00-0009-19.png
9,996,1,1444931472671,1444931473391,384,370,0,0,0,4,3,1,43,0005-00-0007-25.png,0003-00-0001-06.png
9,997,0,1444931474735,1444931474759,888,373,0,0,0,3,4,1,34,0003-00-0007-08.png,0005-00-0006-48.png
