subject_id,trial,correct_response,stim_time,response_time,x_coord,y_coord,trial_timeout,timeout_time,interTrial_timeout,left_rank,right_rank,distance,joint_rank,left_image,right_image
14,1,0,1445364227713,1445364227717,377,342,0,0,0,1,2,1,12,0004-00-0009-81.png,0002-00-0009-07.png
14,2,1,1445364231410,1445364231847,384,445,0,0,0,2,3,1,23,0002-00-0007-07.png,0003-00-0009-99.png
14,3,1,1445364232779,1445364233165,350,489,0,0,0,4,3,1,43,0005-00-0006-76.png,0003-00-0007-70.png
14,4,1,1445364234107,1445364234539,373,413,0,0,0,4,1,3,41,0005-00-0006-59.png,0004-00-0002-73.png
14,5,1,1445364238289,1445364238723,952,462,0,0,0,3,1,2,31,0003-00-0000-40.png,0004-00-0006-60.png
14,6,0,1445364241647,1445364241994,437,459,0,0,0,3,5,2,35,0003-00-0004-75.png,0001-00-0008-11.png
14,7,1,1445364248848,1445364249275,998,441,0,0,0,2,3,1,23,0002-00-0002-19.png,0003-00-0006-15.png
14,8,1,1445364250488,1445364250910,382,393,0,0,0,2,4,2,24,0002-00-0005-79.png,0005-00-0009-63.png
14,9,0,1445364251768,1445364252250,947,401,0,0,0,1,5,4,15,0004-00-0007-40.png,0001-00-0009-11.png
14,10,1,1445364255075,1445364255489,926,460,0,0,0,3,1,2,31,0003-00-0004-52.png,0004-00-0004-24.png
14,11,1,1445364256359,1445364256834,900,501,0,0,0,4,1,3,41,0005-00-0007-96.png,0004-00-0001-42.png
14,12,1,1445364259761,1445364260108,913,370,0,0,0,5,2,3,52,0001-00-0007-07.png,0002-00-0007-40.png
14,13,1,1445364261320,1445364261747,401,394,0,0,0,5,1,4,51,0001-00-0000-54.png,0004-00-0000-00.png
14,14,0,1445364264684,1445364265040,427,332,0,0,0,3,5,2,35,0003-00-0007-25.png,0001-00-0001-28.png
14,15,0,1445364265942,1445364266389,334,430,0,0,0,3,5,2,35,0003-00-0007-93.png,0001-00-0000-38.png
14,16,0,1445364267315,1445364267795,898,360,0,0,0,5,2,3,52,0001-00-0002-09.png,0002-00-0007-82.png
14,17,1,1445364268727,1445364269290,926,339,0,0,0,1,5,4,15,0004-00-0006-19.png,0001-00-0004-49.png
14,18,1,1445364270267,1445364270678,306,400,0,0,0,3,1,2,31,0003-00-0009-97.png,0004-00-0005-37.png
14,19,1,1445364273676,1445364274067,319,408,0,0,0,1,4,3,14,0004-00-0000-94.png,0005-00-0004-55.png
14,20,0,1445364275286,1445364275688,880,505,0,0,0,2,3,1,23,0002-00-0001-30.png,0003-00-0008-41.png
14,21,0,1445364278754,1445364279152,504,395,0,0,0,2,5,3,25,0002-00-0004-17.png,0001-00-0002-59.png
14,22,1,1445364282252,1445364282671,401,411,0,0,0,2,3,1,23,0002-00-0003-10.png,0003-00-0000-72.png
14,23,1,1445364285752,1445364286181,335,464,0,0,0,4,1,3,41,0005-00-0007-89.png,0004-00-0006-63.png
14,24,1,1445364287382,1445364287751,376,358,0,0,0,3,5,2,35,0003-00-0005-71.png,0001-00-0007-48.png
14,25,1,1445364288773,1445364289274,927,370,0,0,0,5,1,4,51,0001-00-0009-68.png,0004-00-0003-71.png
14,26,0,1445364290193,1445364290680,925,386,0,0,0,5,3,2,53,0001-00-0005-75.png,0003-00-0009-37.png
14,27,0,1445364293529,1445364293929,886,450,0,0,0,4,3,1,43,0005-00-0003-30.png,0003-00-0005-00.png
14,28,0,1445364294825,1445364295285,291,443,0,0,0,5,3,2,53,0001-00-0005-32.png,0003-00-0006-13.png
14,29,0,1445364296194,1445364296802,879,392,0,0,0,1,2,1,12,0004-00-0003-28.png,0002-00-0000-74.png
14,30,0,1445364302080,1445364302471,348,384,0,0,0,4,5,1,45,0005-00-0007-02.png,0001-00-0000-41.png
14,31,1,1445364303348,1445364303823,908,461,0,0,0,2,5,3,25,0002-00-0008-63.png,0001-00-0003-17.png
14,32,1,1445364304711,1445364305207,922,472,0,0,0,2,4,2,24,0002-00-0009-91.png,0005-00-0006-82.png
14,33,1,1445364306133,1445364306607,900,476,0,0,0,5,1,4,51,0001-00-0004-36.png,0004-00-0005-77.png
14,34,1,1445364307565,1445364309012,511,363,0,0,0,4,2,2,42,0005-00-0004-51.png,0002-00-0008-40.png
14,35,0,1445364312118,1445364312604,343,355,0,0,0,2,3,1,23,0002-00-0000-70.png,0003-00-0009-46.png
14,36,1,1445364313436,1445364313974,338,444,0,0,0,5,3,2,53,0001-00-0006-56.png,0003-00-0007-77.png
14,37,1,1445364314909,1445364315321,359,418,0,0,0,5,3,2,53,0001-00-0001-39.png,0003-00-0008-21.png
14,38,1,1445364316260,1445364316737,903,470,0,0,0,4,2,2,42,0005-00-0007-64.png,0002-00-0001-66.png
14,39,1,1445364317671,1445364318094,390,410,0,0,0,1,4,3,14,0004-00-0001-21.png,0005-00-0006-02.png
14,40,0,1445364319055,1445364319532,938,398,0,0,0,2,1,1,21,0002-00-0006-31.png,0004-00-0008-14.png
14,41,1,1445364320435,1445364320853,427,423,0,0,0,2,3,1,23,0002-00-0006-03.png,0003-00-0005-63.png
14,42,0,1445364321848,1445364322292,308,402,0,0,0,1,2,1,12,0004-00-0009-29.png,0002-00-0002-94.png
14,43,1,1445364323357,1445364323808,410,543,0,0,0,3,4,1,34,0003-00-0009-10.png,0005-00-0002-12.png
14,44,1,1445364332870,1445364333373,894,518,0,0,0,2,4,2,24,0002-00-0009-22.png,0005-00-0009-68.png
14,45,1,1445364334252,1445364334718,904,480,0,0,0,2,1,1,21,0002-00-0005-72.png,0004-00-0001-12.png
14,46,1,1445364335593,1445364336160,345,446,0,0,0,4,2,2,42,0005-00-0001-15.png,0002-00-0000-20.png
14,47,0,1445364339062,1445364339397,877,496,0,0,0,2,4,2,24,0002-00-0001-60.png,0005-00-0006-19.png
14,48,0,1445364342380,1445364342784,948,384,0,0,0,5,1,4,51,0001-00-0006-80.png,0004-00-0006-88.png
14,49,1,1445364343629,1445364344126,390,527,0,0,0,1,4,3,14,0004-00-0003-40.png,0005-00-0006-76.png
14,50,1,1445364345074,1445364345510,330,442,0,0,0,3,1,2,31,0003-00-0004-85.png,0004-00-0002-82.png
14,51,1,1445364346406,1445364346952,880,401,0,0,0,1,3,2,13,0004-00-0002-56.png,0003-00-0007-52.png
14,52,1,1445364348035,1445364348608,876,501,0,0,0,2,5,3,25,0002-00-0009-52.png,0001-00-0009-19.png
14,53,1,1445364351576,1445364352064,900,436,0,0,0,2,4,2,24,0002-00-0009-86.png,0005-00-0009-17.png
14,54,0,1445364353016,1445364353511,347,467,0,0,0,5,3,2,53,0001-00-0004-86.png,0003-00-0006-72.png
14,55,1,1445364356921,1445364357388,876,476,0,0,0,4,1,3,41,0005-00-0005-05.png,0004-00-0004-96.png
14,56,1,1445364358293,1445364358776,392,520,0,0,0,1,4,3,14,0004-00-0006-14.png,0005-00-0009-71.png
14,57,1,1445364359705,1445364360177,896,445,0,0,0,5,2,3,52,0001-00-0008-01.png,0002-00-0007-36.png
14,58,0,1445364361146,1445364361598,366,518,0,0,0,5,3,2,53,0001-00-0003-70.png,0003-00-0004-44.png
14,59,1,1445364362578,1445364363062,899,476,0,0,0,4,2,2,42,0005-00-0009-39.png,0002-00-0008-18.png
14,60,1,1445364363989,1445364364569,925,385,0,0,0,2,4,2,24,0002-00-0005-54.png,0005-00-0000-32.png
14,61,1,1445364368276,1445364368717,931,401,0,0,0,4,2,2,42,0005-00-0006-43.png,0002-00-0003-18.png
14,62,0,1445364369641,1445364370127,338,441,0,0,0,3,4,1,34,0003-00-0008-91.png,0005-00-0008-23.png
14,63,1,1445364371095,1445364371581,886,481,0,0,0,4,5,1,45,0005-00-0007-17.png,0001-00-0005-71.png
14,64,1,1445364372526,1445364372999,325,462,0,0,0,1,4,3,14,0004-00-0005-69.png,0005-00-0006-87.png
14,65,0,1445364374017,1445364374547,874,476,0,0,0,4,5,1,45,0005-00-0009-88.png,0001-00-0000-63.png
14,66,1,1445364375459,1445364375918,376,410,0,0,0,5,2,3,52,0001-00-0005-95.png,0002-00-0004-50.png
14,67,0,1445364376818,1445364377353,905,419,0,0,0,3,2,1,32,0003-00-0009-54.png,0002-00-0004-84.png
14,68,1,1445364380485,1445364380910,896,472,0,0,0,4,1,3,41,0005-00-0001-99.png,0004-00-0004-64.png
14,69,1,1445364381747,1445364382226,345,425,0,0,0,4,2,2,42,0005-00-0001-42.png,0002-00-0006-21.png
14,70,0,1445364383219,1445364383683,317,469,0,0,0,2,3,1,23,0002-00-0006-95.png,0003-00-0003-81.png
14,71,0,1445364384640,1445364385119,331,462,0,0,0,3,2,1,32,0003-00-0004-71.png,0002-00-0006-80.png
14,72,1,1445364388356,1445364388792,953,409,0,0,0,1,3,2,13,0004-00-0001-74.png,0003-00-0007-29.png
14,73,0,1445364389709,1445364390145,362,425,0,0,0,5,4,1,54,0001-00-0009-70.png,0005-00-0005-47.png
14,74,0,1445364391119,1445364391543,362,443,0,0,0,5,3,2,53,0001-00-0007-81.png,0003-00-0006-39.png
14,75,1,1445364394618,1445364395106,933,382,0,0,0,5,1,4,51,0001-00-0009-32.png,0004-00-0008-83.png
14,76,1,1445364396000,1445364396494,877,493,0,0,0,4,2,2,42,0005-00-0005-61.png,0002-00-0002-23.png
14,77,1,1445364397442,1445364397934,902,415,0,0,0,1,4,3,14,0004-00-0008-44.png,0005-00-0000-77.png
14,78,1,1445364398861,1445364399426,872,429,0,0,0,1,4,3,14,0004-00-0008-71.png,0005-00-0003-61.png
14,79,0,1445364402300,1445364402384,504,395,0,0,0,5,4,1,54,0001-00-0006-71.png,0005-00-0003-05.png
14,80,0,1445364403413,1445364403899,902,415,0,0,0,3,5,2,35,0003-00-0000-73.png,0001-00-0006-50.png
14,81,1,1445364407291,1445364407746,894,481,0,0,0,1,5,4,15,0004-00-0009-88.png,0001-00-0001-63.png
14,82,1,1445364408645,1445364409144,360,434,0,0,0,2,3,1,23,0002-00-0008-67.png,0003-00-0005-83.png
14,83,1,1445364410112,1445364410577,392,415,0,0,0,3,2,1,32,0003-00-0006-13.png,0002-00-0005-53.png
14,84,0,1445364412207,1445364412716,299,384,0,0,0,2,1,1,21,0002-00-0002-35.png,0004-00-0004-20.png
14,85,1,1445364415697,1445364416127,307,405,0,0,0,4,2,2,42,0005-00-0000-59.png,0002-00-0003-11.png
14,86,0,1445364417140,1445364417639,940,397,0,0,0,4,2,2,42,0005-00-0003-25.png,0002-00-0000-04.png
14,87,0,1445364418581,1445364419075,335,435,0,0,0,5,3,2,53,0001-00-0002-12.png,0003-00-0009-66.png
14,88,1,1445364420130,1445364420637,953,410,0,0,0,1,2,1,12,0004-00-0009-53.png,0002-00-0009-15.png
14,89,1,1445364421553,1445364422016,325,424,0,0,0,2,5,3,25,0002-00-0004-23.png,0001-00-0004-49.png
14,90,1,1445364423113,1445364423609,908,499,0,0,0,2,1,1,21,0002-00-0008-75.png,0004-00-0004-93.png
14,91,1,1445364424604,1445364425130,324,442,0,0,0,5,1,4,51,0001-00-0006-47.png,0004-00-0002-48.png
14,92,0,1445364426115,1445364427116,925,412,0,0,0,1,2,1,12,0004-00-0003-94.png,0002-00-0001-24.png
14,93,0,1445364428033,1445364428516,338,458,0,0,0,3,4,1,34,0003-00-0007-16.png,0005-00-0004-59.png
14,94,1,1445364429582,1445364430080,900,410,0,0,0,4,2,2,42,0005-00-0005-99.png,0002-00-0000-30.png
14,95,1,1445364431084,1445364431534,317,427,0,0,0,2,5,3,25,0002-00-0000-28.png,0001-00-0005-96.png
14,96,1,1445364432446,1445364433001,900,463,0,0,0,2,3,1,23,0002-00-0001-12.png,0003-00-0004-21.png
14,97,0,1445364434027,1445364434534,888,475,0,0,0,4,5,1,45,0005-00-0005-81.png,0001-00-0008-03.png
14,98,0,1445364435557,1445364436001,381,400,0,0,0,5,4,1,54,0001-00-0009-58.png,0005-00-0002-65.png
14,99,0,1445364437097,1445364437643,388,502,0,0,0,3,1,2,31,0003-00-0001-47.png,0004-00-0008-49.png
14,100,0,1445364438658,1445364439111,427,450,0,0,0,5,3,2,53,0001-00-0004-59.png,0003-00-0002-63.png
14,101,0,1445364442732,1445364443222,921,420,0,0,0,4,1,3,41,0005-00-0003-84.png,0004-00-0005-21.png
14,102,1,1445364444706,1445364445149,888,476,0,0,0,2,1,1,21,0002-00-0009-41.png,0004-00-0009-57.png
14,103,1,1445364448385,1445364448769,926,411,0,0,0,1,4,3,14,0004-00-0003-51.png,0005-00-0005-59.png
14,104,1,1445364449781,1445364450197,370,538,0,0,0,4,3,1,43,0005-00-0008-21.png,0003-00-0000-51.png
14,105,0,1445364451141,1445364451629,900,475,0,0,0,4,3,1,43,0005-00-0001-65.png,0003-00-0009-69.png
14,106,0,1445364452592,1445364453126,901,411,0,0,0,2,4,2,24,0002-00-0001-92.png,0005-00-0004-88.png
14,107,1,1445364454507,1445364454958,299,417,0,0,0,2,5,3,25,0002-00-0008-98.png,0001-00-0009-29.png
14,108,1,1445364455942,1445364456389,316,426,0,0,0,2,5,3,25,0002-00-0000-68.png,0001-00-0006-36.png
14,109,1,1445364457363,1445364457779,387,423,0,0,0,3,2,1,32,0003-00-0006-29.png,0002-00-0000-76.png
14,110,1,1445364458824,1445364459339,912,398,0,0,0,4,1,3,41,0005-00-0000-16.png,0004-00-0006-69.png
14,111,0,1445364460276,1445364460728,355,438,0,0,0,3,4,1,34,0003-00-0009-97.png,0005-00-0001-73.png
14,112,1,1445364461768,1445364462289,917,427,0,0,0,5,2,3,52,0001-00-0003-88.png,0002-00-0002-31.png
14,113,1,1445364463347,1445364463791,344,400,0,0,0,1,3,2,13,0004-00-0006-91.png,0003-00-0006-50.png
14,114,1,1445364464801,1445364465207,325,423,0,0,0,3,1,2,31,0003-00-0005-90.png,0004-00-0005-97.png
14,115,1,1445364466437,1445364466992,876,414,0,0,0,4,3,1,43,0005-00-0006-75.png,0003-00-0007-80.png
14,116,1,1445364469887,1445364470260,927,383,0,0,0,5,2,3,52,0001-00-0007-81.png,0002-00-0007-52.png
14,117,1,1445364471218,1445364471693,899,482,0,0,0,1,4,3,14,0004-00-0004-49.png,0005-00-0004-33.png
14,118,1,1445364472638,1445364473082,391,442,0,0,0,5,4,1,54,0001-00-0008-85.png,0005-00-0000-44.png
14,119,1,1445364474172,1445364474644,901,487,0,0,0,2,1,1,21,0002-00-0004-23.png,0004-00-0005-28.png
14,120,1,1445364475731,1445364476221,924,404,0,0,0,3,2,1,32,0003-00-0004-20.png,0002-00-0009-83.png
14,121,0,1445364477170,1445364477645,393,453,0,0,0,1,2,1,12,0004-00-0000-19.png,0002-00-0007-56.png
14,122,1,1445364478711,1445364479162,312,412,0,0,0,3,1,2,31,0003-00-0009-42.png,0004-00-0002-95.png
14,123,1,1445364480181,1445364480852,359,375,0,0,0,1,3,2,13,0004-00-0007-80.png,0003-00-0003-12.png
14,124,1,1445364484079,1445364484519,875,529,0,0,0,3,4,1,34,0003-00-0006-20.png,0005-00-0001-36.png
14,125,0,1445364485518,1445364485980,901,486,0,0,0,5,4,1,54,0001-00-0005-54.png,0005-00-0007-70.png
14,126,1,1445364486951,1445364487563,419,492,0,0,0,3,4,1,34,0003-00-0002-84.png,0005-00-0009-63.png
14,127,1,1445364488661,1445364489084,350,410,0,0,0,1,4,3,14,0004-00-0000-46.png,0005-00-0005-68.png
14,128,0,1445364490041,1445364490532,927,409,0,0,0,1,5,4,15,0004-00-0009-72.png,0001-00-0005-28.png
14,129,0,1445364491482,1445364492000,949,406,0,0,0,1,3,2,13,0004-00-0007-67.png,0003-00-0005-36.png
14,130,1,1445364493063,1445364493548,876,520,0,0,0,4,1,3,41,0005-00-0001-03.png,0004-00-0008-96.png
14,131,1,1445364494724,1445364495172,347,405,0,0,0,5,3,2,53,0001-00-0004-83.png,0003-00-0005-32.png
14,132,0,1445364496252,1445364496754,913,501,0,0,0,5,1,4,51,0001-00-0005-44.png,0004-00-0008-46.png
14,133,1,1445364497736,1445364498113,378,422,0,0,0,4,5,1,45,0005-00-0007-47.png,0001-00-0003-41.png
14,134,0,1445364499127,1445364499552,376,399,0,0,0,5,3,2,53,0001-00-0008-70.png,0003-00-0007-92.png
14,135,1,1445364500644,1445364501142,889,501,0,0,0,2,3,1,23,0002-00-0002-02.png,0003-00-0004-99.png
14,136,1,1445364502077,1445364502547,370,440,0,0,0,4,5,1,45,0005-00-0001-73.png,0001-00-0002-59.png
14,137,0,1445364503580,1445364504172,876,450,0,0,0,1,4,3,14,0004-00-0005-04.png,0005-00-0000-74.png
14,138,1,1445364505100,1445364505626,890,493,0,0,0,1,5,4,15,0004-00-0008-40.png,0001-00-0007-67.png
14,139,1,1445364509789,1445364510233,888,419,0,0,0,4,5,1,45,0005-00-0001-99.png,0001-00-0001-23.png
14,140,0,1445364511181,1445364511590,350,410,0,0,0,1,2,1,12,0004-00-0003-58.png,0002-00-0008-89.png
14,141,0,1445364512593,1445364513012,364,524,0,0,0,5,3,2,53,0001-00-0001-74.png,0003-00-0005-76.png
14,142,1,1445364513985,1445364514577,876,424,0,0,0,1,3,2,13,0004-00-0000-83.png,0003-00-0008-37.png
14,143,1,1445364515533,1445364516032,340,420,0,0,0,5,1,4,51,0001-00-0002-56.png,0004-00-0000-82.png
14,144,0,1445364517005,1445364517502,925,412,0,0,0,3,5,2,35,0003-00-0001-23.png,0001-00-0000-07.png
14,145,1,1445364518445,1445364518909,391,441,0,0,0,2,5,3,25,0002-00-0006-78.png,0001-00-0006-94.png
14,146,0,1445364519849,1445364520351,420,539,0,0,0,1,2,1,12,0004-00-0005-54.png,0002-00-0008-31.png
14,147,1,1445364521409,1445364521903,908,439,0,0,0,3,1,2,31,0003-00-0008-26.png,0004-00-0005-16.png
14,148,1,1445364522865,1445364523427,392,407,0,0,0,5,1,4,51,0001-00-0004-63.png,0004-00-0007-08.png
14,149,1,1445364527251,1445364527667,870,524,0,0,0,3,1,2,31,0003-00-0006-41.png,0004-00-0005-69.png
14,150,1,1445364528651,1445364529300,466,358,0,0,0,4,3,1,43,0005-00-0002-09.png,0003-00-0004-37.png
14,151,1,1445364530384,1445364530823,376,424,0,0,0,2,4,2,24,0002-00-0007-73.png,0005-00-0000-48.png
14,152,1,1445364532248,1445364532705,900,502,0,0,0,5,2,3,52,0001-00-0008-59.png,0002-00-0005-31.png
14,153,1,1445364533661,1445364534189,888,423,0,0,0,4,5,1,45,0005-00-0002-91.png,0001-00-0001-82.png
14,154,1,1445364535102,1445364535596,857,514,0,0,0,5,1,4,51,0001-00-0007-70.png,0004-00-0001-61.png
14,155,1,1445364536533,1445364537111,901,440,0,0,0,2,4,2,24,0002-00-0004-72.png,0005-00-0007-04.png
14,156,1,1445364538075,1445364538474,401,436,0,0,0,3,4,1,34,0003-00-0009-10.png,0005-00-0006-31.png
14,157,1,1445364539464,1445364540011,344,426,0,0,0,5,1,4,51,0001-00-0009-68.png,0004-00-0000-70.png
14,158,1,1445364540986,1445364541497,894,404,0,0,0,4,3,1,43,0005-00-0002-55.png,0003-00-0009-09.png
14,159,0,1445364544743,1445364545181,282,444,0,0,0,1,5,4,15,0004-00-0004-09.png,0001-00-0000-09.png
14,160,1,1445364546104,1445364546598,902,424,0,0,0,4,5,1,45,0005-00-0009-63.png,0001-00-0004-81.png
14,161,0,1445364547555,1445364547989,388,436,0,0,0,1,4,3,14,0004-00-0009-58.png,0005-00-0008-30.png
14,162,0,1445364549086,1445364549557,930,427,0,0,0,1,3,2,13,0004-00-0003-01.png,0003-00-0002-83.png
14,163,1,1445364550600,1445364551048,388,517,0,0,0,5,4,1,54,0001-00-0001-18.png,0005-00-0004-48.png
14,164,0,1445364552047,1445364552456,390,424,0,0,0,1,2,1,12,0004-00-0008-50.png,0002-00-0006-97.png
14,165,0,1445364553527,1445364553997,882,516,0,0,0,3,4,1,34,0003-00-0009-27.png,0005-00-0004-53.png
14,166,1,1445364555003,1445364555536,904,401,0,0,0,4,2,2,42,0005-00-0005-51.png,0002-00-0000-61.png
14,167,0,1445364556527,1445364557086,888,423,0,0,0,1,3,2,13,0004-00-0000-57.png,0003-00-0008-31.png
14,168,1,1445364558124,1445364558595,337,449,0,0,0,1,2,1,12,0004-00-0003-69.png,0002-00-0004-21.png
14,169,1,1445364559601,1445364560064,905,402,0,0,0,5,2,3,52,0001-00-0002-24.png,0002-00-0008-19.png
14,170,1,1445364561113,1445364561612,905,402,0,0,0,2,1,1,21,0002-00-0007-34.png,0004-00-0000-83.png
14,171,1,1445364562594,1445364563049,390,423,0,0,0,1,4,3,14,0004-00-0000-58.png,0005-00-0001-26.png
14,172,0,1445364564174,1445364564646,875,488,0,0,0,2,1,1,21,0002-00-0001-29.png,0004-00-0008-68.png
14,173,0,1445364565705,1445364566164,331,439,0,0,0,3,4,1,34,0003-00-0002-03.png,0005-00-0003-83.png
14,174,0,1445364567199,1445364567678,325,463,0,0,0,4,3,1,43,0005-00-0004-68.png,0003-00-0009-56.png
14,175,1,1445364568827,1445364569291,342,480,0,0,0,5,1,4,51,0001-00-0008-24.png,0004-00-0006-80.png
14,176,1,1445364572273,1445364572698,369,463,0,0,0,4,2,2,42,0005-00-0003-93.png,0002-00-0000-46.png
14,177,1,1445364573726,1445364574192,915,517,0,0,0,5,1,4,51,0001-00-0008-67.png,0004-00-0005-47.png
14,178,1,1445364575195,1445364575663,346,452,0,0,0,4,3,1,43,0005-00-0006-04.png,0003-00-0002-77.png
14,179,1,1445364576764,1445364577238,325,462,0,0,0,5,3,2,53,0001-00-0004-53.png,0003-00-0005-47.png
14,180,1,1445364578180,1445364578755,862,398,0,0,0,4,2,2,42,0005-00-0000-43.png,0002-00-0004-06.png
14,181,1,1445364579728,1445364580237,900,410,0,0,0,3,2,1,32,0003-00-0003-11.png,0002-00-0007-34.png
14,182,1,1445364583625,1445364584053,357,399,0,0,0,5,1,4,51,0001-00-0004-02.png,0004-00-0008-70.png
14,183,0,1445364585145,1445364585670,956,351,0,0,0,1,2,1,12,0004-00-0003-91.png,0002-00-0001-59.png
14,184,1,1445364586685,1445364587159,883,506,0,0,0,3,1,2,31,0003-00-0008-59.png,0004-00-0001-40.png
14,185,1,1445364588138,1445364588612,931,388,0,0,0,2,1,1,21,0002-00-0007-54.png,0004-00-0004-44.png
14,186,1,1445364589719,1445364590160,401,514,0,0,0,3,2,1,32,0003-00-0009-78.png,0002-00-0000-93.png
14,187,1,1445364591181,1445364591678,900,384,0,0,0,4,1,3,41,0005-00-0006-41.png,0004-00-0008-80.png
14,188,0,1445364592798,1445364593323,901,398,0,0,0,1,2,1,12,0004-00-0005-32.png,0002-00-0002-23.png
14,189,0,1445364596436,1445364596893,873,507,0,0,0,3,4,1,34,0003-00-0002-93.png,0005-00-0002-41.png
14,190,1,1445364597850,1445364598303,346,446,0,0,0,1,3,2,13,0004-00-0002-83.png,0003-00-0009-47.png
14,191,1,1445364599321,1445364599744,376,384,0,0,0,5,3,2,53,0001-00-0003-98.png,0003-00-0006-80.png
14,192,0,1445364600931,1445364601556,340,397,0,0,0,2,4,2,24,0002-00-0006-81.png,0005-00-0001-86.png
14,193,1,1445364604597,1445364604991,951,437,0,0,0,2,3,1,23,0002-00-0006-31.png,0003-00-0001-62.png
14,194,0,1445364606050,1445364606453,376,423,0,0,0,3,4,1,34,0003-00-0007-29.png,0005-00-0002-78.png
14,195,0,1445364607561,1445364608111,939,425,0,0,0,4,3,1,43,0005-00-0006-79.png,0003-00-0005-77.png
14,196,1,1445364609150,1445364609659,921,393,0,0,0,2,4,2,24,0002-00-0002-96.png,0005-00-0006-41.png
14,197,0,1445364610831,1445364611275,394,423,0,0,0,3,4,1,34,0003-00-0001-00.png,0005-00-0005-68.png
14,198,1,1445364612372,1445364612855,925,411,0,0,0,4,1,3,41,0005-00-0003-14.png,0004-00-0004-86.png
14,199,1,1445364614032,1445364614440,385,445,0,0,0,3,2,1,32,0003-00-0000-20.png,0002-00-0000-05.png
14,200,1,1445364615543,1445364615947,284,430,0,0,0,4,3,1,43,0005-00-0001-50.png,0003-00-0002-65.png
14,201,1,1445364617196,1445364617622,369,496,0,0,0,2,3,1,23,0002-00-0000-94.png,0003-00-0009-32.png
14,202,1,1445364618725,1445364619257,947,394,0,0,0,4,3,1,43,0005-00-0004-45.png,0003-00-0007-42.png
14,203,1,1445364620264,1445364620802,331,400,0,0,0,2,1,1,21,0002-00-0005-35.png,0004-00-0000-61.png
14,204,0,1445364621973,1445364622416,325,436,0,0,0,3,5,2,35,0003-00-0009-94.png,0001-00-0008-50.png
14,205,0,1445364623515,1445364623901,368,427,0,0,0,4,5,1,45,0005-00-0007-91.png,0001-00-0002-31.png
14,206,0,1445364625104,1445364625622,918,409,0,0,0,2,1,1,21,0002-00-0008-68.png,0004-00-0006-75.png
14,207,0,1445364626676,1445364627177,875,476,0,0,0,4,5,1,45,0005-00-0007-81.png,0001-00-0002-93.png
14,208,1,1445364628187,1445364628632,337,423,0,0,0,3,5,2,35,0003-00-0007-83.png,0001-00-0007-22.png
14,209,1,1445364631512,1445364632100,359,398,0,0,0,3,1,2,31,0003-00-0007-70.png,0004-00-0003-11.png
14,210,1,1445364633137,1445364633612,902,415,0,0,0,1,4,3,14,0004-00-0003-75.png,0005-00-0004-73.png
14,211,1,1445364634657,1445364635076,363,423,0,0,0,1,5,4,15,0004-00-0006-78.png,0001-00-0000-09.png
14,212,0,1445364636169,1445364636597,371,530,0,0,0,4,5,1,45,0005-00-0003-52.png,0001-00-0007-96.png
14,213,1,1445364637839,1445364638305,912,410,0,0,0,1,3,2,13,0004-00-0000-17.png,0003-00-0001-72.png
14,214,1,1445364639318,1445364639834,912,424,0,0,0,4,1,3,41,0005-00-0000-64.png,0004-00-0000-31.png
14,215,0,1445364640909,1445364641410,900,514,0,0,0,5,2,3,52,0001-00-0008-91.png,0002-00-0000-63.png
14,216,1,1445364642399,1445364642901,325,437,0,0,0,1,4,3,14,0004-00-0004-59.png,0005-00-0006-46.png
14,217,0,1445364644069,1445364644505,362,401,0,0,0,5,2,3,52,0001-00-0008-51.png,0002-00-0005-85.png
14,218,1,1445364645649,1445364646156,887,423,0,0,0,4,1,3,41,0005-00-0001-88.png,0004-00-0009-65.png
14,219,1,1445364649097,1445364649549,368,366,0,0,0,3,4,1,34,0003-00-0002-16.png,0005-00-0000-87.png
14,220,1,1445364650651,1445364651213,898,486,0,0,0,2,1,1,21,0002-00-0009-94.png,0004-00-0006-32.png
14,221,1,1445364652336,1445364652794,336,408,0,0,0,1,3,2,13,0004-00-0003-47.png,0003-00-0006-70.png
14,222,1,1445364653850,1445364654338,912,424,0,0,0,4,1,3,41,0005-00-0005-99.png,0004-00-0005-99.png
14,223,1,1445364655351,1445364655843,902,504,0,0,0,4,1,3,41,0005-00-0002-35.png,0004-00-0009-72.png
14,224,1,1445364656902,1445364657425,900,387,0,0,0,5,2,3,52,0001-00-0001-81.png,0002-00-0006-55.png
14,225,1,1445364658393,1445364658883,877,520,0,0,0,5,4,1,54,0001-00-0001-58.png,0005-00-0008-59.png
14,226,1,1445364659874,1445364660321,401,387,0,0,0,5,3,2,53,0001-00-0009-08.png,0003-00-0001-53.png
14,227,0,1445364661454,1445364661859,427,450,0,0,0,3,5,2,35,0003-00-0008-44.png,0001-00-0009-63.png
14,228,0,1445364665305,1445364665710,928,441,0,0,0,1,5,4,15,0004-00-0004-65.png,0001-00-0001-85.png
14,229,0,1445364666683,1445364667143,336,470,0,0,0,5,4,1,54,0001-00-0000-53.png,0005-00-0005-76.png
14,230,0,1445364668132,1445364668639,890,440,0,0,0,5,4,1,54,0001-00-0009-17.png,0005-00-0007-11.png
14,231,0,1445364671761,1445364672369,928,413,0,0,0,4,3,1,43,0005-00-0003-52.png,0003-00-0008-93.png
14,232,1,1445364673352,1445364673787,394,427,0,0,0,5,1,4,51,0001-00-0003-41.png,0004-00-0007-82.png
14,233,1,1445364674782,1445364675286,886,502,0,0,0,2,5,3,25,0002-00-0001-20.png,0001-00-0004-57.png
14,234,1,1445364676244,1445364676756,921,425,0,0,0,5,2,3,52,0001-00-0009-58.png,0002-00-0006-78.png
14,235,1,1445364677784,1445364678284,943,417,0,0,0,1,3,2,13,0004-00-0006-07.png,0003-00-0005-25.png
14,236,0,1445364679236,1445364679695,392,415,0,0,0,3,1,2,31,0003-00-0001-44.png,0004-00-0006-13.png
14,237,1,1445364680727,1445364681193,312,423,0,0,0,1,3,2,13,0004-00-0004-73.png,0003-00-0000-34.png
14,238,0,1445364682379,1445364682786,376,397,0,0,0,3,2,1,32,0003-00-0006-98.png,0002-00-0007-27.png
14,239,1,1445364683818,1445364684462,874,411,0,0,0,4,2,2,42,0005-00-0005-01.png,0002-00-0003-66.png
14,240,0,1445364685451,1445364685966,899,429,0,0,0,3,5,2,35,0003-00-0007-45.png,0001-00-0002-66.png
14,241,1,1445364691411,1445364691907,359,398,0,0,0,1,5,4,15,0004-00-0003-84.png,0001-00-0007-09.png
14,242,1,1445364692941,1445364693434,873,485,0,0,0,2,5,3,25,0002-00-0007-87.png,0001-00-0009-57.png
14,243,1,1445364694352,1445364694808,366,429,0,0,0,5,2,3,52,0001-00-0004-26.png,0002-00-0005-30.png
14,244,0,1445364695863,1445364696401,903,389,0,0,0,1,3,2,13,0004-00-0004-02.png,0003-00-0007-25.png
14,245,0,1445364697375,1445364697877,927,434,0,0,0,1,5,4,15,0004-00-0004-52.png,0001-00-0002-66.png
14,246,1,1445364698885,1445364699492,395,460,0,0,0,5,2,3,52,0001-00-0007-89.png,0002-00-0004-67.png
14,247,0,1445364700486,1445364701010,931,455,0,0,0,4,5,1,45,0005-00-0005-10.png,0001-00-0002-22.png
14,248,1,1445364701969,1445364702488,310,434,0,0,0,4,2,2,42,0005-00-0000-95.png,0002-00-0007-04.png
14,249,1,1445364703526,1445364703999,919,414,0,0,0,3,4,1,34,0003-00-0008-28.png,0005-00-0002-40.png
14,250,1,1445364705039,1445364705577,341,443,0,0,0,1,3,2,13,0004-00-0008-56.png,0003-00-0002-62.png
14,251,1,1445364706549,1445364707001,306,441,0,0,0,2,5,3,25,0002-00-0006-53.png,0001-00-0004-37.png
14,252,1,1445364708280,1445364708743,888,528,0,0,0,3,2,1,32,0003-00-0006-50.png,0002-00-0001-95.png
14,253,0,1445364709808,1445364710289,901,436,0,0,0,3,4,1,34,0003-00-0007-17.png,0005-00-0005-77.png
14,254,1,1445364711450,1445364711935,401,462,0,0,0,5,1,4,51,0001-00-0001-38.png,0004-00-0008-43.png
14,255,1,1445364713029,1445364713524,896,524,0,0,0,4,5,1,45,0005-00-0006-03.png,0001-00-0005-22.png
14,256,0,1445364714591,1445364715014,376,424,0,0,0,3,4,1,34,0003-00-0004-60.png,0005-00-0008-67.png
14,257,0,1445364716070,1445364716532,401,423,0,0,0,3,4,1,34,0003-00-0002-20.png,0005-00-0009-49.png
14,258,0,1445364717542,1445364718551,941,451,0,0,0,4,5,1,45,0005-00-0004-62.png,0001-00-0001-88.png
14,259,1,1445364719928,1445364720368,927,410,0,0,0,2,3,1,23,0002-00-0007-50.png,0003-00-0001-48.png
14,260,1,1445364721380,1445364721896,410,470,0,0,0,2,4,2,24,0002-00-0006-90.png,0005-00-0000-12.png
14,261,0,1445364722848,1445364723333,896,523,0,0,0,3,5,2,35,0003-00-0009-39.png,0001-00-0008-91.png
14,262,0,1445364724252,1445364724727,401,462,0,0,0,2,5,3,25,0002-00-0007-39.png,0001-00-0002-60.png
14,263,1,1445364725854,1445364726332,881,527,0,0,0,3,2,1,32,0003-00-0008-50.png,0002-00-0006-45.png
14,264,1,1445364727293,1445364727749,338,398,0,0,0,1,4,3,14,0004-00-0009-45.png,0005-00-0002-17.png
14,265,1,1445364728822,1445364729367,361,492,0,0,0,1,5,4,15,0004-00-0004-01.png,0001-00-0009-14.png
14,266,1,1445364730543,1445364730948,390,435,0,0,0,5,3,2,53,0001-00-0009-45.png,0003-00-0003-05.png
14,267,1,1445364732072,1445364732613,874,509,0,0,0,1,4,3,14,0004-00-0007-05.png,0005-00-0000-61.png
14,268,1,1445364733584,1445364734098,373,492,0,0,0,5,1,4,51,0001-00-0002-79.png,0004-00-0009-87.png
14,269,0,1445364737162,1445364738108,938,528,0,0,0,1,2,1,12,0004-00-0001-57.png,0002-00-0004-70.png
14,270,1,1445364739130,1445364739610,363,448,0,0,0,2,4,2,24,0002-00-0000-28.png,0005-00-0000-75.png
14,271,1,1445364740579,1445364741064,926,435,0,0,0,1,3,2,13,0004-00-0001-11.png,0003-00-0009-41.png
14,272,1,1445364742370,1445364742802,312,449,0,0,0,2,4,2,24,0002-00-0002-69.png,0005-00-0007-39.png
14,273,1,1445364743850,1445364744272,350,455,0,0,0,2,3,1,23,0002-00-0007-79.png,0003-00-0001-57.png
14,274,0,1445364745244,1445364745755,905,428,0,0,0,4,1,3,41,0005-00-0006-91.png,0004-00-0000-46.png
14,275,1,1445364748891,1445364749331,963,419,0,0,0,3,1,2,31,0003-00-0003-88.png,0004-00-0002-74.png
14,276,0,1445364750209,1445364750709,944,409,0,0,0,3,2,1,32,0003-00-0006-85.png,0002-00-0001-59.png
14,277,1,1445364751733,1445364752526,275,391,0,0,0,4,2,2,42,0005-00-0006-06.png,0002-00-0006-16.png
14,278,0,1445364753532,1445364753989,901,436,0,0,0,1,2,1,12,0004-00-0007-35.png,0002-00-0009-95.png
14,279,1,1445364754974,1445364755468,935,418,0,0,0,2,5,3,25,0002-00-0008-03.png,0001-00-0006-28.png
14,280,1,1445364756522,1445364757029,913,410,0,0,0,2,1,1,21,0002-00-0008-74.png,0004-00-0002-58.png
14,281,0,1445364760129,1445364760606,273,397,0,0,0,2,1,1,21,0002-00-0004-86.png,0004-00-0000-27.png
14,282,0,1445364761661,1445364762118,329,442,0,0,0,1,4,3,14,0004-00-0004-01.png,0005-00-0004-98.png
14,283,1,1445364763172,1445364763656,950,438,0,0,0,5,1,4,51,0001-00-0007-91.png,0004-00-0001-19.png
14,284,1,1445364764803,1445364765285,898,510,0,0,0,3,1,2,31,0003-00-0008-09.png,0004-00-0005-13.png
14,285,1,1445364766304,1445364766770,401,461,0,0,0,1,5,4,15,0004-00-0003-18.png,0001-00-0004-50.png
14,286,0,1445364769941,1445364770409,951,437,0,0,0,1,2,1,12,0004-00-0008-04.png,0002-00-0001-72.png
14,287,1,1445364771452,1445364771890,305,430,0,0,0,5,1,4,51,0001-00-0009-71.png,0004-00-0005-94.png
14,288,0,1445364773013,1445364773440,361,529,0,0,0,3,5,2,35,0003-00-0008-54.png,0001-00-0007-70.png
14,289,1,1445364774504,1445364775048,894,440,0,0,0,1,5,4,15,0004-00-0009-38.png,0001-00-0000-03.png
14,290,1,1445364778092,1445364778567,939,410,0,0,0,5,2,3,52,0001-00-0000-39.png,0002-00-0002-24.png
14,291,1,1445364779534,1445364780013,364,474,0,0,0,1,5,4,15,0004-00-0001-19.png,0001-00-0004-68.png
14,292,1,1445364782979,1445364783493,857,379,0,0,0,5,4,1,54,0001-00-0002-98.png,0005-00-0007-03.png
14,293,0,1445364784474,1445364784872,337,450,0,0,0,1,2,1,12,0004-00-0009-15.png,0002-00-0006-82.png
14,294,1,1445364785905,1445364786428,893,546,0,0,0,5,3,2,53,0001-00-0003-48.png,0003-00-0005-47.png
14,295,1,1445364787464,1445364787898,316,428,0,0,0,1,5,4,15,0004-00-0001-31.png,0001-00-0003-62.png
14,296,1,1445364788955,1445364789442,349,424,0,0,0,3,1,2,31,0003-00-0000-50.png,0004-00-0002-29.png
14,297,1,1445364790417,1445364790941,376,460,0,0,0,5,4,1,54,0001-00-0006-52.png,0005-00-0004-11.png
14,298,1,1445364793784,1445364794260,901,384,0,0,0,2,5,3,25,0002-00-0008-92.png,0001-00-0000-80.png
14,299,1,1445364797334,1445364797763,899,475,0,0,0,2,3,1,23,0002-00-0003-57.png,0003-00-0004-51.png
14,300,1,1445364798697,1445364799187,921,420,0,0,0,2,1,1,21,0002-00-0007-25.png,0004-00-0004-20.png
14,301,0,1445364800297,1445364800771,317,405,0,0,0,3,4,1,34,0003-00-0005-68.png,0005-00-0000-27.png
14,302,0,1445364801818,1445364802297,877,527,0,0,0,4,5,1,45,0005-00-0000-68.png,0001-00-0004-05.png
14,303,1,1445364806100,1445364806585,301,351,0,0,0,3,1,2,31,0003-00-0001-02.png,0004-00-0008-97.png
14,304,1,1445364807631,1445364808193,895,498,0,0,0,2,5,3,25,0002-00-0006-46.png,0001-00-0000-27.png
14,305,1,1445364809193,1445364809659,364,407,0,0,0,4,1,3,41,0005-00-0009-53.png,0004-00-0001-11.png
14,306,0,1445364812669,1445364813096,955,413,0,0,0,3,4,1,34,0003-00-0000-35.png,0005-00-0007-48.png
14,307,1,1445364813970,1445364814446,401,544,0,0,0,2,4,2,24,0002-00-0005-51.png,0005-00-0008-36.png
14,308,1,1445364815572,1445364816019,355,461,0,0,0,4,2,2,42,0005-00-0000-92.png,0002-00-0000-05.png
14,309,1,1445364817133,1445364817641,901,512,0,0,0,2,3,1,23,0002-00-0008-41.png,0003-00-0001-66.png
14,310,1,1445364818724,1445364819150,365,433,0,0,0,1,3,2,13,0004-00-0008-19.png,0003-00-0001-01.png
14,311,1,1445364820216,1445364820740,918,436,0,0,0,1,3,2,13,0004-00-0009-06.png,0003-00-0006-70.png
14,312,1,1445364821717,1445364822165,318,437,0,0,0,3,4,1,34,0003-00-0006-20.png,0005-00-0002-38.png
14,313,1,1445364823187,1445364823661,927,410,0,0,0,1,4,3,14,0004-00-0005-63.png,0005-00-0001-64.png
14,314,1,1445364826503,1445364826957,350,358,0,0,0,1,5,4,15,0004-00-0007-47.png,0001-00-0002-73.png
14,315,1,1445364827866,1445364828364,905,427,0,0,0,1,2,1,12,0004-00-0003-36.png,0002-00-0005-25.png
14,316,0,1445364829309,1445364829735,350,464,0,0,0,2,5,3,25,0002-00-0005-00.png,0001-00-0003-53.png
14,317,1,1445364832857,1445364833325,309,469,0,0,0,3,2,1,32,0003-00-0003-95.png,0002-00-0007-85.png
14,318,0,1445364834199,1445364834736,929,416,0,0,0,4,5,1,45,0005-00-0002-83.png,0001-00-0002-67.png
14,319,1,1445364835740,1445364836270,355,470,0,0,0,3,2,1,32,0003-00-0007-87.png,0002-00-0004-89.png
14,320,1,1445364837281,1445364837787,928,439,0,0,0,3,1,2,31,0003-00-0005-10.png,0004-00-0001-55.png
14,321,1,1445364838931,1445364839348,384,402,0,0,0,1,5,4,15,0004-00-0007-80.png,0001-00-0004-09.png
14,322,0,1445364840332,1445364840829,916,439,0,0,0,5,3,2,53,0001-00-0002-24.png,0003-00-0003-04.png
14,323,1,1445364841793,1445364842205,351,426,0,0,0,1,4,3,14,0004-00-0008-17.png,0005-00-0001-50.png
14,324,0,1445364843285,1445364844237,927,461,0,0,0,3,5,2,35,0003-00-0001-43.png,0001-00-0008-34.png
14,325,0,1445364845668,1445364846078,927,410,0,0,0,3,5,2,35,0003-00-0008-91.png,0001-00-0003-97.png
14,326,0,1445364849118,1445364849519,952,391,0,0,0,4,3,1,43,0005-00-0002-63.png,0003-00-0006-42.png
14,327,0,1445364850477,1445364851014,956,390,0,0,0,1,5,4,15,0004-00-0002-55.png,0001-00-0001-96.png
14,328,0,1445364852068,1445364852542,330,452,0,0,0,5,3,2,53,0001-00-0001-44.png,0003-00-0003-02.png
14,329,0,1445364853501,1445364853983,319,420,0,0,0,5,4,1,54,0001-00-0006-67.png,0005-00-0009-93.png
14,330,0,1445364855150,1445364855564,364,425,0,0,0,5,2,3,52,0001-00-0005-05.png,0002-00-0002-57.png
14,331,0,1445364856622,1445364857106,919,434,0,0,0,5,4,1,54,0001-00-0000-73.png,0005-00-0006-90.png
14,332,0,1445364860227,1445364860607,914,372,0,0,0,5,4,1,54,0001-00-0008-09.png,0005-00-0008-98.png
14,333,0,1445364861572,1445364862166,875,476,0,0,0,2,5,3,25,0002-00-0000-80.png,0001-00-0005-06.png
14,334,0,1445364863161,1445364863566,401,436,0,0,0,2,1,1,21,0002-00-0002-98.png,0004-00-0004-30.png
14,335,1,1445364864717,1445364865223,900,436,0,0,0,3,2,1,32,0003-00-0007-69.png,0002-00-0007-62.png
14,336,1,1445364866172,1445364866728,875,437,0,0,0,4,3,1,43,0005-00-0004-68.png,0003-00-0001-37.png
14,337,1,1445364867873,1445364868337,362,394,0,0,0,2,3,1,23,0002-00-0001-84.png,0003-00-0007-76.png
14,338,0,1445364869493,1445364870010,916,442,0,0,0,5,4,1,54,0001-00-0005-11.png,0005-00-0000-46.png
14,339,1,1445364871054,1445364871547,314,442,0,0,0,3,1,2,31,0003-00-0008-97.png,0004-00-0006-73.png
14,340,0,1445364872633,1445364873123,944,417,0,0,0,5,4,1,54,0001-00-0008-68.png,0005-00-0005-22.png
14,341,1,1445364874225,1445364874713,926,449,0,0,0,2,3,1,23,0002-00-0009-02.png,0003-00-0009-30.png
14,342,1,1445364875823,1445364876336,905,428,0,0,0,2,4,2,24,0002-00-0002-97.png,0005-00-0000-42.png
14,343,0,1445364877414,1445364877914,314,430,0,0,0,3,5,2,35,0003-00-0005-46.png,0001-00-0003-86.png
14,344,0,1445364879002,1445364879454,338,423,0,0,0,2,4,2,24,0002-00-0000-61.png,0005-00-0005-89.png
14,345,1,1445364880655,1445364881068,341,406,0,0,0,4,1,3,41,0005-00-0005-96.png,0004-00-0008-87.png
14,346,1,1445364882174,1445364882592,363,435,0,0,0,1,3,2,13,0004-00-0009-59.png,0003-00-0001-18.png
14,347,0,1445364883716,1445364884247,896,498,0,0,0,3,5,2,35,0003-00-0009-26.png,0001-00-0006-24.png
14,348,0,1445364885376,1445364885842,934,474,0,0,0,2,1,1,21,0002-00-0001-19.png,0004-00-0008-05.png
14,349,1,1445364887146,1445364887608,385,418,0,0,0,2,5,3,25,0002-00-0007-57.png,0001-00-0003-55.png
14,350,1,1445364888735,1445364889225,907,448,0,0,0,5,2,3,52,0001-00-0005-94.png,0002-00-0009-77.png
14,351,1,1445364890376,1445364890898,400,488,0,0,0,2,3,1,23,0002-00-0002-95.png,0003-00-0004-95.png
14,352,1,1445364892106,1445364892659,894,401,0,0,0,3,1,2,31,0003-00-0004-00.png,0004-00-0003-14.png
14,353,1,1445364893806,1445364894256,305,464,0,0,0,1,5,4,15,0004-00-0001-31.png,0001-00-0005-00.png
14,354,0,1445364895594,1445364896129,902,416,0,0,0,2,5,3,25,0002-00-0003-84.png,0001-00-0004-37.png
14,355,0,1445364897289,1445364897723,381,438,0,0,0,4,3,1,43,0005-00-0009-52.png,0003-00-0007-03.png
14,356,1,1445364901040,1445364901509,222,488,0,0,0,3,1,2,31,0003-00-0000-36.png,0004-00-0000-83.png
14,357,1,1445364902533,1445364903169,873,512,0,0,0,1,3,2,13,0004-00-0001-18.png,0003-00-0004-40.png
14,358,0,1445364906137,1445364906664,346,340,0,0,0,4,3,1,43,0005-00-0005-46.png,0003-00-0000-66.png
14,359,1,1445364907666,1445364908148,918,438,0,0,0,4,5,1,45,0005-00-0001-41.png,0001-00-0001-86.png
14,360,1,1445364909319,1445364909790,919,440,0,0,0,5,4,1,54,0001-00-0008-75.png,0005-00-0004-20.png
14,361,0,1445364910789,1445364911221,411,444,0,0,0,2,1,1,21,0002-00-0001-88.png,0004-00-0009-79.png
14,362,1,1445364914398,1445364914842,376,396,0,0,0,4,3,1,43,0005-00-0008-10.png,0003-00-0006-51.png
14,363,0,1445364915923,1445364916436,939,423,0,0,0,3,2,1,32,0003-00-0002-74.png,0002-00-0002-78.png
14,364,0,1445364917420,1445364917887,401,423,0,0,0,5,1,4,51,0001-00-0009-08.png,0004-00-0002-94.png
14,365,1,1445364919085,1445364919532,376,436,0,0,0,4,2,2,42,0005-00-0004-42.png,0002-00-0000-32.png
14,366,0,1445364920582,1445364921035,901,423,0,0,0,3,5,2,35,0003-00-0006-96.png,0001-00-0009-53.png
14,367,1,1445364922483,1445364922989,346,420,0,0,0,3,2,1,32,0003-00-0008-85.png,0002-00-0003-89.png
14,368,1,1445364924092,1445364924689,904,417,0,0,0,1,2,1,12,0004-00-0003-56.png,0002-00-0003-48.png
14,369,1,1445364925710,1445364926228,874,516,0,0,0,5,2,3,52,0001-00-0000-54.png,0002-00-0004-73.png
14,370,0,1445364927482,1445364927994,919,443,0,0,0,4,2,2,42,0005-00-0007-95.png,0002-00-0004-53.png
14,371,0,1445364929120,1445364929513,360,438,0,0,0,4,5,1,45,0005-00-0008-99.png,0001-00-0000-48.png
14,372,1,1445364930682,1445364931187,870,524,0,0,0,2,5,3,25,0002-00-0002-05.png,0001-00-0000-12.png
14,373,1,1445364932291,1445364932725,401,450,0,0,0,4,3,1,43,0005-00-0009-33.png,0003-00-0002-39.png
14,374,0,1445364935656,1445364936097,332,384,0,0,0,5,3,2,53,0001-00-0002-25.png,0003-00-0005-40.png
14,375,0,1445364937122,1445364937639,861,528,0,0,0,3,5,2,35,0003-00-0005-16.png,0001-00-0009-82.png
14,376,0,1445364941192,1445364941672,300,470,0,0,0,1,2,1,12,0004-00-0003-64.png,0002-00-0004-93.png
14,377,1,1445364942776,1445364943247,337,458,0,0,0,4,1,3,41,0005-00-0002-08.png,0004-00-0007-64.png
14,378,1,1445364944259,1445364944783,928,417,0,0,0,4,2,2,42,0005-00-0000-87.png,0002-00-0001-96.png
14,379,0,1445364945963,1445364946467,898,490,0,0,0,3,5,2,35,0003-00-0003-25.png,0001-00-0009-09.png
14,380,1,1445364947576,1445364948103,913,450,0,0,0,1,2,1,12,0004-00-0003-72.png,0002-00-0005-52.png
14,381,1,1445364949256,1445364949784,898,428,0,0,0,5,2,3,52,0001-00-0000-45.png,0002-00-0000-10.png
14,382,1,1445364952985,1445364953461,290,376,0,0,0,2,4,2,24,0002-00-0004-52.png,0005-00-0008-98.png
14,383,1,1445364954452,1445364954981,888,501,0,0,0,4,1,3,41,0005-00-0006-88.png,0004-00-0003-89.png
14,384,0,1445364957947,1445364958445,862,421,0,0,0,5,4,1,54,0001-00-0006-63.png,0005-00-0009-77.png
14,385,1,1445364959363,1445364959963,299,424,0,0,0,3,2,1,32,0003-00-0007-49.png,0002-00-0001-87.png
14,386,1,1445364962829,1445364963257,952,436,0,0,0,5,4,1,54,0001-00-0001-48.png,0005-00-0003-11.png
14,387,1,1445364966604,1445364967023,341,392,0,0,0,2,1,1,21,0002-00-0005-10.png,0004-00-0004-29.png
14,388,1,1445364967869,1445364968420,900,499,0,0,0,2,3,1,23,0002-00-0003-57.png,0003-00-0006-93.png
14,389,1,1445364969371,1445364969777,376,462,0,0,0,3,5,2,35,0003-00-0007-87.png,0001-00-0001-54.png
14,390,1,1445364972889,1445364973407,901,372,0,0,0,2,4,2,24,0002-00-0000-34.png,0005-00-0005-29.png
14,391,1,1445364976351,1445364976791,940,397,0,0,0,3,2,1,32,0003-00-0007-23.png,0002-00-0007-18.png
14,392,0,1445364977697,1445364978177,332,419,0,0,0,4,5,1,45,0005-00-0008-98.png,0001-00-0005-29.png
14,393,1,1445364979201,1445364979672,294,436,0,0,0,2,4,2,24,0002-00-0002-69.png,0005-00-0004-34.png
14,394,1,1445364980842,1445364981353,344,473,0,0,0,5,2,3,52,0001-00-0004-69.png,0002-00-0001-31.png
14,395,0,1445364984790,1445364985289,876,556,0,0,0,5,4,1,54,0001-00-0007-75.png,0005-00-0006-82.png
14,396,1,1445364988469,1445364988890,284,393,0,0,0,4,1,3,41,0005-00-0000-68.png,0004-00-0001-05.png
14,397,1,1445364989826,1445364990320,920,441,0,0,0,1,5,4,15,0004-00-0004-37.png,0001-00-0003-87.png
14,398,1,1445364991344,1445364991869,926,385,0,0,0,4,3,1,43,0005-00-0009-59.png,0003-00-0009-17.png
14,399,1,1445364992878,1445364993311,401,410,0,0,0,3,2,1,32,0003-00-0006-13.png,0002-00-0004-43.png
14,400,0,1445364994785,1445364995372,911,490,0,0,0,2,1,1,21,0002-00-0007-07.png,0004-00-0004-44.png
14,401,1,1445364996306,1445364996808,426,437,0,0,0,4,1,3,41,0005-00-0008-91.png,0004-00-0009-76.png
14,402,1,1445364997836,1445364998354,902,410,0,0,0,2,5,3,25,0002-00-0007-06.png,0001-00-0009-45.png
14,403,1,1445364999378,1445365000309,913,445,0,0,0,2,4,2,24,0002-00-0001-07.png,0005-00-0009-47.png
14,404,0,1445365001316,1445365001788,334,443,0,0,0,4,1,3,41,0005-00-0002-48.png,0004-00-0004-80.png
14,405,0,1445365002914,1445365003397,361,412,0,0,0,2,5,3,25,0002-00-0006-17.png,0001-00-0004-17.png
14,406,1,1445365004486,1445365004953,921,393,0,0,0,1,4,3,14,0004-00-0005-39.png,0005-00-0002-74.png
14,407,1,1445365005956,1445365006493,943,417,0,0,0,3,2,1,32,0003-00-0001-38.png,0002-00-0007-37.png
14,408,1,1445365007598,1445365008033,314,441,0,0,0,2,3,1,23,0002-00-0004-31.png,0003-00-0003-00.png
14,409,0,1445365009148,1445365009631,906,403,0,0,0,5,3,2,53,0001-00-0004-06.png,0003-00-0008-55.png
14,410,1,1445365010829,1445365011336,887,424,0,0,0,3,1,2,31,0003-00-0007-68.png,0004-00-0009-67.png
14,411,0,1445365014246,1445365014677,286,409,0,0,0,4,3,1,43,0005-00-0007-96.png,0003-00-0009-69.png
14,412,1,1445365015637,1445365016143,925,422,0,0,0,2,1,1,21,0002-00-0004-99.png,0004-00-0008-69.png
14,413,1,1445365019047,1445365019075,504,445,0,0,0,3,4,1,34,0003-00-0003-50.png,0005-00-0003-45.png
14,414,1,1445365022088,1445365022547,929,394,0,0,0,5,2,3,52,0001-00-0000-24.png,0002-00-0004-42.png
14,415,0,1445365023512,1445365023979,355,521,0,0,0,1,5,4,15,0004-00-0004-36.png,0001-00-0006-13.png
14,416,0,1445365024983,1445365025482,942,418,0,0,0,5,3,2,53,0001-00-0007-22.png,0003-00-0009-02.png
14,417,1,1445365026503,1445365027018,913,410,0,0,0,1,3,2,13,0004-00-0007-61.png,0003-00-0008-92.png
14,418,1,1445365029851,1445365030322,888,369,0,0,0,5,2,3,52,0001-00-0000-22.png,0002-00-0000-92.png
14,419,1,1445365031201,1445365031718,353,421,0,0,0,5,3,2,53,0001-00-0003-82.png,0003-00-0006-42.png
14,420,1,1445365034922,1445365035373,930,401,0,0,0,5,2,3,52,0001-00-0002-77.png,0002-00-0003-62.png
14,421,1,1445365036411,1445365036928,912,451,0,0,0,4,2,2,42,0005-00-0001-17.png,0002-00-0001-21.png
14,422,0,1445365038023,1445365038478,339,459,0,0,0,3,1,2,31,0003-00-0005-04.png,0004-00-0000-38.png
14,423,1,1445365039600,1445365040282,922,393,0,0,0,3,2,1,32,0003-00-0007-27.png,0002-00-0005-69.png
14,424,1,1445365043378,1445365043904,318,463,0,0,0,2,5,3,25,0002-00-0009-43.png,0001-00-0007-41.png
14,425,1,1445365044869,1445365045351,339,419,0,0,0,3,2,1,32,0003-00-0000-38.png,0002-00-0007-78.png
14,426,1,1445365046361,1445365046868,939,423,0,0,0,4,1,3,41,0005-00-0002-54.png,0004-00-0008-45.png
14,427,0,1445365048087,1445365048519,401,410,0,0,0,3,2,1,32,0003-00-0005-47.png,0002-00-0002-37.png
14,428,1,1445365049584,1445365050098,874,508,0,0,0,5,1,4,51,0001-00-0007-83.png,0004-00-0007-27.png
14,429,0,1445365051154,1445365051656,900,436,0,0,0,1,2,1,12,0004-00-0001-70.png,0002-00-0003-70.png
14,430,0,1445365052803,1445365053258,427,423,0,0,0,4,3,1,43,0005-00-0008-97.png,0003-00-0004-83.png
14,431,0,1445365054317,1445365054855,901,450,0,0,0,5,4,1,54,0001-00-0003-21.png,0005-00-0005-49.png
14,432,1,1445365057702,1445365058208,903,480,0,0,0,2,5,3,25,0002-00-0002-58.png,0001-00-0009-79.png
14,433,1,1445365059133,1445365059627,940,505,0,0,0,4,1,3,41,0005-00-0001-78.png,0004-00-0006-38.png
14,434,1,1445365062747,1445365063150,938,410,0,0,0,3,4,1,34,0003-00-0008-19.png,0005-00-0006-79.png
14,435,1,1445365064153,1445365064591,362,526,0,0,0,5,1,4,51,0001-00-0007-74.png,0004-00-0005-16.png
14,436,0,1445365065811,1445365066319,950,406,0,0,0,2,1,1,21,0002-00-0001-72.png,0004-00-0008-90.png
14,437,1,1445365067341,1445365067846,401,410,0,0,0,1,3,2,13,0004-00-0000-58.png,0003-00-0009-65.png
14,438,1,1445365068842,1445365069282,330,430,0,0,0,1,5,4,15,0004-00-0009-52.png,0001-00-0004-43.png
14,439,1,1445365070435,1445365071381,896,524,0,0,0,5,1,4,51,0001-00-0000-81.png,0004-00-0002-45.png
14,440,0,1445365072432,1445365072915,865,504,0,0,0,4,3,1,43,0005-00-0006-18.png,0003-00-0004-17.png
14,441,1,1445365073981,1445365074532,888,499,0,0,0,2,4,2,24,0002-00-0002-50.png,0005-00-0003-98.png
14,442,1,1445365075652,1445365076124,307,444,0,0,0,4,3,1,43,0005-00-0008-99.png,0003-00-0001-41.png
14,443,1,1445365077223,1445365077735,905,402,0,0,0,1,2,1,12,0004-00-0001-16.png,0002-00-0007-73.png
14,444,1,1445365078803,1445365079294,889,423,0,0,0,2,5,3,25,0002-00-0004-46.png,0001-00-0007-49.png
14,445,0,1445365082148,1445365082643,324,373,0,0,0,3,2,1,32,0003-00-0008-54.png,0002-00-0001-04.png
14,446,1,1445365083652,1445365084156,926,423,0,0,0,5,1,4,51,0001-00-0002-29.png,0004-00-0009-95.png
14,447,1,1445365085142,1445365085598,337,450,0,0,0,3,1,2,31,0003-00-0000-31.png,0004-00-0007-69.png
14,448,1,1445365086634,1445365087150,915,504,0,0,0,5,1,4,51,0001-00-0008-08.png,0004-00-0008-15.png
14,449,1,1445365088323,1445365088782,874,410,0,0,0,5,1,4,51,0001-00-0000-18.png,0004-00-0002-75.png
14,450,1,1445365089876,1445365090297,376,428,0,0,0,1,4,3,14,0004-00-0007-50.png,0005-00-0000-03.png
14,451,1,1445365091406,1445365091835,376,436,0,0,0,5,1,4,51,0001-00-0004-83.png,0004-00-0008-27.png
14,452,0,1445365092937,1445365093497,353,404,0,0,0,4,5,1,45,0005-00-0001-77.png,0001-00-0008-35.png
14,453,1,1445365094697,1445365095213,914,423,0,0,0,1,5,4,15,0004-00-0001-10.png,0001-00-0009-04.png
14,454,1,1445365096336,1445365096800,322,451,0,0,0,3,1,2,31,0003-00-0000-77.png,0004-00-0008-03.png
14,455,0,1445365097879,1445365098339,912,424,0,0,0,1,2,1,12,0004-00-0004-59.png,0002-00-0003-70.png
14,456,0,1445365099335,1445365099852,914,397,0,0,0,4,2,2,42,0005-00-0008-28.png,0002-00-0006-46.png
14,457,1,1445365100865,1445365101390,899,437,0,0,0,4,1,3,41,0005-00-0007-18.png,0004-00-0007-14.png
14,458,1,1445365102429,1445365102868,343,435,0,0,0,3,4,1,34,0003-00-0000-68.png,0005-00-0004-71.png
14,459,1,1445365104059,1445365104550,902,417,0,0,0,3,4,1,34,0003-00-0002-72.png,0005-00-0004-81.png
14,460,1,1445365105759,1445365106244,885,396,0,0,0,1,4,3,14,0004-00-0004-93.png,0005-00-0008-62.png
14,461,1,1445365109226,1445365109838,901,468,0,0,0,2,5,3,25,0002-00-0000-89.png,0001-00-0003-15.png
14,462,1,1445365112698,1445365113162,880,556,0,0,0,4,2,2,42,0005-00-0002-04.png,0002-00-0006-08.png
14,463,0,1445365114166,1445365114646,376,418,0,0,0,3,4,1,34,0003-00-0000-37.png,0005-00-0002-01.png
14,464,1,1445365115694,1445365116220,870,392,0,0,0,1,3,2,13,0004-00-0004-45.png,0003-00-0002-11.png
14,465,1,1445365117452,1445365117942,338,462,0,0,0,5,3,2,53,0001-00-0000-05.png,0003-00-0005-98.png
14,466,0,1445365119028,1445365119521,915,423,0,0,0,1,3,2,13,0004-00-0006-67.png,0003-00-0001-86.png
14,467,1,1445365120529,1445365121081,920,426,0,0,0,2,3,1,23,0002-00-0005-62.png,0003-00-0000-75.png
14,468,1,1445365122276,1445365122721,389,423,0,0,0,3,2,1,32,0003-00-0004-16.png,0002-00-0000-07.png
14,469,1,1445365123889,1445365124278,393,419,0,0,0,2,5,3,25,0002-00-0003-26.png,0001-00-0006-63.png
14,470,1,1445365125391,1445365125916,904,427,0,0,0,3,5,2,35,0003-00-0003-71.png,0001-00-0008-89.png
14,471,1,1445365126950,1445365127496,894,405,0,0,0,4,2,2,42,0005-00-0003-19.png,0002-00-0001-80.png
14,472,1,1445365128559,1445365129005,434,456,0,0,0,1,2,1,12,0004-00-0003-93.png,0002-00-0004-65.png
14,473,1,1445365130338,1445365130861,897,432,0,0,0,4,2,2,42,0005-00-0006-23.png,0002-00-0009-31.png
14,474,1,1445365131981,1445365132622,863,527,0,0,0,4,2,2,42,0005-00-0002-32.png,0002-00-0002-53.png
14,475,1,1445365135519,1445365136007,376,358,0,0,0,1,4,3,14,0004-00-0001-18.png,0005-00-0004-21.png
14,476,1,1445365137046,1445365137595,898,405,0,0,0,2,5,3,25,0002-00-0005-82.png,0001-00-0009-19.png
14,477,1,1445365138549,1445365139089,312,462,0,0,0,1,5,4,15,0004-00-0000-10.png,0001-00-0000-02.png
14,478,0,1445365142659,1445365143138,265,345,0,0,0,3,1,2,31,0003-00-0002-85.png,0004-00-0000-82.png
14,479,1,1445365144103,1445365144529,333,455,0,0,0,4,2,2,42,0005-00-0006-72.png,0002-00-0008-72.png
14,480,1,1445365145575,1445365146120,320,473,0,0,0,2,4,2,24,0002-00-0005-86.png,0005-00-0001-53.png
14,481,1,1445365149186,1445365149664,350,358,0,0,0,3,4,1,34,0003-00-0002-45.png,0005-00-0006-16.png
14,482,1,1445365150662,1445365151129,899,412,0,0,0,1,4,3,14,0004-00-0002-24.png,0005-00-0004-86.png
14,483,1,1445365152354,1445365152850,317,454,0,0,0,1,3,2,13,0004-00-0007-93.png,0003-00-0002-67.png
14,484,1,1445365153875,1445365154412,901,423,0,0,0,5,3,2,53,0001-00-0004-81.png,0003-00-0002-00.png
14,485,1,1445365155434,1445365155984,385,390,0,0,0,1,5,4,15,0004-00-0004-69.png,0001-00-0002-37.png
14,486,1,1445365157015,1445365157460,364,410,0,0,0,4,3,1,43,0005-00-0008-52.png,0003-00-0004-85.png
14,487,0,1445365158516,1445365159062,898,412,0,0,0,4,1,3,41,0005-00-0008-10.png,0004-00-0000-17.png
14,488,1,1445365160046,1445365160565,387,427,0,0,0,1,5,4,15,0004-00-0005-40.png,0001-00-0005-32.png
14,489,1,1445365163465,1445365163913,331,409,0,0,0,5,3,2,53,0001-00-0007-73.png,0003-00-0005-57.png
14,490,0,1445365164988,1445365165430,350,422,0,0,0,5,2,3,52,0001-00-0001-92.png,0002-00-0000-02.png
14,491,1,1445365166684,1445365167240,880,453,0,0,0,2,1,1,21,0002-00-0000-90.png,0004-00-0008-28.png
14,492,0,1445365170409,1445365170895,875,495,0,0,0,2,4,2,24,0002-00-0009-16.png,0005-00-0004-52.png
14,493,1,1445365171801,1445365172308,872,491,0,0,0,3,2,1,32,0003-00-0001-31.png,0002-00-0001-26.png
14,494,1,1445365173323,1445365173810,899,424,0,0,0,3,1,2,31,0003-00-0005-43.png,0004-00-0004-99.png
14,495,1,1445365174782,1445365175196,349,430,0,0,0,1,3,2,13,0004-00-0001-10.png,0003-00-0000-90.png
14,496,1,1445365176376,1445365176891,860,408,0,0,0,5,3,2,53,0001-00-0008-86.png,0003-00-0005-97.png
14,497,1,1445365178069,1445365178504,325,423,0,0,0,3,1,2,31,0003-00-0005-61.png,0004-00-0005-36.png
14,498,1,1445365179524,1445365180033,916,433,0,0,0,5,1,4,51,0001-00-0000-90.png,0004-00-0004-18.png
14,499,0,1445365181135,1445365181672,901,424,0,0,0,2,1,1,21,0002-00-0004-08.png,0004-00-0001-38.png
14,500,1,1445365182667,1445365183171,903,417,0,0,0,4,2,2,42,0005-00-0008-90.png,0002-00-0004-20.png
14,501,0,1445365184203,1445365184835,893,427,0,0,0,2,1,1,21,0002-00-0006-94.png,0004-00-0001-23.png
14,502,0,1445365185877,1445365186300,439,475,0,0,0,4,2,2,42,0005-00-0008-49.png,0002-00-0006-22.png
14,503,1,1445365187538,1445365187981,389,436,0,0,0,2,1,1,21,0002-00-0001-12.png,0004-00-0008-26.png
14,504,1,1445365189110,1445365189702,368,397,0,0,0,1,4,3,14,0004-00-0004-27.png,0005-00-0001-98.png
14,505,0,1445365190897,1445365191400,895,419,0,0,0,5,4,1,54,0001-00-0007-87.png,0005-00-0007-95.png
14,506,0,1445365192616,1445365193631,913,371,0,0,0,1,2,1,12,0004-00-0006-46.png,0002-00-0007-96.png
14,507,0,1445365194664,1445365195138,380,514,0,0,0,4,5,1,45,0005-00-0008-66.png,0001-00-0004-10.png
14,508,0,1445365196255,1445365196723,313,453,0,0,0,4,3,1,43,0005-00-0003-49.png,0003-00-0001-29.png
14,509,0,1445365197983,1445365198454,376,515,0,0,0,5,3,2,53,0001-00-0000-40.png,0003-00-0000-71.png
14,510,0,1445365199604,1445365200062,286,449,0,0,0,1,2,1,12,0004-00-0005-54.png,0002-00-0002-34.png
14,511,0,1445365201245,1445365201860,883,500,0,0,0,4,3,1,43,0005-00-0004-33.png,0003-00-0004-08.png
14,512,0,1445365202893,1445365203388,401,462,0,0,0,2,5,3,25,0002-00-0004-38.png,0001-00-0008-01.png
14,513,1,1445365206413,1445365206916,899,405,0,0,0,5,4,1,54,0001-00-0004-55.png,0005-00-0007-38.png
14,514,1,1445365207902,1445365208434,878,418,0,0,0,5,2,3,52,0001-00-0000-28.png,0002-00-0007-13.png
14,515,1,1445365211639,1445365212033,900,438,0,0,0,2,3,1,23,0002-00-0003-95.png,0003-00-0000-34.png
14,516,1,1445365215190,1445365215618,913,457,0,0,0,3,2,1,32,0003-00-0008-51.png,0002-00-0002-74.png
14,517,1,1445365216597,1445365217111,925,415,0,0,0,1,4,3,14,0004-00-0005-16.png,0005-00-0009-47.png
14,518,0,1445365218121,1445365218673,323,451,0,0,0,2,1,1,21,0002-00-0004-47.png,0004-00-0003-55.png
14,519,0,1445365219701,1445365220206,880,428,0,0,0,3,1,2,31,0003-00-0007-84.png,0004-00-0006-40.png
14,520,1,1445365221211,1445365221647,401,410,0,0,0,1,4,3,14,0004-00-0002-68.png,0005-00-0006-31.png
14,521,0,1445365222761,1445365223228,312,449,0,0,0,5,3,2,53,0001-00-0002-97.png,0003-00-0007-78.png
14,522,0,1445365224343,1445365224885,913,450,0,0,0,4,5,1,45,0005-00-0002-03.png,0001-00-0005-22.png
14,523,1,1445365225903,1445365226371,401,384,0,0,0,1,4,3,14,0004-00-0007-36.png,0005-00-0004-15.png
14,524,0,1445365227453,1445365227994,890,423,0,0,0,5,3,2,53,0001-00-0007-44.png,0003-00-0000-70.png
14,525,0,1445365229324,1445365229838,878,441,0,0,0,3,4,1,34,0003-00-0007-46.png,0005-00-0009-30.png
14,526,1,1445365230834,1445365231270,319,462,0,0,0,2,4,2,24,0002-00-0008-60.png,0005-00-0000-47.png
14,527,1,1445365232416,1445365232918,889,423,0,0,0,1,3,2,13,0004-00-0001-01.png,0003-00-0009-46.png
14,528,0,1445365233955,1445365234386,391,548,0,0,0,4,3,1,43,0005-00-0000-77.png,0003-00-0008-78.png
14,529,0,1445365235974,1445365236460,348,451,0,0,0,2,3,1,23,0002-00-0001-92.png,0003-00-0001-17.png
14,530,1,1445365239769,1445365240231,332,421,0,0,0,4,5,1,45,0005-00-0009-70.png,0001-00-0002-55.png
14,531,1,1445365241299,1445365241774,889,416,0,0,0,2,3,1,23,0002-00-0000-55.png,0003-00-0001-46.png
14,532,1,1445365242834,1445365243336,925,436,0,0,0,5,1,4,51,0001-00-0009-48.png,0004-00-0002-26.png
14,533,1,1445365244344,1445365244776,334,457,0,0,0,1,4,3,14,0004-00-0000-04.png,0005-00-0004-54.png
14,534,1,1445365246013,1445365246414,354,430,0,0,0,3,2,1,32,0003-00-0003-73.png,0002-00-0001-59.png
14,535,1,1445365247484,1445365247998,334,381,0,0,0,2,4,2,24,0002-00-0003-89.png,0005-00-0001-93.png
14,536,0,1445365249072,1445365249595,901,424,0,0,0,3,1,2,31,0003-00-0004-98.png,0004-00-0006-23.png
14,537,1,1445365250615,1445365251065,876,408,0,0,0,1,5,4,15,0004-00-0001-56.png,0001-00-0003-01.png
14,538,1,1445365252146,1445365252673,873,405,0,0,0,2,1,1,21,0002-00-0004-47.png,0004-00-0009-37.png
14,539,1,1445365253705,1445365254235,900,411,0,0,0,4,2,2,42,0005-00-0002-08.png,0002-00-0001-41.png
14,540,1,1445365255335,1445365255791,366,433,0,0,0,2,3,1,23,0002-00-0005-62.png,0003-00-0002-45.png
14,541,0,1445365256868,1445365257333,363,512,0,0,0,1,4,3,14,0004-00-0003-62.png,0005-00-0006-59.png
14,542,1,1445365258377,1445365258837,362,410,0,0,0,2,4,2,24,0002-00-0003-66.png,0005-00-0004-53.png
14,543,1,1445365260048,1445365260559,907,388,0,0,0,2,3,1,23,0002-00-0004-99.png,0003-00-0009-72.png
14,544,0,1445365261638,1445365262113,337,475,0,0,0,3,2,1,32,0003-00-0007-48.png,0002-00-0008-19.png
14,545,1,1445365263227,1445365263740,875,438,0,0,0,2,1,1,21,0002-00-0000-01.png,0004-00-0004-89.png
14,546,0,1445365266775,1445365267262,917,421,0,0,0,3,5,2,35,0003-00-0007-92.png,0001-00-0004-67.png
14,547,1,1445365268288,1445365268900,897,406,0,0,0,5,3,2,53,0001-00-0008-48.png,0003-00-0001-83.png
14,548,1,1445365269846,1445365270369,894,442,0,0,0,5,2,3,52,0001-00-0006-16.png,0002-00-0009-60.png
14,549,0,1445365273465,1445365274031,248,397,0,0,0,3,5,2,35,0003-00-0004-98.png,0001-00-0009-05.png
14,550,1,1445365275063,1445365275610,913,424,0,0,0,3,5,2,35,0003-00-0009-54.png,0001-00-0000-72.png
14,551,1,1445365276565,1445365277048,319,462,0,0,0,3,2,1,32,0003-00-0003-13.png,0002-00-0004-08.png
14,552,0,1445365278333,1445365278976,928,413,0,0,0,5,4,1,54,0001-00-0003-90.png,0005-00-0009-58.png
14,553,0,1445365280144,1445365280579,901,437,0,0,0,4,3,1,43,0005-00-0001-54.png,0003-00-0005-48.png
14,554,1,1445365281597,1445365282096,875,514,0,0,0,3,5,2,35,0003-00-0007-67.png,0001-00-0004-22.png
14,555,1,1445365283276,1445365283791,902,416,0,0,0,1,5,4,15,0004-00-0007-42.png,0001-00-0000-57.png
14,556,0,1445365284924,1445365285349,342,442,0,0,0,5,2,3,52,0001-00-0009-23.png,0002-00-0008-85.png
14,557,1,1445365286435,1445365286929,427,410,0,0,0,3,4,1,34,0003-00-0006-28.png,0005-00-0009-99.png
14,558,0,1445365288006,1445365288439,385,432,0,0,0,3,4,1,34,0003-00-0003-46.png,0005-00-0002-64.png
14,559,1,1445365289655,1445365290139,873,517,0,0,0,5,3,2,53,0001-00-0006-58.png,0003-00-0002-92.png
14,560,1,1445365291146,1445365291676,877,416,0,0,0,3,1,2,31,0003-00-0007-90.png,0004-00-0008-79.png
14,561,0,1445365294715,1445365295218,925,386,0,0,0,3,5,2,35,0003-00-0005-60.png,0001-00-0006-20.png
14,562,0,1445365296392,1445365296878,925,410,0,0,0,3,5,2,35,0003-00-0001-42.png,0001-00-0008-81.png
14,563,0,1445365297975,1445365298602,887,424,0,0,0,5,4,1,54,0001-00-0008-47.png,0005-00-0009-02.png
14,564,0,1445365301758,1445365302226,336,430,0,0,0,2,5,3,25,0002-00-0009-50.png,0001-00-0003-68.png
14,565,0,1445365303690,1445365304184,914,398,0,0,0,1,3,2,13,0004-00-0005-29.png,0003-00-0009-57.png
14,566,1,1445365305163,1445365305615,337,449,0,0,0,1,3,2,13,0004-00-0005-04.png,0003-00-0005-75.png
14,567,1,1445365306730,1445365307229,926,436,0,0,0,2,3,1,23,0002-00-0002-51.png,0003-00-0003-93.png
14,568,0,1445365308459,1445365308903,348,449,0,0,0,4,5,1,45,0005-00-0003-09.png,0001-00-0007-34.png
14,569,1,1445365309950,1445365310417,423,433,0,0,0,2,3,1,23,0002-00-0003-62.png,0003-00-0004-24.png
14,570,1,1445365311562,1445365312048,875,462,0,0,0,2,1,1,21,0002-00-0002-40.png,0004-00-0003-46.png
14,571,1,1445365313170,1445365313661,357,420,0,0,0,2,3,1,23,0002-00-0002-98.png,0003-00-0006-11.png
14,572,1,1445365314913,1445365315524,908,390,0,0,0,2,5,3,25,0002-00-0002-49.png,0001-00-0005-17.png
14,573,0,1445365318375,1445365318765,427,384,0,0,0,3,5,2,35,0003-00-0002-27.png,0001-00-0009-16.png
14,574,1,1445365319799,1445365320316,896,419,0,0,0,4,1,3,41,0005-00-0007-23.png,0004-00-0000-08.png
14,575,1,1445365321253,1445365321770,932,415,0,0,0,2,4,2,24,0002-00-0008-30.png,0005-00-0003-99.png
14,576,0,1445365323002,1445365323528,888,449,0,0,0,2,4,2,24,0002-00-0008-12.png,0005-00-0004-74.png
14,577,1,1445365324531,1445365325049,365,548,0,0,0,4,1,3,41,0005-00-0007-92.png,0004-00-0009-25.png
14,578,1,1445365326184,1445365326646,418,442,0,0,0,1,3,2,13,0004-00-0005-73.png,0003-00-0009-64.png
14,579,1,1445365329649,1445365329717,507,431,0,0,0,1,5,4,15,0004-00-0007-62.png,0001-00-0009-19.png
14,580,0,1445365333072,1445365333563,899,429,0,0,0,1,2,1,12,0004-00-0007-06.png,0002-00-0005-88.png
14,581,1,1445365336522,1445365336566,489,436,0,0,0,1,3,2,13,0004-00-0003-55.png,0003-00-0003-73.png
14,582,1,1445365337582,1445365338064,900,514,0,0,0,3,1,2,31,0003-00-0000-03.png,0004-00-0005-90.png
14,583,0,1445365339121,1445365339676,358,402,0,0,0,2,4,2,24,0002-00-0002-13.png,0005-00-0004-31.png
14,584,1,1445365340652,1445365341190,861,508,0,0,0,5,3,2,53,0001-00-0008-32.png,0003-00-0001-74.png
14,585,1,1445365342215,1445365343286,919,514,0,0,0,2,5,3,25,0002-00-0009-77.png,0001-00-0004-34.png
14,586,1,1445365344320,1445365344837,916,451,0,0,0,3,1,2,31,0003-00-0003-62.png,0004-00-0008-91.png
14,587,1,1445365345840,1445365346335,926,411,0,0,0,1,2,1,12,0004-00-0004-35.png,0002-00-0003-84.png
14,588,1,1445365347412,1445365347872,388,462,0,0,0,5,1,4,51,0001-00-0001-26.png,0004-00-0009-82.png
14,589,1,1445365348953,1445365349371,288,424,0,0,0,2,5,3,25,0002-00-0005-94.png,0001-00-0009-19.png
14,590,1,1445365350653,1445365351128,312,424,0,0,0,2,3,1,23,0002-00-0007-20.png,0003-00-0002-64.png
14,591,1,1445365352167,1445365352703,898,430,0,0,0,3,2,1,32,0003-00-0003-12.png,0002-00-0008-79.png
14,592,1,1445365355704,1445365356138,898,511,0,0,0,2,1,1,21,0002-00-0009-56.png,0004-00-0003-45.png
14,593,1,1445365357160,1445365357623,363,461,0,0,0,4,5,1,45,0005-00-0007-90.png,0001-00-0000-66.png
14,594,1,1445365358712,1445365359174,386,423,0,0,0,3,4,1,34,0003-00-0009-39.png,0005-00-0008-72.png
14,595,1,1445365360313,1445365360848,900,423,0,0,0,3,5,2,35,0003-00-0008-12.png,0001-00-0001-33.png
14,596,1,1445365361823,1445365362355,873,509,0,0,0,4,2,2,42,0005-00-0007-27.png,0002-00-0004-14.png
14,597,1,1445365365323,1445365365359,498,418,0,0,0,5,1,4,51,0001-00-0008-01.png,0004-00-0001-92.png
14,598,1,1445365368573,1445365369025,343,447,0,0,0,1,3,2,13,0004-00-0005-31.png,0003-00-0000-42.png
14,599,1,1445365369923,1445365370477,924,434,0,0,0,1,3,2,13,0004-00-0009-51.png,0003-00-0006-69.png
14,600,1,1445365371474,1445365371988,388,462,0,0,0,5,2,3,52,0001-00-0009-29.png,0002-00-0006-05.png
14,601,1,1445365375381,1445365375844,350,397,0,0,0,5,2,3,52,0001-00-0003-33.png,0002-00-0007-56.png
14,602,1,1445365376821,1445365377379,891,427,0,0,0,3,4,1,34,0003-00-0009-91.png,0005-00-0007-66.png
14,603,1,1445365380637,1445365381144,376,423,0,0,0,2,1,1,21,0002-00-0002-73.png,0004-00-0008-40.png
14,604,0,1445365382079,1445365382593,926,423,0,0,0,3,4,1,34,0003-00-0001-83.png,0005-00-0007-96.png
14,605,0,1445365383660,1445365384440,401,358,0,0,0,1,2,1,12,0004-00-0003-00.png,0002-00-0008-89.png
14,606,1,1445365387387,1445365387827,951,411,0,0,0,1,3,2,13,0004-00-0005-15.png,0003-00-0006-86.png
14,607,1,1445365388684,1445365389182,900,410,0,0,0,2,4,2,24,0002-00-0007-11.png,0005-00-0005-82.png
14,608,0,1445365390168,1445365390644,363,423,0,0,0,4,5,1,45,0005-00-0001-59.png,0001-00-0008-46.png
14,609,0,1445365391769,1445365392285,873,501,0,0,0,5,3,2,53,0001-00-0002-65.png,0003-00-0006-52.png
14,610,0,1445365393698,1445365394139,342,426,0,0,0,3,5,2,35,0003-00-0009-44.png,0001-00-0000-11.png
14,611,1,1445365395357,1445365395921,884,488,0,0,0,4,1,3,41,0005-00-0002-59.png,0004-00-0005-15.png
14,612,1,1445365396998,1445365397561,887,424,0,0,0,3,1,2,31,0003-00-0004-42.png,0004-00-0009-15.png
14,613,1,1445365400468,1445365400904,316,419,0,0,0,3,1,2,31,0003-00-0009-66.png,0004-00-0003-66.png
14,614,0,1445365402057,1445365402529,867,509,0,0,0,1,5,4,15,0004-00-0007-99.png,0001-00-0008-45.png
14,615,1,1445365403477,1445365403983,874,515,0,0,0,1,4,3,14,0004-00-0000-76.png,0005-00-0008-06.png
14,616,1,1445365405117,1445365405560,401,449,0,0,0,4,2,2,42,0005-00-0006-14.png,0002-00-0009-40.png
14,617,0,1445365406625,1445365407171,307,460,0,0,0,4,5,1,45,0005-00-0006-89.png,0001-00-0009-94.png
14,618,0,1445365408217,1445365408707,305,437,0,0,0,4,3,1,43,0005-00-0001-53.png,0003-00-0004-85.png
14,619,1,1445365409799,1445365410338,865,441,0,0,0,1,4,3,14,0004-00-0004-41.png,0005-00-0002-47.png
14,620,1,1445365413287,1445365413307,465,417,0,0,0,1,3,2,13,0004-00-0006-92.png,0003-00-0002-41.png
14,621,0,1445365416247,1445365416826,323,357,0,0,0,2,4,2,24,0002-00-0001-45.png,0005-00-0002-88.png
14,622,1,1445365417820,1445365418785,427,384,0,0,0,1,5,4,15,0004-00-0006-49.png,0001-00-0001-14.png
14,623,1,1445365422535,1445365423023,902,392,0,0,0,2,5,3,25,0002-00-0008-38.png,0001-00-0003-67.png
14,624,0,1445365425304,1445365425837,946,408,0,0,0,5,4,1,54,0001-00-0009-06.png,0005-00-0001-93.png
14,625,0,1445365427128,1445365427674,871,397,0,0,0,5,3,2,53,0001-00-0001-54.png,0003-00-0009-62.png
14,626,0,1445365429725,1445365430243,876,503,0,0,0,5,4,1,54,0001-00-0000-25.png,0005-00-0004-80.png
14,627,0,1445365433339,1445365433801,427,370,0,0,0,4,1,3,41,0005-00-0004-24.png,0004-00-0002-75.png
14,628,1,1445365435002,1445365435457,924,404,0,0,0,3,2,1,32,0003-00-0005-11.png,0002-00-0007-96.png
14,629,0,1445365436758,1445365437267,902,390,0,0,0,5,4,1,54,0001-00-0006-85.png,0005-00-0005-13.png
14,630,1,1445365440174,1445365441009,916,482,0,0,0,4,5,1,45,0005-00-0005-18.png,0001-00-0007-94.png
14,631,0,1445365442684,1445365443243,906,419,0,0,0,1,5,4,15,0004-00-0009-68.png,0001-00-0002-56.png
14,632,0,1445365444502,1445365445622,901,425,0,0,0,2,3,1,23,0002-00-0003-44.png,0003-00-0003-03.png
14,633,0,1445365448984,1445365449444,901,436,0,0,0,1,5,4,15,0004-00-0000-41.png,0001-00-0001-10.png
14,634,1,1445365450613,1445365451035,340,431,0,0,0,3,4,1,34,0003-00-0006-97.png,0005-00-0005-05.png
14,635,0,1445365452514,1445365452943,396,416,0,0,0,4,3,1,43,0005-00-0006-18.png,0003-00-0005-37.png
14,636,1,1445365454025,1445365454571,888,502,0,0,0,3,1,2,31,0003-00-0008-93.png,0004-00-0002-99.png
14,637,1,1445365455627,1445365456075,312,424,0,0,0,4,1,3,41,0005-00-0004-08.png,0004-00-0005-80.png
14,638,0,1445365457094,1445365457621,925,413,0,0,0,1,2,1,12,0004-00-0001-48.png,0002-00-0007-06.png
14,639,0,1445365458656,1445365459091,384,533,0,0,0,5,4,1,54,0001-00-0002-33.png,0005-00-0006-62.png
14,640,1,1445365460105,1445365460605,924,438,0,0,0,1,4,3,14,0004-00-0003-63.png,0005-00-0000-24.png
14,641,0,1445365461646,1445365462067,389,410,0,0,0,5,1,4,51,0001-00-0009-32.png,0004-00-0003-36.png
14,642,1,1445365463108,1445365463532,338,450,0,0,0,1,3,2,13,0004-00-0000-05.png,0003-00-0007-47.png
14,643,1,1445365466500,1445365466576,468,488,0,0,0,1,3,2,13,0004-00-0006-44.png,0003-00-0009-91.png
14,644,1,1445365469497,1445365469577,485,376,0,0,0,2,1,1,21,0002-00-0005-97.png,0004-00-0007-15.png
14,645,1,1445365470472,1445365472008,361,376,0,0,0,5,4,1,54,0001-00-0009-39.png,0005-00-0008-35.png
14,646,0,1445365475253,1445365475755,376,397,0,0,0,2,1,1,21,0002-00-0008-84.png,0004-00-0002-19.png
14,647,0,1445365476844,1445365477295,361,405,0,0,0,1,5,4,15,0004-00-0009-93.png,0001-00-0003-37.png
14,648,1,1445365478274,1445365478817,889,423,0,0,0,4,3,1,43,0005-00-0003-76.png,0003-00-0005-51.png
14,649,0,1445365479915,1445365480444,332,445,0,0,0,2,3,1,23,0002-00-0000-22.png,0003-00-0004-71.png
14,650,1,1445365481485,1445365481984,873,509,0,0,0,4,1,3,41,0005-00-0007-86.png,0004-00-0009-50.png
14,651,1,1445365483095,1445365483592,923,457,0,0,0,4,2,2,42,0005-00-0004-22.png,0002-00-0005-83.png
14,652,1,1445365486552,1445365487019,899,527,0,0,0,4,3,1,43,0005-00-0003-00.png,0003-00-0008-92.png
14,653,0,1445365490050,1445365490493,927,390,0,0,0,5,4,1,54,0001-00-0008-71.png,0005-00-0000-80.png
14,654,1,1445365491463,1445365491947,398,416,0,0,0,3,2,1,32,0003-00-0007-54.png,0002-00-0006-83.png
14,655,0,1445365492952,1445365493634,875,384,0,0,0,2,1,1,21,0002-00-0003-13.png,0004-00-0007-86.png
14,656,0,1445365494704,1445365495238,887,450,0,0,0,3,5,2,35,0003-00-0008-59.png,0001-00-0001-38.png
14,657,1,1445365496731,1445365497238,886,398,0,0,0,4,3,1,43,0005-00-0008-80.png,0003-00-0007-68.png
14,658,1,1445365498400,1445365498886,348,422,0,0,0,2,3,1,23,0002-00-0002-95.png,0003-00-0009-45.png
14,659,1,1445365500050,1445365500482,334,469,0,0,0,1,3,2,13,0004-00-0007-41.png,0003-00-0008-10.png
14,660,1,1445365501612,1445365502094,928,410,0,0,0,5,1,4,51,0001-00-0002-42.png,0004-00-0007-43.png
14,661,0,1445365503192,1445365503676,344,447,0,0,0,4,5,1,45,0005-00-0008-52.png,0001-00-0002-92.png
14,662,1,1445365504643,1445365505219,913,424,0,0,0,4,5,1,45,0005-00-0003-75.png,0001-00-0002-56.png
14,663,0,1445365506283,1445365506753,395,431,0,0,0,3,4,1,34,0003-00-0002-11.png,0005-00-0009-74.png
14,664,1,1445365507854,1445365508369,905,428,0,0,0,2,4,2,24,0002-00-0003-26.png,0005-00-0008-46.png
14,665,1,1445365509373,1445365509831,334,447,0,0,0,4,5,1,45,0005-00-0000-04.png,0001-00-0003-18.png
14,666,1,1445365510860,1445365511410,862,513,0,0,0,5,2,3,52,0001-00-0008-10.png,0002-00-0005-53.png
14,667,0,1445365512376,1445365513071,875,541,0,0,0,3,5,2,35,0003-00-0001-53.png,0001-00-0001-27.png
14,668,1,1445365514673,1445365515169,376,410,0,0,0,4,1,3,41,0005-00-0002-30.png,0004-00-0001-78.png
14,669,0,1445365516201,1445365516714,877,544,0,0,0,3,5,2,35,0003-00-0002-92.png,0001-00-0006-83.png
14,670,1,1445365517733,1445365518380,874,437,0,0,0,2,5,3,25,0002-00-0003-80.png,0001-00-0000-86.png
14,671,0,1445365519593,1445365520144,899,438,0,0,0,5,3,2,53,0001-00-0007-37.png,0003-00-0005-77.png
14,672,1,1445365523139,1445365523581,376,358,0,0,0,3,2,1,32,0003-00-0005-30.png,0002-00-0007-42.png
14,673,0,1445365524541,1445365525048,913,410,0,0,0,5,3,2,53,0001-00-0003-57.png,0003-00-0001-03.png
14,674,0,1445365526052,1445365526593,876,545,0,0,0,5,4,1,54,0001-00-0006-27.png,0005-00-0003-90.png
14,675,1,1445365527733,1445365528225,330,437,0,0,0,3,5,2,35,0003-00-0009-32.png,0001-00-0009-94.png
14,676,1,1445365529469,1445365530000,910,416,0,0,0,4,3,1,43,0005-00-0000-87.png,0003-00-0001-47.png
14,677,1,1445365531044,1445365531657,876,461,0,0,0,1,3,2,13,0004-00-0004-36.png,0003-00-0002-58.png
14,678,1,1445365534965,1445365535504,922,412,0,0,0,4,2,2,42,0005-00-0008-53.png,0002-00-0000-07.png
14,679,0,1445365536469,1445365536966,870,523,0,0,0,4,5,1,45,0005-00-0008-32.png,0001-00-0000-04.png
14,680,1,1445365540168,1445365540652,902,410,0,0,0,1,5,4,15,0004-00-0009-70.png,0001-00-0005-94.png
14,681,1,1445365543692,1445365544159,928,390,0,0,0,2,4,2,24,0002-00-0000-72.png,0005-00-0006-30.png
14,682,1,1445365545054,1445365545548,366,442,0,0,0,2,4,2,24,0002-00-0003-32.png,0005-00-0008-01.png
14,683,1,1445365546527,1445365547496,916,399,0,0,0,1,3,2,13,0004-00-0007-20.png,0003-00-0000-72.png
14,684,1,1445365548583,1445365549078,324,411,0,0,0,3,5,2,35,0003-00-0006-08.png,0001-00-0008-41.png
14,685,1,1445365550085,1445365550515,384,441,0,0,0,2,1,1,21,0002-00-0007-12.png,0004-00-0002-04.png
14,686,1,1445365551517,1445365551960,318,425,0,0,0,4,2,2,42,0005-00-0004-82.png,0002-00-0003-90.png
14,687,1,1445365552987,1445365553541,886,491,0,0,0,5,2,3,52,0001-00-0009-44.png,0002-00-0002-28.png
14,688,1,1445365554509,1445365555134,917,455,0,0,0,5,1,4,51,0001-00-0006-30.png,0004-00-0009-41.png
14,689,1,1445365556259,1445365556774,899,516,0,0,0,2,5,3,25,0002-00-0004-27.png,0001-00-0008-75.png
14,690,0,1445365557818,1445365558268,344,488,0,0,0,2,1,1,21,0002-00-0003-72.png,0004-00-0006-76.png
14,691,1,1445365561208,1445365561721,416,508,0,0,0,1,5,4,15,0004-00-0004-07.png,0001-00-0000-72.png
14,692,1,1445365562987,1445365563454,888,502,0,0,0,5,3,2,53,0001-00-0000-44.png,0003-00-0009-10.png
14,693,1,1445365564549,1445365565059,920,441,0,0,0,3,1,2,31,0003-00-0009-71.png,0004-00-0002-94.png
14,694,1,1445365568026,1445365568504,316,401,0,0,0,1,2,1,12,0004-00-0005-29.png,0002-00-0007-72.png
14,695,1,1445365569468,1445365570046,897,458,0,0,0,1,4,3,14,0004-00-0000-17.png,0005-00-0001-78.png
14,696,0,1445365570946,1445365571546,376,397,0,0,0,3,5,2,35,0003-00-0006-98.png,0001-00-0006-20.png
14,697,0,1445365572664,1445365573218,875,436,0,0,0,5,2,3,52,0001-00-0000-12.png,0002-00-0007-61.png
14,698,1,1445365576175,1445365576627,943,416,0,0,0,2,3,1,23,0002-00-0009-87.png,0003-00-0006-11.png
14,699,0,1445365577598,1445365578070,337,462,0,0,0,5,4,1,54,0001-00-0009-95.png,0005-00-0003-68.png
14,700,0,1445365579099,1445365579581,864,370,0,0,0,2,3,1,23,0002-00-0003-58.png,0003-00-0005-59.png
14,701,1,1445365580667,1445365581205,911,450,0,0,0,3,2,1,32,0003-00-0006-84.png,0002-00-0003-29.png
14,702,1,1445365584260,1445365584660,927,414,0,0,0,2,3,1,23,0002-00-0006-68.png,0003-00-0009-47.png
14,703,1,1445365585643,1445365586104,917,511,0,0,0,2,1,1,21,0002-00-0005-84.png,0004-00-0000-94.png
14,704,1,1445365587058,1445365587543,349,430,0,0,0,3,2,1,32,0003-00-0003-44.png,0002-00-0008-21.png
14,705,1,1445365588628,1445365589238,901,414,0,0,0,2,4,2,24,0002-00-0009-82.png,0005-00-0006-38.png
14,706,1,1445365590389,1445365590864,427,449,0,0,0,4,1,3,41,0005-00-0004-13.png,0004-00-0006-75.png
14,707,1,1445365593735,1445365594180,361,495,0,0,0,1,2,1,12,0004-00-0001-64.png,0002-00-0004-10.png
14,708,1,1445365595200,1445365595701,330,463,0,0,0,1,5,4,15,0004-00-0000-70.png,0001-00-0005-42.png
14,709,1,1445365596839,1445365597334,905,402,0,0,0,4,2,2,42,0005-00-0001-29.png,0002-00-0005-39.png
14,710,1,1445365598598,1445365599067,338,472,0,0,0,2,1,1,21,0002-00-0003-95.png,0004-00-0002-20.png
14,711,1,1445365602036,1445365602580,293,395,0,0,0,4,1,3,41,0005-00-0006-39.png,0004-00-0006-19.png
14,712,1,1445365603548,1445365604220,887,482,0,0,0,2,3,1,23,0002-00-0000-53.png,0003-00-0006-97.png
14,713,0,1445365607436,1445365607865,926,410,0,0,0,5,4,1,54,0001-00-0004-48.png,0005-00-0009-26.png
14,714,0,1445365610756,1445365611135,948,419,0,0,0,5,3,2,53,0001-00-0009-04.png,0003-00-0007-44.png
14,715,1,1445365612145,1445365612738,928,390,0,0,0,5,1,4,51,0001-00-0001-09.png,0004-00-0003-98.png
14,716,1,1445365615605,1445365615633,507,412,0,0,0,4,2,2,42,0005-00-0007-31.png,0002-00-0000-69.png
14,717,1,1445365616706,1445365617282,387,410,0,0,0,5,2,3,52,0001-00-0006-22.png,0002-00-0001-99.png
14,718,0,1445365618238,1445365618759,921,420,0,0,0,4,3,1,43,0005-00-0009-57.png,0003-00-0005-66.png
14,719,0,1445365619726,1445365620197,426,436,0,0,0,1,2,1,12,0004-00-0001-10.png,0002-00-0000-34.png
14,720,0,1445365623166,1445365623623,947,420,0,0,0,4,1,3,41,0005-00-0003-95.png,0004-00-0009-46.png
14,721,0,1445365624677,1445365625137,875,527,0,0,0,1,2,1,12,0004-00-0002-78.png,0002-00-0009-49.png
14,722,1,1445365626176,1445365626671,906,436,0,0,0,4,2,2,42,0005-00-0002-24.png,0002-00-0000-55.png
14,723,1,1445365627757,1445365628190,396,565,0,0,0,2,4,2,24,0002-00-0003-51.png,0005-00-0000-26.png
14,724,1,1445365629249,1445365629741,900,437,0,0,0,1,4,3,14,0004-00-0001-02.png,0005-00-0003-16.png
14,725,1,1445365630805,1445365631239,332,446,0,0,0,3,1,2,31,0003-00-0002-41.png,0004-00-0007-44.png
14,726,1,1445365632428,1445365632898,339,444,0,0,0,1,5,4,15,0004-00-0002-78.png,0001-00-0000-41.png
14,727,1,1445365633980,1445365634481,376,462,0,0,0,2,5,3,25,0002-00-0000-55.png,0001-00-0000-91.png
14,728,1,1445365635499,1445365636025,951,412,0,0,0,5,2,3,52,0001-00-0009-63.png,0002-00-0000-75.png
14,729,1,1445365637010,1445365637544,888,436,0,0,0,1,4,3,14,0004-00-0002-47.png,0005-00-0004-22.png
14,730,1,1445365638580,1445365639092,882,532,0,0,0,4,1,3,41,0005-00-0004-82.png,0004-00-0008-71.png
14,731,1,1445365640420,1445365640964,361,470,0,0,0,5,4,1,54,0001-00-0007-02.png,0005-00-0000-67.png
14,732,1,1445365641990,1445365642464,376,449,0,0,0,1,4,3,14,0004-00-0005-68.png,0005-00-0007-51.png
14,733,0,1445365643580,1445365644090,900,423,0,0,0,1,2,1,12,0004-00-0006-07.png,0002-00-0009-37.png
14,734,1,1445365645210,1445365645746,890,495,0,0,0,5,4,1,54,0001-00-0008-17.png,0005-00-0008-73.png
14,735,0,1445365647010,1445365647548,886,398,0,0,0,3,2,1,32,0003-00-0000-72.png,0002-00-0005-56.png
14,736,1,1445365650468,1445365650951,362,488,0,0,0,4,5,1,45,0005-00-0009-33.png,0001-00-0006-39.png
14,737,1,1445365651889,1445365652413,376,436,0,0,0,5,1,4,51,0001-00-0004-61.png,0004-00-0000-28.png
14,738,1,1445365653422,1445365653947,887,423,0,0,0,4,5,1,45,0005-00-0000-73.png,0001-00-0001-46.png
14,739,1,1445365654996,1445365655537,894,415,0,0,0,3,2,1,32,0003-00-0003-09.png,0002-00-0001-28.png
14,740,1,1445365658708,1445365659243,879,416,0,0,0,1,2,1,12,0004-00-0003-46.png,0002-00-0004-43.png
14,741,0,1445365662277,1445365662749,916,392,0,0,0,5,3,2,53,0001-00-0005-47.png,0003-00-0002-09.png
14,742,0,1445365663744,1445365664324,879,401,0,0,0,1,2,1,12,0004-00-0000-30.png,0002-00-0003-11.png
14,743,0,1445365665863,1445365666337,401,422,0,0,0,4,3,1,43,0005-00-0005-46.png,0003-00-0008-48.png
14,744,1,1445365667344,1445365668092,890,474,0,0,0,5,1,4,51,0001-00-0005-15.png,0004-00-0005-16.png
14,745,1,1445365669115,1445365669566,401,449,0,0,0,4,1,3,41,0005-00-0007-90.png,0004-00-0007-21.png
14,746,0,1445365670643,1445365671189,900,412,0,0,0,3,4,1,34,0003-00-0005-32.png,0005-00-0002-27.png
14,747,0,1445365672405,1445365672927,899,423,0,0,0,3,4,1,34,0003-00-0002-19.png,0005-00-0009-75.png
14,748,1,1445365673964,1445365674473,875,436,0,0,0,1,5,4,15,0004-00-0007-21.png,0001-00-0006-41.png
14,749,0,1445365677542,1445365678260,887,481,0,0,0,4,3,1,43,0005-00-0003-25.png,0003-00-0008-10.png
14,750,0,1445365679251,1445365679948,388,503,0,0,0,4,3,1,43,0005-00-0002-00.png,0003-00-0004-05.png
14,751,1,1445365681064,1445365681578,903,417,0,0,0,2,3,1,23,0002-00-0006-61.png,0003-00-0002-25.png
14,752,1,1445365682603,1445365683042,401,410,0,0,0,3,4,1,34,0003-00-0002-75.png,0005-00-0007-42.png
14,753,1,1445365684149,1445365684687,913,448,0,0,0,4,2,2,42,0005-00-0000-45.png,0002-00-0002-05.png
14,754,1,1445365685700,1445365686211,886,525,0,0,0,3,1,2,31,0003-00-0003-37.png,0004-00-0004-34.png
14,755,0,1445365689317,1445365689868,372,384,0,0,0,3,5,2,35,0003-00-0000-93.png,0001-00-0006-37.png
14,756,0,1445365690880,1445365691412,870,524,0,0,0,3,4,1,34,0003-00-0005-36.png,0005-00-0002-70.png
14,757,0,1445365692382,1445365692915,893,438,0,0,0,5,4,1,54,0001-00-0007-27.png,0005-00-0007-70.png
14,758,1,1445365696024,1445365696493,895,523,0,0,0,3,4,1,34,0003-00-0008-11.png,0005-00-0002-97.png
14,759,1,1445365697481,1445365698012,898,462,0,0,0,2,4,2,24,0002-00-0003-17.png,0005-00-0007-81.png
14,760,0,1445365698955,1445365699387,312,450,0,0,0,5,1,4,51,0001-00-0007-18.png,0004-00-0007-38.png
14,761,1,1445365700500,1445365701025,339,466,0,0,0,2,3,1,23,0002-00-0009-55.png,0003-00-0003-92.png
14,762,1,1445365702030,1445365702451,346,447,0,0,0,5,1,4,51,0001-00-0008-65.png,0004-00-0006-97.png
14,763,0,1445365703630,1445365704116,872,403,0,0,0,4,5,1,45,0005-00-0009-87.png,0001-00-0008-57.png
14,764,1,1445365707127,1445365707604,299,425,0,0,0,3,1,2,31,0003-00-0003-49.png,0004-00-0006-12.png
14,765,1,1445365710695,1445365711709,911,488,0,0,0,2,4,2,24,0002-00-0007-83.png,0005-00-0005-33.png
14,766,1,1445365712740,1445365713204,905,454,0,0,0,3,2,1,32,0003-00-0005-66.png,0002-00-0005-08.png
14,767,1,1445365714207,1445365714650,407,436,0,0,0,2,5,3,25,0002-00-0001-04.png,0001-00-0001-94.png
14,768,1,1445365715764,1445365716352,895,498,0,0,0,2,4,2,24,0002-00-0000-06.png,0005-00-0005-47.png
14,769,1,1445365717365,1445365717787,325,449,0,0,0,2,1,1,21,0002-00-0000-14.png,0004-00-0007-71.png
14,770,1,1445365718826,1445365719352,361,465,0,0,0,4,1,3,41,0005-00-0006-35.png,0004-00-0002-96.png
14,771,1,1445365720307,1445365720838,913,436,0,0,0,1,5,4,15,0004-00-0008-06.png,0001-00-0004-57.png
14,772,0,1445365721980,1445365722442,907,443,0,0,0,3,5,2,35,0003-00-0002-38.png,0001-00-0006-19.png
14,773,1,1445365723521,1445365724010,401,528,0,0,0,5,2,3,52,0001-00-0001-33.png,0002-00-0003-67.png
14,774,0,1445365725101,1445365725592,879,454,0,0,0,5,2,3,52,0001-00-0004-66.png,0002-00-0006-68.png
14,775,0,1445365726897,1445365727573,399,388,0,0,0,1,2,1,12,0004-00-0007-51.png,0002-00-0000-87.png
14,776,1,1445365730634,1445365731128,312,420,0,0,0,4,2,2,42,0005-00-0006-91.png,0002-00-0007-47.png
14,777,1,1445365732044,1445365732569,905,402,0,0,0,3,5,2,35,0003-00-0004-41.png,0001-00-0007-56.png
14,778,1,1445365735585,1445365736078,878,428,0,0,0,1,4,3,14,0004-00-0006-87.png,0005-00-0007-68.png
14,779,0,1445365737788,1445365738202,341,395,0,0,0,4,5,1,45,0005-00-0002-83.png,0001-00-0004-26.png
14,780,0,1445365739190,1445365739656,344,427,0,0,0,3,5,2,35,0003-00-0004-59.png,0001-00-0001-85.png
14,781,1,1445365740754,1445365741242,892,430,0,0,0,5,2,3,52,0001-00-0000-80.png,0002-00-0009-59.png
14,782,1,1445365742382,1445365742845,337,462,0,0,0,4,3,1,43,0005-00-0001-38.png,0003-00-0008-95.png
14,783,0,1445365743983,1445365744497,899,432,0,0,0,5,4,1,54,0001-00-0003-58.png,0005-00-0008-13.png
14,784,1,1445365745554,1445365745997,427,461,0,0,0,5,2,3,52,0001-00-0007-43.png,0002-00-0008-69.png
14,785,1,1445365749004,1445365749486,923,404,0,0,0,3,1,2,31,0003-00-0008-21.png,0004-00-0004-80.png
14,786,1,1445365750423,1445365750871,927,450,0,0,0,4,5,1,45,0005-00-0008-58.png,0001-00-0008-23.png
14,787,1,1445365751892,1445365752423,888,450,0,0,0,2,5,3,25,0002-00-0006-63.png,0001-00-0000-72.png
14,788,0,1445365755339,1445365755828,400,460,0,0,0,1,2,1,12,0004-00-0003-66.png,0002-00-0000-41.png
14,789,1,1445365756752,1445365757287,293,522,0,0,0,5,1,4,51,0001-00-0008-85.png,0004-00-0009-96.png
14,790,1,1445365758292,1445365758819,899,423,0,0,0,5,2,3,52,0001-00-0001-11.png,0002-00-0008-44.png
14,791,0,1445365759823,1445365761369,439,477,0,0,0,5,2,3,52,0001-00-0009-49.png,0002-00-0003-22.png
14,792,1,1445365762427,1445365762982,873,495,0,0,0,5,4,1,54,0001-00-0000-72.png,0005-00-0003-19.png
14,793,1,1445365763927,1445365764422,311,465,0,0,0,5,4,1,54,0001-00-0004-79.png,0005-00-0003-03.png
14,794,0,1445365765427,1445365765943,890,515,0,0,0,4,5,1,45,0005-00-0004-77.png,0001-00-0002-04.png
14,795,1,1445365768945,1445365768969,478,440,0,0,0,1,4,3,14,0004-00-0007-12.png,0005-00-0007-30.png
14,796,1,1445365772514,1445365773050,862,475,0,0,0,1,2,1,12,0004-00-0003-29.png,0002-00-0004-40.png
14,797,1,1445365774014,1445365774658,393,493,0,0,0,3,4,1,34,0003-00-0008-47.png,0005-00-0003-09.png
14,798,1,1445365775665,1445365776207,862,502,0,0,0,4,1,3,41,0005-00-0003-07.png,0004-00-0007-71.png
14,799,1,1445365777146,1445365777591,363,462,0,0,0,2,5,3,25,0002-00-0008-40.png,0001-00-0007-20.png
14,800,1,1445365778679,1445365779249,898,432,0,0,0,4,5,1,45,0005-00-0009-02.png,0001-00-0005-32.png
14,801,1,1445365780275,1445365780812,900,411,0,0,0,5,3,2,53,0001-00-0000-83.png,0003-00-0009-83.png
14,802,0,1445365781887,1445365782336,392,428,0,0,0,1,4,3,14,0004-00-0006-98.png,0005-00-0006-42.png
14,803,0,1445365783795,1445365784307,905,401,0,0,0,5,3,2,53,0001-00-0000-36.png,0003-00-0000-17.png
14,804,1,1445365787171,1445365787778,861,324,0,0,0,2,3,1,23,0002-00-0005-91.png,0003-00-0007-03.png
14,805,1,1445365788755,1445365789287,953,410,0,0,0,2,5,3,25,0002-00-0006-35.png,0001-00-0004-06.png
14,806,0,1445365792212,1445365792240,510,414,0,0,0,1,2,1,12,0004-00-0001-57.png,0002-00-0006-90.png
14,807,1,1445365793346,1445365793849,879,546,0,0,0,3,2,1,32,0003-00-0008-13.png,0002-00-0006-01.png
14,808,1,1445365795076,1445365795658,903,416,0,0,0,5,1,4,51,0001-00-0005-24.png,0004-00-0005-44.png
14,809,1,1445365796656,1445365797298,857,361,0,0,0,1,3,2,13,0004-00-0007-64.png,0003-00-0002-48.png
14,810,1,1445365800183,1445365800652,930,401,0,0,0,4,1,3,41,0005-00-0007-52.png,0004-00-0004-30.png
14,811,1,1445365801654,1445365802148,875,423,0,0,0,4,2,2,42,0005-00-0005-55.png,0002-00-0005-68.png
14,812,0,1445365805161,1445365805189,470,440,0,0,0,1,2,1,12,0004-00-0003-15.png,0002-00-0008-69.png
14,813,0,1445365808272,1445365808301,498,401,0,0,0,2,4,2,24,0002-00-0006-11.png,0005-00-0001-30.png
14,814,0,1445365809358,1445365809852,926,436,0,0,0,5,4,1,54,0001-00-0001-33.png,0005-00-0002-68.png
14,815,1,1445365810857,1445365811383,927,424,0,0,0,4,1,3,41,0005-00-0009-73.png,0004-00-0000-07.png
14,816,0,1445365812339,1445365812794,389,528,0,0,0,1,2,1,12,0004-00-0004-78.png,0002-00-0008-02.png
14,817,1,1445365813910,1445365814433,921,435,0,0,0,2,5,3,25,0002-00-0007-69.png,0001-00-0003-51.png
14,818,1,1445365815552,1445365816228,382,408,0,0,0,1,5,4,15,0004-00-0000-91.png,0001-00-0009-43.png
14,819,1,1445365817250,1445365817725,427,449,0,0,0,1,4,3,14,0004-00-0006-11.png,0005-00-0000-60.png
14,820,1,1445365818769,1445365819208,337,449,0,0,0,4,3,1,43,0005-00-0000-88.png,0003-00-0006-93.png
14,821,0,1445365820329,1445365821297,888,543,0,0,0,5,3,2,53,0001-00-0004-62.png,0003-00-0000-77.png
14,822,1,1445365822269,1445365822709,410,445,0,0,0,2,1,1,21,0002-00-0007-07.png,0004-00-0000-74.png
14,823,1,1445365823732,1445365824253,898,431,0,0,0,3,1,2,31,0003-00-0004-62.png,0004-00-0009-26.png
14,824,1,1445365825438,1445365825931,916,441,0,0,0,1,4,3,14,0004-00-0005-79.png,0005-00-0004-69.png
14,825,1,1445365826929,1445365827367,393,418,0,0,0,2,4,2,24,0002-00-0004-71.png,0005-00-0002-67.png
14,826,1,1445365828352,1445365828820,401,448,0,0,0,4,1,3,41,0005-00-0009-77.png,0004-00-0005-48.png
14,827,1,1445365829911,1445365830339,427,449,0,0,0,4,5,1,45,0005-00-0001-43.png,0001-00-0004-36.png
14,828,0,1445365833393,1445365833440,523,503,0,0,0,3,5,2,35,0003-00-0009-30.png,0001-00-0008-08.png
14,829,1,1445365836300,1445365836883,401,410,0,0,0,3,2,1,32,0003-00-0001-69.png,0002-00-0001-41.png
14,830,0,1445365837930,1445365838429,389,445,0,0,0,4,1,3,41,0005-00-0004-46.png,0004-00-0004-10.png
14,831,0,1445365839365,1445365839845,879,532,0,0,0,3,5,2,35,0003-00-0004-64.png,0001-00-0002-59.png
14,832,1,1445365840894,1445365841400,407,433,0,0,0,2,1,1,21,0002-00-0008-28.png,0004-00-0000-38.png
14,833,1,1445365844236,1445365844663,928,391,0,0,0,1,4,3,14,0004-00-0005-62.png,0005-00-0002-04.png
14,834,1,1445365845503,1445365846016,339,475,0,0,0,2,4,2,24,0002-00-0001-32.png,0005-00-0000-30.png
14,835,1,1445365847076,1445365847620,913,483,0,0,0,5,2,3,52,0001-00-0004-12.png,0002-00-0009-55.png
14,836,0,1445365848616,1445365849182,857,474,0,0,0,5,4,1,54,0001-00-0007-99.png,0005-00-0005-28.png
14,837,1,1445365852344,1445365852831,899,412,0,0,0,1,4,3,14,0004-00-0009-53.png,0005-00-0003-42.png
14,838,1,1445365853753,1445365854216,376,410,0,0,0,2,4,2,24,0002-00-0008-92.png,0005-00-0003-64.png
14,839,0,1445365855206,1445365855750,895,441,0,0,0,1,4,3,14,0004-00-0000-16.png,0005-00-0003-56.png
14,840,0,1445365856749,1445365857223,388,423,0,0,0,4,3,1,43,0005-00-0000-01.png,0003-00-0003-48.png
14,841,0,1445365858414,1445365858904,900,411,0,0,0,4,5,1,45,0005-00-0007-71.png,0001-00-0007-88.png
14,842,1,1445365860125,1445365860626,314,456,0,0,0,2,5,3,25,0002-00-0000-29.png,0001-00-0000-69.png
14,843,0,1445365861633,1445365862106,401,436,0,0,0,4,3,1,43,0005-00-0004-90.png,0003-00-0004-53.png
14,844,0,1445365865067,1445365865560,401,384,0,0,0,3,5,2,35,0003-00-0008-69.png,0001-00-0005-02.png
14,845,1,1445365866586,1445365867100,913,449,0,0,0,3,1,2,31,0003-00-0002-09.png,0004-00-0004-00.png
14,846,0,1445365868246,1445365868669,401,423,0,0,0,3,5,2,35,0003-00-0005-36.png,0001-00-0001-30.png
14,847,1,1445365869675,1445365870201,882,417,0,0,0,2,1,1,21,0002-00-0009-77.png,0004-00-0005-00.png
14,848,1,1445365871358,1445365871829,376,436,0,0,0,3,1,2,31,0003-00-0000-83.png,0004-00-0005-73.png
14,849,1,1445365872880,1445365873292,325,450,0,0,0,3,4,1,34,0003-00-0001-02.png,0005-00-0004-11.png
14,850,1,1445365874278,1445365874815,876,435,0,0,0,5,2,3,52,0001-00-0003-30.png,0002-00-0005-76.png
14,851,0,1445365875841,1445365876476,901,410,0,0,0,1,4,3,14,0004-00-0007-77.png,0005-00-0006-06.png
14,852,0,1445365879507,1445365879943,901,398,0,0,0,2,1,1,21,0002-00-0003-70.png,0004-00-0000-05.png
14,853,0,1445365880998,1445365881442,383,419,0,0,0,4,5,1,45,0005-00-0003-87.png,0001-00-0002-57.png
14,854,0,1445365882450,1445365883186,918,384,0,0,0,5,4,1,54,0001-00-0000-61.png,0005-00-0006-66.png
14,855,0,1445365884239,1445365884799,870,524,0,0,0,4,3,1,43,0005-00-0000-69.png,0003-00-0005-44.png
14,856,1,1445365885802,1445365886896,427,358,0,0,0,5,1,4,51,0001-00-0008-00.png,0004-00-0003-79.png
14,857,1,1445365887987,1445365888466,394,445,0,0,0,3,4,1,34,0003-00-0009-88.png,0005-00-0004-34.png
14,858,1,1445365889476,1445365890005,876,424,0,0,0,4,2,2,42,0005-00-0008-86.png,0002-00-0006-69.png
14,859,1,1445365890986,1445365891511,888,423,0,0,0,2,3,1,23,0002-00-0001-36.png,0003-00-0005-68.png
14,860,1,1445365894557,1445365894645,516,558,0,0,0,3,2,1,32,0003-00-0002-47.png,0002-00-0007-25.png
14,861,0,1445365897575,1445365897603,505,401,0,0,0,3,1,2,31,0003-00-0000-16.png,0004-00-0003-36.png
14,862,0,1445365898741,1445365899228,896,419,0,0,0,4,5,1,45,0005-00-0007-57.png,0001-00-0001-11.png
14,863,1,1445365900281,1445365900753,376,564,0,0,0,5,1,4,51,0001-00-0006-68.png,0004-00-0000-35.png
14,864,1,1445365901752,1445365902285,878,443,0,0,0,4,2,2,42,0005-00-0003-71.png,0002-00-0006-26.png
14,865,1,1445365903454,1445365903973,876,443,0,0,0,4,2,2,42,0005-00-0004-11.png,0002-00-0000-13.png
14,866,1,1445365906839,1445365907348,378,385,0,0,0,2,5,3,25,0002-00-0001-47.png,0001-00-0003-93.png
14,867,1,1445365908900,1445365909404,939,410,0,0,0,1,3,2,13,0004-00-0007-47.png,0003-00-0001-01.png
14,868,1,1445365912435,1445365912961,870,497,0,0,0,3,1,2,31,0003-00-0003-55.png,0004-00-0005-22.png
14,869,1,1445365914018,1445365914557,404,546,0,0,0,1,2,1,12,0004-00-0009-77.png,0002-00-0001-50.png
14,870,1,1445365917426,1445365917890,351,374,0,0,0,1,5,4,15,0004-00-0008-44.png,0001-00-0003-52.png
14,871,0,1445365918808,1445365919645,407,398,0,0,0,4,3,1,43,0005-00-0003-40.png,0003-00-0005-32.png
14,872,0,1445365922701,1445365922729,510,519,0,0,0,1,2,1,12,0004-00-0006-98.png,0002-00-0007-50.png
14,873,1,1445365925793,1445365925809,515,409,0,0,0,3,4,1,34,0003-00-0007-43.png,0005-00-0009-88.png
14,874,1,1445365929363,1445365929847,878,445,0,0,0,1,3,2,13,0004-00-0005-51.png,0003-00-0004-24.png
14,875,1,1445365931013,1445365931452,401,423,0,0,0,1,5,4,15,0004-00-0000-54.png,0001-00-0004-14.png
14,876,1,1445365932522,1445365933009,325,410,0,0,0,3,2,1,32,0003-00-0002-06.png,0002-00-0009-75.png
14,877,0,1445365934103,1445365934578,924,429,0,0,0,3,4,1,34,0003-00-0009-64.png,0005-00-0004-43.png
14,878,1,1445365935606,1445365936111,925,438,0,0,0,2,4,2,24,0002-00-0004-31.png,0005-00-0000-01.png
14,879,0,1445365937155,1445365937654,343,447,0,0,0,5,2,3,52,0001-00-0007-96.png,0002-00-0004-36.png
14,880,1,1445365938717,1445365939178,401,435,0,0,0,5,1,4,51,0001-00-0007-62.png,0004-00-0002-84.png
14,881,0,1445365940186,1445365941503,902,439,0,0,0,1,2,1,12,0004-00-0003-91.png,0002-00-0002-82.png
14,882,1,1445365942492,1445365942930,415,449,0,0,0,5,1,4,51,0001-00-0004-57.png,0004-00-0002-89.png
14,883,1,1445365943933,1445365944357,313,449,0,0,0,3,1,2,31,0003-00-0007-83.png,0004-00-0003-25.png
14,884,1,1445365945333,1445365945858,351,451,0,0,0,2,3,1,23,0002-00-0009-08.png,0003-00-0005-87.png
14,885,1,1445365946984,1445365947498,889,454,0,0,0,5,3,2,53,0001-00-0006-21.png,0003-00-0004-69.png
14,886,1,1445365948614,1445365949128,330,463,0,0,0,1,3,2,13,0004-00-0006-36.png,0003-00-0005-97.png
14,887,1,1445365950035,1445365950563,909,415,0,0,0,4,1,3,41,0005-00-0008-96.png,0004-00-0003-74.png
14,888,1,1445365951637,1445365952188,886,424,0,0,0,5,3,2,53,0001-00-0009-53.png,0003-00-0005-70.png
14,889,1,1445365953236,1445365953818,345,461,0,0,0,1,5,4,15,0004-00-0001-06.png,0001-00-0000-83.png
14,890,1,1445365954887,1445365956283,921,394,0,0,0,5,3,2,53,0001-00-0006-50.png,0003-00-0003-65.png
14,891,0,1445365957351,1445365957784,381,411,0,0,0,4,5,1,45,0005-00-0008-49.png,0001-00-0002-63.png
14,892,1,1445365958754,1445365959270,876,409,0,0,0,3,1,2,31,0003-00-0003-57.png,0004-00-0005-82.png
14,893,1,1445365960330,1445365960815,868,438,0,0,0,2,5,3,25,0002-00-0000-23.png,0001-00-0006-13.png
14,894,1,1445365962000,1445365962495,358,422,0,0,0,4,1,3,41,0005-00-0008-60.png,0004-00-0002-18.png
14,895,0,1445365963603,1445365964110,321,440,0,0,0,4,3,1,43,0005-00-0001-53.png,0003-00-0009-56.png
14,896,1,1445365965241,1445365965818,877,472,0,0,0,4,5,1,45,0005-00-0002-01.png,0001-00-0008-51.png
14,897,1,1445365967141,1445365967641,385,416,0,0,0,3,1,2,31,0003-00-0000-87.png,0004-00-0005-32.png
14,898,1,1445365968773,1445365969348,895,498,0,0,0,3,4,1,34,0003-00-0004-72.png,0005-00-0005-70.png
14,899,0,1445365970472,1445365971043,901,436,0,0,0,5,4,1,54,0001-00-0005-58.png,0005-00-0000-05.png
14,900,0,1445365972141,1445365972597,389,436,0,0,0,3,5,2,35,0003-00-0005-80.png,0001-00-0006-08.png
14,901,0,1445365973630,1445365974156,862,528,0,0,0,1,4,3,14,0004-00-0006-45.png,0005-00-0007-83.png
14,902,1,1445365975462,1445365976024,888,475,0,0,0,1,3,2,13,0004-00-0004-82.png,0003-00-0003-92.png
14,903,1,1445365979057,1445365979109,513,501,0,0,0,3,2,1,32,0003-00-0003-03.png,0002-00-0001-30.png
14,904,0,1445365982208,1445365982649,323,394,0,0,0,5,2,3,52,0001-00-0002-09.png,0002-00-0001-36.png
14,905,0,1445365983733,1445365984177,393,418,0,0,0,3,5,2,35,0003-00-0002-62.png,0001-00-0004-83.png
14,906,0,1445365985351,1445365985883,352,447,0,0,0,5,4,1,54,0001-00-0002-42.png,0005-00-0007-29.png
14,907,1,1445365989116,1445365989588,286,448,0,0,0,4,2,2,42,0005-00-0002-75.png,0002-00-0004-42.png
14,908,1,1445365990606,1445365991105,877,518,0,0,0,5,1,4,51,0001-00-0001-99.png,0004-00-0002-27.png
14,909,0,1445365992119,1445365992622,903,418,0,0,0,3,4,1,34,0003-00-0005-69.png,0005-00-0007-30.png
14,910,1,1445365993659,1445365994628,919,456,0,0,0,5,2,3,52,0001-00-0001-83.png,0002-00-0002-81.png
14,911,1,1445365995818,1445365996321,339,496,0,0,0,1,5,4,15,0004-00-0007-59.png,0001-00-0001-83.png
14,912,1,1445365997657,1445365998158,902,417,0,0,0,1,5,4,15,0004-00-0009-77.png,0001-00-0000-79.png
14,913,1,1445366001184,1445366001617,341,454,0,0,0,3,4,1,34,0003-00-0003-56.png,0005-00-0005-23.png
14,914,1,1445366004811,1445366005275,304,410,0,0,0,1,3,2,13,0004-00-0007-65.png,0003-00-0005-31.png
14,915,1,1445366006184,1445366006667,386,550,0,0,0,1,3,2,13,0004-00-0003-65.png,0003-00-0003-87.png
14,916,1,1445366007685,1445366008186,878,520,0,0,0,2,1,1,21,0002-00-0006-60.png,0004-00-0007-63.png
14,917,1,1445366009268,1445366009803,926,397,0,0,0,4,5,1,45,0005-00-0004-62.png,0001-00-0008-64.png
14,918,1,1445366010733,1445366011224,427,462,0,0,0,2,5,3,25,0002-00-0005-93.png,0001-00-0000-95.png
14,919,1,1445366012395,1445366012895,912,424,0,0,0,2,4,2,24,0002-00-0004-19.png,0005-00-0003-40.png
14,920,0,1445366013893,1445366014395,872,432,0,0,0,5,3,2,53,0001-00-0008-32.png,0003-00-0005-58.png
14,921,1,1445366019183,1445366019623,926,383,0,0,0,5,2,3,52,0001-00-0009-60.png,0002-00-0004-63.png
14,922,1,1445366022761,1445366022789,496,429,0,0,0,5,4,1,54,0001-00-0009-75.png,0005-00-0002-94.png
14,923,1,1445366025800,1445366026303,314,439,0,0,0,4,3,1,43,0005-00-0009-27.png,0003-00-0006-86.png
14,924,1,1445366027189,1445366027720,878,506,0,0,0,2,5,3,25,0002-00-0006-04.png,0001-00-0000-19.png
14,925,0,1445366028760,1445366029368,311,462,0,0,0,1,5,4,15,0004-00-0005-27.png,0001-00-0001-81.png
14,926,1,1445366032501,1445366032941,382,378,0,0,0,4,2,2,42,0005-00-0007-00.png,0002-00-0005-48.png
14,927,1,1445366033990,1445366034506,350,476,0,0,0,1,5,4,15,0004-00-0004-34.png,0001-00-0007-41.png
14,928,0,1445366035731,1445366036813,862,345,0,0,0,3,4,1,34,0003-00-0003-01.png,0005-00-0007-77.png
14,929,1,1445366037817,1445366038256,401,435,0,0,0,3,2,1,32,0003-00-0000-00.png,0002-00-0002-74.png
14,930,1,1445366039259,1445366039801,874,430,0,0,0,4,5,1,45,0005-00-0009-39.png,0001-00-0006-62.png
14,931,1,1445366040938,1445366041370,382,455,0,0,0,2,4,2,24,0002-00-0002-50.png,0005-00-0004-36.png
14,932,1,1445366044484,1445366044908,901,410,0,0,0,2,3,1,23,0002-00-0009-69.png,0003-00-0003-13.png
14,933,1,1445366045775,1445366046300,886,450,0,0,0,4,1,3,41,0005-00-0007-82.png,0004-00-0002-56.png
14,934,1,1445366047328,1445366047833,337,432,0,0,0,4,5,1,45,0005-00-0007-66.png,0001-00-0001-16.png
14,935,1,1445366048826,1445366049335,415,437,0,0,0,2,3,1,23,0002-00-0002-57.png,0003-00-0008-65.png
14,936,1,1445366050359,1445366050783,376,410,0,0,0,2,3,1,23,0002-00-0001-46.png,0003-00-0005-18.png
14,937,1,1445366051851,1445366052349,859,500,0,0,0,2,1,1,21,0002-00-0002-92.png,0004-00-0006-82.png
14,938,1,1445366053360,1445366053885,315,480,0,0,0,4,2,2,42,0005-00-0001-75.png,0002-00-0001-82.png
14,939,1,1445366054930,1445366055465,913,410,0,0,0,2,3,1,23,0002-00-0003-24.png,0003-00-0006-57.png
14,940,0,1445366058576,1445366058704,504,541,0,0,0,3,5,2,35,0003-00-0007-51.png,0001-00-0000-35.png
14,941,1,1445366060208,1445366060816,874,554,0,0,0,3,4,1,34,0003-00-0002-34.png,0005-00-0006-26.png
14,942,1,1445366063927,1445366064997,925,375,0,0,0,1,3,2,13,0004-00-0009-03.png,0003-00-0001-89.png
14,943,0,1445366065874,1445366066448,875,488,0,0,0,4,1,3,41,0005-00-0007-69.png,0004-00-0001-59.png
14,944,1,1445366067406,1445366067869,401,423,0,0,0,4,2,2,42,0005-00-0001-73.png,0002-00-0007-55.png
14,945,0,1445366070940,1445366071347,930,401,0,0,0,4,2,2,42,0005-00-0006-12.png,0002-00-0003-08.png
14,946,0,1445366072253,1445366073242,900,528,0,0,0,3,5,2,35,0003-00-0008-17.png,0001-00-0007-17.png
14,947,0,1445366074391,1445366074894,922,420,0,0,0,4,3,1,43,0005-00-0000-71.png,0003-00-0002-86.png
14,948,0,1445366078217,1445366078708,859,374,0,0,0,2,1,1,21,0002-00-0007-23.png,0004-00-0000-20.png
14,949,0,1445366079857,1445366080318,941,397,0,0,0,4,3,1,43,0005-00-0006-93.png,0003-00-0003-65.png
14,950,1,1445366081775,1445366082250,357,498,0,0,0,2,4,2,24,0002-00-0003-31.png,0005-00-0007-39.png
14,951,1,1445366083406,1445366083958,904,498,0,0,0,5,4,1,54,0001-00-0009-64.png,0005-00-0002-34.png
14,952,1,1445366087287,1445366087793,313,417,0,0,0,5,2,3,52,0001-00-0008-77.png,0002-00-0000-37.png
14,953,0,1445366088742,1445366089224,392,547,0,0,0,5,3,2,53,0001-00-0005-00.png,0003-00-0003-77.png
14,954,1,1445366090294,1445366090719,401,462,0,0,0,5,1,4,51,0001-00-0008-12.png,0004-00-0003-18.png
14,955,1,1445366091815,1445366092268,340,469,0,0,0,2,5,3,25,0002-00-0002-99.png,0001-00-0007-43.png
14,956,1,1445366093443,1445366093922,905,401,0,0,0,1,2,1,12,0004-00-0000-28.png,0002-00-0000-97.png
14,957,0,1445366094996,1445366095538,878,413,0,0,0,5,2,3,52,0001-00-0009-02.png,0002-00-0001-00.png
14,958,1,1445366096536,1445366096999,273,541,0,0,0,5,2,3,52,0001-00-0000-72.png,0002-00-0007-54.png
14,959,0,1445366098561,1445366099041,890,445,0,0,0,5,1,4,51,0001-00-0005-47.png,0004-00-0002-57.png
14,960,1,1445366100183,1445366100687,899,430,0,0,0,5,4,1,54,0001-00-0001-44.png,0005-00-0000-37.png
14,961,1,1445366101615,1445366102124,878,416,0,0,0,2,1,1,21,0002-00-0008-69.png,0004-00-0002-70.png
14,962,1,1445366103168,1445366103689,356,513,0,0,0,3,2,1,32,0003-00-0008-90.png,0002-00-0004-36.png
14,963,0,1445366106701,1445366107169,926,436,0,0,0,4,5,1,45,0005-00-0001-18.png,0001-00-0006-08.png
14,964,1,1445366108127,1445366108576,318,448,0,0,0,4,3,1,43,0005-00-0002-70.png,0003-00-0006-93.png
14,965,0,1445366109785,1445366110287,906,458,0,0,0,1,2,1,12,0004-00-0009-84.png,0002-00-0008-09.png
14,966,1,1445366114305,1445366114771,299,424,0,0,0,2,5,3,25,0002-00-0000-94.png,0001-00-0000-94.png
14,967,0,1445366115846,1445366116352,888,449,0,0,0,3,1,2,31,0003-00-0009-01.png,0004-00-0001-14.png
14,968,1,1445366117318,1445366117767,376,436,0,0,0,5,2,3,52,0001-00-0008-42.png,0002-00-0006-51.png
14,969,0,1445366118732,1445366119283,894,436,0,0,0,3,4,1,34,0003-00-0001-79.png,0005-00-0001-45.png
14,970,0,1445366120219,1445366120654,389,436,0,0,0,5,3,2,53,0001-00-0003-29.png,0003-00-0005-99.png
14,971,1,1445366121601,1445366122155,344,473,0,0,0,1,5,4,15,0004-00-0004-82.png,0001-00-0009-42.png
14,972,1,1445366123202,1445366123703,900,436,0,0,0,2,1,1,21,0002-00-0009-11.png,0004-00-0009-96.png
14,973,1,1445366124774,1445366125298,442,452,0,0,0,4,2,2,42,0005-00-0002-84.png,0002-00-0002-50.png
14,974,1,1445366126393,1445366126828,330,463,0,0,0,3,1,2,31,0003-00-0008-60.png,0004-00-0006-95.png
14,975,0,1445366127726,1445366128255,883,424,0,0,0,2,1,1,21,0002-00-0007-67.png,0004-00-0004-62.png
14,976,1,1445366129235,1445366130236,877,434,0,0,0,4,1,3,41,0005-00-0000-52.png,0004-00-0009-50.png
14,977,0,1445366131389,1445366131929,927,445,0,0,0,2,3,1,23,0002-00-0003-53.png,0003-00-0009-94.png
14,978,1,1445366133002,1445366133697,874,370,0,0,0,2,4,2,24,0002-00-0000-48.png,0005-00-0000-21.png
14,979,1,1445366134742,1445366136361,898,391,0,0,0,3,2,1,32,0003-00-0002-48.png,0002-00-0005-76.png
14,980,0,1445366137345,1445366137808,340,457,0,0,0,1,2,1,12,0004-00-0006-78.png,0002-00-0000-29.png
14,981,1,1445366138952,1445366139493,343,478,0,0,0,1,4,3,14,0004-00-0004-80.png,0005-00-0008-01.png
14,982,0,1445366140555,1445366141070,873,511,0,0,0,2,3,1,23,0002-00-0002-79.png,0003-00-0006-52.png
14,983,1,1445366142308,1445366142814,344,488,0,0,0,1,5,4,15,0004-00-0005-11.png,0001-00-0009-82.png
14,984,0,1445366143930,1445366144443,389,540,0,0,0,3,5,2,35,0003-00-0001-91.png,0001-00-0001-96.png
14,985,0,1445366145484,1445366147123,869,369,0,0,0,5,3,2,53,0001-00-0005-04.png,0003-00-0002-77.png
14,986,1,1445366148248,1445366148786,905,541,0,0,0,5,1,4,51,0001-00-0009-32.png,0004-00-0005-87.png
14,987,1,1445366149769,1445366150316,867,493,0,0,0,1,4,3,14,0004-00-0003-91.png,0005-00-0005-45.png
14,988,1,1445366151331,1445366151802,361,479,0,0,0,2,3,1,23,0002-00-0002-12.png,0003-00-0000-05.png
14,989,0,1445366153053,1445366153572,317,445,0,0,0,5,4,1,54,0001-00-0000-59.png,0005-00-0004-45.png
