subject_id,trial,correct_response,stim_time,response_time,x_coord,y_coord,trial_timeout,timeout_time,interTrial_timeout,left_rank,right_rank,distance,joint_rank,left_image,right_image
00000014,1,1,1445007465510,1445007466349,938,437,0,0,0,3,1,2,31,0003-00-0000-05.png,0004-00-0005-06.png
00000014,2,0,1445007467329,1445007467838,879,493,0,0,0,3,4,1,34,0003-00-0001-02.png,0005-00-0002-58.png
00000014,3,1,1445007470689,1445007471559,977,345,0,0,0,5,2,3,52,0001-00-0000-48.png,0002-00-0000-38.png
00000014,4,1,1445007472501,1445007472966,320,351,0,0,0,2,3,1,23,0002-00-0001-31.png,0003-00-0006-62.png
00000014,5,1,1445007473849,1445007474366,386,388,0,0,0,1,2,1,12,0004-00-0001-09.png,0002-00-0001-30.png
00000014,6,1,1445007475311,1445007475836,929,449,0,0,0,3,2,1,32,0003-00-0001-11.png,0002-00-0009-91.png
00000014,7,1,1445007476731,1445007477200,295,420,0,0,0,2,5,3,25,0002-00-0003-25.png,0001-00-0008-85.png
00000014,8,1,1445007478081,1445007478519,322,405,0,0,0,1,3,2,13,0004-00-0002-92.png,0003-00-0002-73.png
00000014,9,1,1445007479425,1445007479855,331,413,0,0,0,1,4,3,14,0004-00-0008-91.png,0005-00-0008-22.png
00000014,10,1,1445007480741,1445007481259,931,392,0,0,0,4,2,2,42,0005-00-0001-79.png,0002-00-0009-49.png
00000014,11,1,1445007482197,1445007482675,345,384,0,0,0,4,5,1,45,0005-00-0000-43.png,0001-00-0001-86.png
00000014,12,1,1445007483875,1445007484304,922,472,0,0,0,5,1,4,51,0001-00-0008-47.png,0004-00-0006-93.png
00000014,13,1,1445007485239,1445007485706,925,411,0,0,0,4,3,1,43,0005-00-0009-70.png,0003-00-0006-80.png
00000014,14,1,1445007486647,1445007487195,902,492,0,0,0,2,1,1,21,0002-00-0003-51.png,0004-00-0007-11.png
00000014,15,1,1445007488230,1445007488765,941,396,0,0,0,4,1,3,41,0005-00-0003-64.png,0004-00-0004-73.png
00000014,16,1,1445007489863,1445007490377,350,436,0,0,0,2,4,2,24,0002-00-0002-42.png,0005-00-0003-52.png
00000014,17,0,1445007491370,1445007491814,366,495,0,0,0,5,4,1,54,0001-00-0001-69.png,0005-00-0006-28.png
00000014,18,1,1445007494695,1445007494703,503,414,0,0,0,1,5,4,15,0004-00-0009-78.png,0001-00-0002-59.png
00000014,19,0,1445007495930,1445007496448,922,410,0,0,0,3,5,2,35,0003-00-0002-16.png,0001-00-0004-21.png
00000014,20,1,1445007499278,1445007499822,964,345,0,0,0,5,3,2,53,0001-00-0006-28.png,0003-00-0000-07.png
00000014,21,1,1445007500741,1445007501247,925,476,0,0,0,5,2,3,52,0001-00-0004-82.png,0002-00-0001-41.png
00000014,22,1,1445007502336,1445007502762,366,497,0,0,0,1,5,4,15,0004-00-0001-12.png,0001-00-0005-97.png
00000014,23,1,1445007503773,1445007504281,900,489,0,0,0,5,1,4,51,0001-00-0003-28.png,0004-00-0009-58.png
00000014,24,1,1445007505354,1445007505826,338,425,0,0,0,2,4,2,24,0002-00-0007-39.png,0005-00-0000-46.png
00000014,25,0,1445007506835,1445007507326,906,417,0,0,0,1,4,3,14,0004-00-0001-16.png,0005-00-0005-22.png
00000014,26,1,1445007510189,1445007510577,390,449,0,0,0,2,3,1,23,0002-00-0003-62.png,0003-00-0008-65.png
00000014,27,0,1445007511577,1445007512071,926,383,0,0,0,1,2,1,12,0004-00-0000-18.png,0002-00-0006-83.png
00000014,28,1,1445007516050,1445007516571,345,365,0,0,0,4,5,1,45,0005-00-0002-73.png,0001-00-0003-03.png
00000014,29,1,1445007517632,1445007518154,935,388,0,0,0,4,2,2,42,0005-00-0004-12.png,0002-00-0006-50.png
00000014,30,1,1445007519200,1445007519667,321,453,0,0,0,1,3,2,13,0004-00-0005-99.png,0003-00-0001-85.png
00000014,31,0,1445007520671,1445007521138,347,440,0,0,0,2,1,1,21,0002-00-0009-32.png,0004-00-0007-47.png
00000014,32,0,1445007524167,1445007524595,928,414,0,0,0,3,5,2,35,0003-00-0000-14.png,0001-00-0002-77.png
00000014,33,0,1445007527709,1445007528100,900,487,0,0,0,3,4,1,34,0003-00-0005-73.png,0005-00-0008-35.png
00000014,34,1,1445007531176,1445007531609,929,390,0,0,0,3,2,1,32,0003-00-0004-51.png,0002-00-0002-41.png
00000014,35,1,1445007532507,1445007533027,906,365,0,0,0,5,3,2,53,0001-00-0002-25.png,0003-00-0002-94.png
00000014,36,1,1445007534009,1445007534470,875,410,0,0,0,4,3,1,43,0005-00-0000-46.png,0003-00-0002-39.png
00000014,37,0,1445007535510,1445007535952,362,492,0,0,0,3,1,2,31,0003-00-0007-06.png,0004-00-0009-04.png
00000014,38,0,1445007538818,1445007539275,265,340,0,0,0,4,1,3,41,0005-00-0002-19.png,0004-00-0002-59.png
00000014,39,1,1445007542427,1445007542850,936,421,0,0,0,5,4,1,54,0001-00-0009-08.png,0005-00-0002-94.png
00000014,40,1,1445007543853,1445007544260,318,426,0,0,0,2,5,3,25,0002-00-0007-27.png,0001-00-0009-41.png
00000014,41,0,1445007545320,1445007545742,361,504,0,0,0,5,3,2,53,0001-00-0002-35.png,0003-00-0005-82.png
00000014,42,1,1445007548850,1445007549274,303,404,0,0,0,2,5,3,25,0002-00-0002-98.png,0001-00-0000-94.png
00000014,43,1,1445007550469,1445007550934,922,472,0,0,0,3,2,1,32,0003-00-0006-85.png,0002-00-0002-74.png
00000014,44,1,1445007552458,1445007552947,944,377,0,0,0,4,1,3,41,0005-00-0003-91.png,0004-00-0003-29.png
00000014,45,1,1445007554042,1445007554500,311,424,0,0,0,2,4,2,24,0002-00-0004-71.png,0005-00-0004-05.png
00000014,46,0,1445007555812,1445007556468,357,410,0,0,0,4,3,1,43,0005-00-0008-10.png,0003-00-0006-55.png
00000014,47,0,1445007559320,1445007559789,928,443,0,0,0,4,5,1,45,0005-00-0007-62.png,0001-00-0004-42.png
00000014,48,0,1445007562643,1445007563542,957,366,0,0,0,3,5,2,35,0003-00-0000-55.png,0001-00-0007-44.png
00000014,49,1,1445007566586,1445007566999,947,393,0,0,0,3,1,2,31,0003-00-0009-39.png,0004-00-0005-63.png
00000014,50,1,1445007567986,1445007568477,944,390,0,0,0,4,2,2,42,0005-00-0006-45.png,0002-00-0004-74.png
00000014,51,1,1445007569522,1445007570001,370,512,0,0,0,1,3,2,13,0004-00-0000-59.png,0003-00-0000-67.png
00000014,52,1,1445007571023,1445007571530,927,409,0,0,0,2,1,1,21,0002-00-0005-95.png,0004-00-0005-47.png
00000014,53,0,1445007572594,1445007573035,341,428,0,0,0,5,4,1,54,0001-00-0004-27.png,0005-00-0007-66.png
00000014,54,1,1445007575932,1445007576348,321,326,0,0,0,1,2,1,12,0004-00-0002-83.png,0002-00-0007-09.png
00000014,55,1,1445007577404,1445007577849,312,405,0,0,0,1,4,3,14,0004-00-0002-54.png,0005-00-0003-84.png
00000014,56,1,1445007578914,1445007579366,299,436,0,0,0,1,5,4,15,0004-00-0004-35.png,0001-00-0006-63.png
00000014,57,1,1445007580475,1445007580958,287,437,0,0,0,2,3,1,23,0002-00-0003-44.png,0003-00-0002-67.png
00000014,58,1,1445007582076,1445007582585,913,384,0,0,0,5,2,3,52,0001-00-0000-41.png,0002-00-0006-69.png
00000014,59,1,1445007584321,1445007584768,926,384,0,0,0,5,1,4,51,0001-00-0008-51.png,0004-00-0005-68.png
00000014,60,1,1445007585852,1445007586344,381,542,0,0,0,3,4,1,34,0003-00-0005-46.png,0005-00-0007-38.png
00000014,61,0,1445007587481,1445007587982,402,548,0,0,0,5,3,2,53,0001-00-0006-04.png,0003-00-0003-65.png
00000014,62,1,1445007590918,1445007591367,945,391,0,0,0,4,2,2,42,0005-00-0006-91.png,0002-00-0007-67.png
00000014,63,1,1445007592467,1445007592919,876,476,0,0,0,3,1,2,31,0003-00-0005-44.png,0004-00-0003-19.png
00000014,64,1,1445007593971,1445007594513,904,480,0,0,0,4,1,3,41,0005-00-0006-50.png,0004-00-0001-21.png
00000014,65,1,1445007595521,1445007596018,350,410,0,0,0,1,3,2,13,0004-00-0001-77.png,0003-00-0002-26.png
00000014,66,1,1445007597131,1445007597589,376,513,0,0,0,2,5,3,25,0002-00-0000-17.png,0001-00-0002-56.png
00000014,67,1,1445007598728,1445007599165,376,423,0,0,0,2,3,1,23,0002-00-0007-95.png,0003-00-0006-38.png
00000014,68,0,1445007600282,1445007600809,925,383,0,0,0,4,5,1,45,0005-00-0002-09.png,0001-00-0009-45.png
00000014,69,1,1445007603802,1445007604238,950,430,0,0,0,5,2,3,52,0001-00-0006-52.png,0002-00-0002-53.png
00000014,70,1,1445007605273,1445007605733,376,475,0,0,0,2,4,2,24,0002-00-0000-70.png,0005-00-0000-48.png
00000014,71,1,1445007607200,1445007607693,926,397,0,0,0,3,2,1,32,0003-00-0000-68.png,0002-00-0004-93.png
00000014,72,1,1445007608710,1445007609243,903,414,0,0,0,5,1,4,51,0001-00-0007-62.png,0004-00-0004-24.png
00000014,73,1,1445007610341,1445007610935,361,398,0,0,0,3,4,1,34,0003-00-0001-19.png,0005-00-0004-73.png
00000014,74,0,1445007612042,1445007612583,879,401,0,0,0,3,5,2,35,0003-00-0007-81.png,0001-00-0001-66.png
00000014,75,0,1445007615531,1445007615982,903,507,0,0,0,1,2,1,12,0004-00-0000-70.png,0002-00-0001-96.png
00000014,76,0,1445007619017,1445007619435,409,418,0,0,0,5,4,1,54,0001-00-0004-52.png,0005-00-0009-88.png
00000014,77,1,1445007622266,1445007622718,350,371,0,0,0,1,5,4,15,0004-00-0008-85.png,0001-00-0005-76.png
00000014,78,1,1445007623650,1445007624201,877,494,0,0,0,2,1,1,21,0002-00-0002-98.png,0004-00-0000-32.png
00000014,79,1,1445007625190,1445007625632,364,527,0,0,0,1,4,3,14,0004-00-0009-45.png,0005-00-0005-28.png
00000014,80,1,1445007626797,1445007627259,904,464,0,0,0,4,3,1,43,0005-00-0004-77.png,0003-00-0007-06.png
00000014,81,1,1445007628312,1445007628779,380,493,0,0,0,1,4,3,14,0004-00-0001-53.png,0005-00-0000-00.png
00000014,82,1,1445007629933,1445007630365,388,422,0,0,0,3,4,1,34,0003-00-0001-53.png,0005-00-0001-03.png
00000014,83,0,1445007631472,1445007631985,926,408,0,0,0,1,2,1,12,0004-00-0000-10.png,0002-00-0000-27.png
00000014,84,0,1445007634920,1445007635357,927,460,0,0,0,1,3,2,13,0004-00-0006-79.png,0003-00-0003-45.png
00000014,85,1,1445007638707,1445007639143,938,371,0,0,0,5,2,3,52,0001-00-0008-69.png,0002-00-0005-47.png
00000014,86,0,1445007640100,1445007640556,333,402,0,0,0,2,1,1,21,0002-00-0007-64.png,0004-00-0002-86.png
00000014,87,1,1445007643976,1445007644380,311,368,0,0,0,2,5,3,25,0002-00-0003-62.png,0001-00-0005-47.png
00000014,88,1,1445007645366,1445007645863,930,401,0,0,0,3,1,2,31,0003-00-0000-55.png,0004-00-0001-27.png
00000014,89,1,1445007646927,1445007647445,875,476,0,0,0,4,2,2,42,0005-00-0008-19.png,0002-00-0009-95.png
00000014,90,1,1445007648468,1445007648910,328,408,0,0,0,1,5,4,15,0004-00-0007-75.png,0001-00-0005-21.png
00000014,91,0,1445007650013,1445007650529,401,410,0,0,0,5,4,1,54,0001-00-0002-50.png,0005-00-0000-97.png
00000014,92,1,1445007653568,1445007654000,912,398,0,0,0,3,2,1,32,0003-00-0001-57.png,0002-00-0004-42.png
00000014,93,0,1445007655098,1445007655543,376,397,0,0,0,5,3,2,53,0001-00-0008-91.png,0003-00-0007-48.png
00000014,94,0,1445007658376,1445007658888,895,488,0,0,0,3,5,2,35,0003-00-0008-13.png,0001-00-0001-85.png
00000014,95,0,1445007661805,1445007662224,928,356,0,0,0,2,4,2,24,0002-00-0003-01.png,0005-00-0000-77.png
00000014,96,0,1445007665114,1445007665548,925,401,0,0,0,4,5,1,45,0005-00-0004-13.png,0001-00-0004-53.png
00000014,97,1,1445007668853,1445007669254,965,395,0,0,0,5,1,4,51,0001-00-0009-69.png,0004-00-0002-83.png
00000014,98,1,1445007670194,1445007670638,329,402,0,0,0,2,3,1,23,0002-00-0006-96.png,0003-00-0008-89.png
00000014,99,1,1445007671646,1445007672152,899,438,0,0,0,4,3,1,43,0005-00-0005-94.png,0003-00-0002-04.png
00000014,100,1,1445007673147,1445007673622,931,375,0,0,0,4,1,3,41,0005-00-0007-83.png,0004-00-0005-16.png
00000014,101,0,1445007674814,1445007675239,335,436,0,0,0,3,2,1,32,0003-00-0005-46.png,0002-00-0006-05.png
00000014,102,0,1445007678286,1445007678689,928,388,0,0,0,4,5,1,45,0005-00-0007-50.png,0001-00-0006-97.png
00000014,103,0,1445007681642,1445007682157,966,345,0,0,0,2,4,2,24,0002-00-0006-75.png,0005-00-0008-08.png
00000014,104,0,1445007685021,1445007685449,412,476,0,0,0,5,3,2,53,0001-00-0006-53.png,0003-00-0009-59.png
00000014,105,1,1445007688504,1445007688983,943,457,0,0,0,3,1,2,31,0003-00-0003-91.png,0004-00-0008-69.png
00000014,106,1,1445007690053,1445007690665,358,429,0,0,0,1,5,4,15,0004-00-0003-94.png,0001-00-0008-31.png
00000014,107,0,1445007691764,1445007692225,906,486,0,0,0,1,2,1,12,0004-00-0008-85.png,0002-00-0003-17.png
00000014,108,1,1445007695191,1445007695621,929,389,0,0,0,4,3,1,43,0005-00-0009-58.png,0003-00-0004-80.png
00000014,109,1,1445007696642,1445007697147,928,402,0,0,0,4,1,3,41,0005-00-0001-44.png,0004-00-0006-78.png
00000014,110,1,1445007698283,1445007698778,930,375,0,0,0,4,2,2,42,0005-00-0008-06.png,0002-00-0000-82.png
00000014,111,0,1445007699902,1445007700344,350,384,0,0,0,5,2,3,52,0001-00-0007-83.png,0002-00-0009-83.png
00000014,112,0,1445007704831,1445007705333,325,413,0,0,0,5,4,1,54,0001-00-0000-90.png,0005-00-0002-31.png
00000014,113,0,1445007710864,1445007711335,885,477,0,0,0,1,4,3,14,0004-00-0002-05.png,0005-00-0000-42.png
00000014,114,1,1445007715265,1445007715687,283,394,0,0,0,1,3,2,13,0004-00-0002-83.png,0003-00-0003-11.png
00000014,115,0,1445007716677,1445007717191,349,451,0,0,0,5,1,4,51,0001-00-0002-58.png,0004-00-0000-79.png
00000014,116,1,1445007720117,1445007720561,934,460,0,0,0,2,1,1,21,0002-00-0009-59.png,0004-00-0005-77.png
00000014,117,1,1445007721498,1445007721942,325,421,0,0,0,2,5,3,25,0002-00-0005-10.png,0001-00-0001-01.png
00000014,118,0,1445007722945,1445007723467,945,390,0,0,0,3,4,1,34,0003-00-0000-40.png,0005-00-0001-99.png
00000014,119,1,1445007726337,1445007726786,273,370,0,0,0,2,3,1,23,0002-00-0001-11.png,0003-00-0006-86.png
00000014,120,0,1445007727885,1445007728371,913,423,0,0,0,3,5,2,35,0003-00-0005-04.png,0001-00-0006-20.png
00000014,121,0,1445007731406,1445007731442,478,399,0,0,0,2,1,1,21,0002-00-0006-41.png,0004-00-0006-01.png
00000014,122,0,1445007734565,1445007735016,884,406,0,0,0,1,3,2,13,0004-00-0007-87.png,0003-00-0001-46.png
00000014,123,1,1445007737936,1445007738401,904,419,0,0,0,3,1,2,31,0003-00-0003-26.png,0004-00-0004-37.png
00000014,124,1,1445007739333,1445007739815,900,461,0,0,0,3,2,1,32,0003-00-0002-47.png,0002-00-0002-64.png
00000014,125,1,1445007740949,1445007741412,873,459,0,0,0,5,1,4,51,0001-00-0000-40.png,0004-00-0005-32.png
00000014,126,0,1445007742459,1445007743015,905,349,0,0,0,2,4,2,24,0002-00-0003-66.png,0005-00-0000-34.png
00000014,127,1,1445007745888,1445007746350,315,455,0,0,0,2,5,3,25,0002-00-0003-49.png,0001-00-0002-48.png
00000014,128,1,1445007747355,1445007747858,929,390,0,0,0,4,3,1,43,0005-00-0007-20.png,0003-00-0008-45.png
00000014,129,1,1445007749037,1445007749531,388,515,0,0,0,2,3,1,23,0002-00-0008-26.png,0003-00-0000-03.png
00000014,130,1,1445007750738,1445007751154,325,384,0,0,0,1,4,3,14,0004-00-0004-62.png,0005-00-0006-42.png
00000014,131,0,1445007752526,1445007752967,325,425,0,0,0,5,2,3,52,0001-00-0006-67.png,0002-00-0004-44.png
00000014,132,1,1445007755956,1445007756000,478,418,0,0,0,4,5,1,45,0005-00-0008-01.png,0001-00-0003-02.png
00000014,133,1,1445007757055,1445007757604,903,391,0,0,0,5,3,2,53,0001-00-0002-47.png,0003-00-0002-75.png
00000014,134,1,1445007758738,1445007759233,871,366,0,0,0,4,1,3,41,0005-00-0003-80.png,0004-00-0007-22.png
00000014,135,1,1445007760308,1445007760812,873,456,0,0,0,5,4,1,54,0001-00-0003-25.png,0005-00-0006-13.png
00000014,136,1,1445007761999,1445007762469,344,440,0,0,0,3,5,2,35,0003-00-0002-34.png,0001-00-0008-72.png
00000014,137,1,1445007763668,1445007764168,341,396,0,0,0,1,5,4,15,0004-00-0005-58.png,0001-00-0001-24.png
00000014,138,0,1445007765527,1445007766041,907,421,0,0,0,3,4,1,34,0003-00-0004-62.png,0005-00-0005-76.png
00000014,139,1,1445007768976,1445007769428,363,377,0,0,0,1,2,1,12,0004-00-0004-55.png,0002-00-0000-35.png
00000014,140,1,1445007770833,1445007771344,924,406,0,0,0,4,2,2,42,0005-00-0004-52.png,0002-00-0002-55.png
00000014,141,1,1445007772421,1445007772904,862,358,0,0,0,4,1,3,41,0005-00-0006-07.png,0004-00-0000-46.png
00000014,142,1,1445007774203,1445007774660,401,424,0,0,0,1,5,4,15,0004-00-0005-79.png,0001-00-0005-71.png
00000014,143,0,1445007775974,1445007776512,865,492,0,0,0,1,3,2,13,0004-00-0008-32.png,0003-00-0007-25.png
00000014,144,1,1445007779410,1445007779825,888,358,0,0,0,4,2,2,42,0005-00-0005-11.png,0002-00-0003-66.png
00000014,145,0,1445007780950,1445007781504,332,432,0,0,0,5,4,1,54,0001-00-0002-72.png,0005-00-0009-41.png
00000014,146,1,1445007784358,1445007784798,913,398,0,0,0,3,2,1,32,0003-00-0007-77.png,0002-00-0006-75.png
00000014,147,0,1445007785927,1445007786441,914,501,0,0,0,1,2,1,12,0004-00-0005-11.png,0002-00-0008-87.png
00000014,148,1,1445007789530,1445007789998,930,401,0,0,0,3,1,2,31,0003-00-0001-21.png,0004-00-0007-27.png
00000014,149,0,1445007791001,1445007791445,366,528,0,0,0,2,1,1,21,0002-00-0007-67.png,0004-00-0001-59.png
00000014,150,1,1445007794457,1445007794896,862,332,0,0,0,5,2,3,52,0001-00-0003-88.png,0002-00-0004-36.png
00000014,151,0,1445007795852,1445007796346,902,413,0,0,0,2,5,3,25,0002-00-0009-59.png,0001-00-0004-33.png
00000014,152,1,1445007799490,1445007799989,350,391,0,0,0,2,3,1,23,0002-00-0005-46.png,0003-00-0000-46.png
00000014,153,1,1445007801071,1445007801710,381,452,0,0,0,3,4,1,34,0003-00-0000-29.png,0005-00-0009-63.png
00000014,154,1,1445007803236,1445007803677,386,397,0,0,0,2,4,2,24,0002-00-0005-00.png,0005-00-0002-58.png
00000014,155,0,1445007804717,1445007805226,923,406,0,0,0,3,5,2,35,0003-00-0008-74.png,0001-00-0002-93.png
00000014,156,1,1445007808255,1445007808693,288,396,0,0,0,4,5,1,45,0005-00-0009-29.png,0001-00-0002-60.png
00000014,157,0,1445007809796,1445007810241,344,436,0,0,0,5,3,2,53,0001-00-0009-02.png,0003-00-0004-98.png
00000014,158,1,1445007813172,1445007813236,517,427,0,0,0,1,4,3,14,0004-00-0004-46.png,0005-00-0008-48.png
00000014,159,1,1445007814429,1445007814902,902,416,0,0,0,4,3,1,43,0005-00-0005-54.png,0003-00-0002-47.png
00000014,160,1,1445007815909,1445007816395,925,386,0,0,0,5,1,4,51,0001-00-0005-32.png,0004-00-0007-50.png
00000014,161,0,1445007817490,1445007817920,907,400,0,0,0,1,5,4,15,0004-00-0006-78.png,0001-00-0009-72.png
00000014,162,1,1445007820888,1445007821477,904,427,0,0,0,5,3,2,53,0001-00-0003-95.png,0003-00-0005-83.png
00000014,163,1,1445007822563,1445007823015,317,411,0,0,0,2,5,3,25,0002-00-0005-82.png,0001-00-0008-10.png
00000014,164,1,1445007824134,1445007824585,899,491,0,0,0,3,1,2,31,0003-00-0003-73.png,0004-00-0005-47.png
00000014,165,1,1445007825735,1445007826259,901,536,0,0,0,3,2,1,32,0003-00-0009-91.png,0002-00-0003-05.png
00000014,166,1,1445007827450,1445007828022,258,358,0,0,0,1,4,3,14,0004-00-0009-97.png,0005-00-0007-77.png
00000014,167,0,1445007829187,1445007829732,924,407,0,0,0,3,4,1,34,0003-00-0002-02.png,0005-00-0001-14.png
00000014,168,1,1445007832624,1445007833032,412,405,0,0,0,1,3,2,13,0004-00-0004-80.png,0003-00-0009-62.png
00000014,169,0,1445007834143,1445007834714,349,338,0,0,0,2,1,1,21,0002-00-0007-06.png,0004-00-0008-46.png
00000014,170,1,1445007838182,1445007838770,407,528,0,0,0,4,5,1,45,0005-00-0008-49.png,0001-00-0009-82.png
00000014,171,1,1445007839980,1445007840457,905,427,0,0,0,5,4,1,54,0001-00-0006-35.png,0005-00-0008-41.png
00000014,172,1,1445007841632,1445007842146,925,411,0,0,0,5,1,4,51,0001-00-0001-39.png,0004-00-0001-17.png
00000014,173,0,1445007843470,1445007843920,901,391,0,0,0,2,3,1,23,0002-00-0003-76.png,0003-00-0009-66.png
00000014,174,1,1445007846760,1445007847253,268,394,0,0,0,2,4,2,24,0002-00-0001-18.png,0005-00-0006-80.png
00000014,175,0,1445007848291,1445007848834,376,454,0,0,0,5,2,3,52,0001-00-0008-44.png,0002-00-0001-93.png
00000014,176,0,1445007852356,1445007852818,350,423,0,0,0,4,3,1,43,0005-00-0009-10.png,0003-00-0008-21.png
00000014,177,0,1445007855665,1445007856172,953,400,0,0,0,1,2,1,12,0004-00-0006-94.png,0002-00-0003-93.png
00000014,178,1,1445007859242,1445007859685,975,379,0,0,0,4,1,3,41,0005-00-0003-91.png,0004-00-0001-19.png
00000014,179,1,1445007860783,1445007861267,927,384,0,0,0,4,2,2,42,0005-00-0009-01.png,0002-00-0004-37.png
00000014,180,0,1445007862452,1445007862943,907,418,0,0,0,3,5,2,35,0003-00-0000-89.png,0001-00-0009-60.png
00000014,181,1,1445007866079,1445007866537,899,490,0,0,0,5,1,4,51,0001-00-0009-77.png,0004-00-0000-72.png
00000014,182,0,1445007867631,1445007868163,892,488,0,0,0,2,4,2,24,0002-00-0008-75.png,0005-00-0000-02.png
00000014,183,1,1445007871309,1445007871733,929,365,0,0,0,4,2,2,42,0005-00-0007-92.png,0002-00-0002-63.png
00000014,184,1,1445007872804,1445007873323,901,434,0,0,0,4,3,1,43,0005-00-0007-82.png,0003-00-0005-80.png
00000014,185,1,1445007874439,1445007874887,330,418,0,0,0,2,5,3,25,0002-00-0000-57.png,0001-00-0005-97.png
00000014,186,1,1445007875881,1445007876409,945,383,0,0,0,4,1,3,41,0005-00-0009-49.png,0004-00-0001-92.png
00000014,187,1,1445007877650,1445007878134,937,424,0,0,0,5,2,3,52,0001-00-0004-59.png,0002-00-0008-03.png
00000014,188,0,1445007879351,1445007879877,899,465,0,0,0,3,4,1,34,0003-00-0000-04.png,0005-00-0006-51.png
00000014,189,0,1445007882998,1445007883462,906,441,0,0,0,1,2,1,12,0004-00-0007-12.png,0002-00-0001-80.png
00000014,190,1,1445007886614,1445007887109,374,371,0,0,0,1,5,4,15,0004-00-0006-61.png,0001-00-0009-15.png
00000014,191,1,1445007888127,1445007888617,935,406,0,0,0,3,2,1,32,0003-00-0007-27.png,0002-00-0001-96.png
00000014,192,0,1445007889797,1445007890273,941,416,0,0,0,4,5,1,45,0005-00-0003-52.png,0001-00-0000-75.png
00000014,193,0,1445007893162,1445007893162,508,455,0,0,0,5,3,2,53,0001-00-0003-29.png,0003-00-0005-18.png
00000014,194,1,1445007896226,1445007896731,879,453,0,0,0,3,1,2,31,0003-00-0008-59.png,0004-00-0006-90.png
00000014,195,1,1445007897774,1445007898249,350,398,0,0,0,1,3,2,13,0004-00-0004-69.png,0003-00-0006-15.png
00000014,196,1,1445007899347,1445007899830,318,473,0,0,0,2,3,1,23,0002-00-0009-68.png,0003-00-0006-42.png
00000014,197,0,1445007901037,1445007901739,331,357,0,0,0,5,4,1,54,0001-00-0005-04.png,0005-00-0008-06.png
00000014,198,1,1445007905013,1445007905507,350,384,0,0,0,1,4,3,14,0004-00-0000-31.png,0005-00-0000-09.png
00000014,199,1,1445007906588,1445007907050,336,423,0,0,0,3,5,2,35,0003-00-0005-62.png,0001-00-0003-56.png
00000014,200,1,1445007908192,1445007908656,925,423,0,0,0,2,1,1,21,0002-00-0002-77.png,0004-00-0005-22.png
00000014,201,0,1445007909911,1445007910519,953,423,0,0,0,1,2,1,12,0004-00-0006-80.png,0002-00-0005-59.png
00000014,202,0,1445007913797,1445007914363,919,337,0,0,0,2,3,1,23,0002-00-0006-43.png,0003-00-0003-79.png
00000014,203,0,1445007917822,1445007918257,954,387,0,0,0,4,5,1,45,0005-00-0000-91.png,0001-00-0004-85.png
00000014,204,1,1445007921283,1445007921702,376,344,0,0,0,2,4,2,24,0002-00-0001-41.png,0005-00-0004-80.png
00000014,205,1,1445007922764,1445007923204,343,395,0,0,0,1,3,2,13,0004-00-0001-15.png,0003-00-0004-17.png
00000014,206,1,1445007924294,1445007924781,875,502,0,0,0,4,3,1,43,0005-00-0001-17.png,0003-00-0006-69.png
00000014,207,1,1445007925962,1445007926473,912,397,0,0,0,3,1,2,31,0003-00-0008-70.png,0004-00-0004-84.png
00000014,208,0,1445007927743,1445007928249,339,462,0,0,0,5,3,2,53,0001-00-0005-47.png,0003-00-0008-26.png
00000014,209,0,1445007932355,1445007932813,928,415,0,0,0,1,5,4,15,0004-00-0003-72.png,0001-00-0000-24.png
00000014,210,0,1445007935743,1445007935767,478,419,0,0,0,2,1,1,21,0002-00-0004-81.png,0004-00-0007-81.png
00000014,211,1,1445007938683,1445007939126,922,498,0,0,0,3,2,1,32,0003-00-0002-56.png,0002-00-0002-41.png
00000014,212,0,1445007940076,1445007940623,926,384,0,0,0,3,5,2,35,0003-00-0008-99.png,0001-00-0000-11.png
00000014,213,1,1445007944094,1445007944493,927,409,0,0,0,5,2,3,52,0001-00-0001-88.png,0002-00-0007-39.png
00000014,214,1,1445007945562,1445007946026,362,419,0,0,0,2,5,3,25,0002-00-0004-65.png,0001-00-0009-76.png
00000014,215,1,1445007947133,1445007947648,922,403,0,0,0,5,1,4,51,0001-00-0001-43.png,0004-00-0006-70.png
00000014,216,1,1445007948852,1445007949346,924,404,0,0,0,4,2,2,42,0005-00-0008-40.png,0002-00-0002-34.png
00000014,217,0,1445007950516,1445007950970,320,417,0,0,0,5,4,1,54,0001-00-0002-24.png,0005-00-0007-52.png
00000014,218,1,1445007953989,1445007954460,307,393,0,0,0,3,4,1,34,0003-00-0006-95.png,0005-00-0001-88.png
00000014,219,0,1445007955672,1445007956213,319,438,0,0,0,4,1,3,41,0005-00-0004-20.png,0004-00-0005-75.png
00000014,220,1,1445007959365,1445007959998,329,331,0,0,0,1,4,3,14,0004-00-0007-70.png,0005-00-0006-02.png
00000014,221,1,1445007961028,1445007961495,862,358,0,0,0,4,2,2,42,0005-00-0004-37.png,0002-00-0001-89.png
00000014,222,0,1445007962654,1445007963164,900,415,0,0,0,3,5,2,35,0003-00-0009-88.png,0001-00-0006-31.png
00000014,223,1,1445007966001,1445007966416,363,367,0,0,0,1,4,3,14,0004-00-0006-19.png,0005-00-0003-01.png
00000014,224,1,1445007967429,1445007968021,903,456,0,0,0,5,4,1,54,0001-00-0003-82.png,0005-00-0000-09.png
00000014,225,1,1445007969138,1445007969613,918,410,0,0,0,2,1,1,21,0002-00-0000-39.png,0004-00-0006-93.png
00000014,226,1,1445007970789,1445007971328,900,527,0,0,0,4,1,3,41,0005-00-0003-90.png,0004-00-0004-40.png
00000014,227,1,1445007972413,1445007972916,924,411,0,0,0,5,1,4,51,0001-00-0002-97.png,0004-00-0008-35.png
00000014,228,1,1445007974199,1445007974729,401,449,0,0,0,3,4,1,34,0003-00-0006-68.png,0005-00-0009-96.png
00000014,229,1,1445007975839,1445007976314,323,423,0,0,0,1,2,1,12,0004-00-0006-07.png,0002-00-0002-04.png
00000014,230,0,1445007977430,1445007977910,350,423,0,0,0,4,3,1,43,0005-00-0004-83.png,0003-00-0002-66.png
00000014,231,1,1445007980986,1445007981515,355,375,0,0,0,1,5,4,15,0004-00-0004-86.png,0001-00-0000-03.png
00000014,232,0,1445007982696,1445007983214,893,441,0,0,0,1,3,2,13,0004-00-0004-24.png,0003-00-0009-57.png
00000014,233,1,1445007986364,1445007986848,437,507,0,0,0,2,3,1,23,0002-00-0000-73.png,0003-00-0000-95.png
00000014,234,1,1445007987883,1445007988377,922,391,0,0,0,3,1,2,31,0003-00-0009-60.png,0004-00-0005-68.png
00000014,235,0,1445007989583,1445007990086,903,416,0,0,0,2,5,3,25,0002-00-0009-75.png,0001-00-0001-98.png
00000014,236,0,1445007993231,1445007993826,859,512,0,0,0,4,5,1,45,0005-00-0000-87.png,0001-00-0002-62.png
00000014,237,1,1445007996988,1445007997465,903,426,0,0,0,5,2,3,52,0001-00-0004-23.png,0002-00-0009-50.png
00000014,238,1,1445007998631,1445007999085,376,384,0,0,0,2,4,2,24,0002-00-0008-17.png,0005-00-0000-74.png
00000014,239,0,1445008000276,1445008000720,319,427,0,0,0,5,3,2,53,0001-00-0004-36.png,0003-00-0002-57.png
00000014,240,0,1445008003606,1445008003634,471,428,0,0,0,3,2,1,32,0003-00-0003-49.png,0002-00-0003-61.png
00000014,241,1,1445008006768,1445008007193,901,409,0,0,0,4,2,2,42,0005-00-0007-57.png,0002-00-0003-89.png
00000014,242,1,1445008008228,1445008008731,860,508,0,0,0,3,2,1,32,0003-00-0007-54.png,0002-00-0005-44.png
00000014,243,1,1445008009843,1445008010344,900,482,0,0,0,5,2,3,52,0001-00-0008-93.png,0002-00-0008-02.png
00000014,244,0,1445008011594,1445008012049,378,445,0,0,0,5,1,4,51,0001-00-0005-91.png,0004-00-0009-57.png
00000014,245,0,1445008015195,1445008015625,901,424,0,0,0,1,5,4,15,0004-00-0007-80.png,0001-00-0004-43.png
00000014,246,0,1445008018895,1445008019369,902,417,0,0,0,1,2,1,12,0004-00-0001-73.png,0002-00-0009-83.png
00000014,247,1,1445008022289,1445008022728,926,420,0,0,0,5,4,1,54,0001-00-0009-32.png,0005-00-0005-28.png
00000014,248,1,1445008023743,1445008024234,927,397,0,0,0,2,1,1,21,0002-00-0009-66.png,0004-00-0008-11.png
00000014,249,1,1445008025391,1445008025867,324,410,0,0,0,3,5,2,35,0003-00-0006-18.png,0001-00-0005-13.png
00000014,250,1,1445008027075,1445008027533,902,409,0,0,0,3,1,2,31,0003-00-0002-98.png,0004-00-0009-26.png
00000014,251,1,1445008028676,1445008029228,352,410,0,0,0,1,4,3,14,0004-00-0007-51.png,0005-00-0009-69.png
00000014,252,0,1445008030314,1445008030895,887,427,0,0,0,4,5,1,45,0005-00-0005-24.png,0001-00-0003-67.png
00000014,253,1,1445008033834,1445008033858,495,414,0,0,0,3,4,1,34,0003-00-0001-59.png,0005-00-0004-11.png
00000014,254,1,1445008035095,1445008035545,344,419,0,0,0,1,3,2,13,0004-00-0009-51.png,0003-00-0005-76.png
00000014,255,0,1445008036671,1445008037145,364,420,0,0,0,5,3,2,53,0001-00-0000-72.png,0003-00-0007-37.png
00000014,256,1,1445008040044,1445008040068,461,410,0,0,0,2,5,3,25,0002-00-0005-16.png,0001-00-0008-45.png
00000014,257,0,1445008041167,1445008041684,901,384,0,0,0,2,3,1,23,0002-00-0008-56.png,0003-00-0008-89.png
00000014,258,1,1445008044692,1445008045210,387,502,0,0,0,2,4,2,24,0002-00-0002-35.png,0005-00-0004-71.png
00000014,259,1,1445008046435,1445008046843,874,457,0,0,0,4,1,3,41,0005-00-0004-83.png,0004-00-0008-51.png
00000014,260,1,1445008048294,1445008048785,904,376,0,0,0,4,3,1,43,0005-00-0002-03.png,0003-00-0005-51.png
00000014,261,1,1445008050044,1445008051049,872,408,0,0,0,5,1,4,51,0001-00-0005-68.png,0004-00-0001-94.png
00000014,262,1,1445008052172,1445008052714,330,478,0,0,0,2,3,1,23,0002-00-0008-67.png,0003-00-0005-96.png
00000014,263,0,1445008053999,1445008054453,877,417,0,0,0,3,5,2,35,0003-00-0001-73.png,0001-00-0004-24.png
00000014,264,0,1445008057586,1445008058062,325,384,0,0,0,2,1,1,21,0002-00-0000-69.png,0004-00-0007-00.png
00000014,265,0,1445008061065,1445008061532,937,420,0,0,0,4,5,1,45,0005-00-0001-26.png,0001-00-0004-89.png
00000014,266,1,1445008065233,1445008065724,910,403,0,0,0,5,3,2,53,0001-00-0006-78.png,0003-00-0000-87.png
00000014,267,1,1445008066725,1445008067184,925,387,0,0,0,4,3,1,43,0005-00-0002-38.png,0003-00-0006-39.png
00000014,268,1,1445008068688,1445008069188,350,437,0,0,0,1,5,4,15,0004-00-0005-90.png,0001-00-0000-63.png
00000014,269,0,1445008070187,1445008070685,386,441,0,0,0,5,4,1,54,0001-00-0009-39.png,0005-00-0004-95.png
00000014,270,1,1445008073659,1445008074170,339,418,0,0,0,1,3,2,13,0004-00-0005-47.png,0003-00-0008-79.png
00000014,271,1,1445008075118,1445008075650,900,397,0,0,0,4,1,3,41,0005-00-0002-59.png,0004-00-0009-82.png
00000014,272,1,1445008076699,1445008077215,401,423,0,0,0,2,4,2,24,0002-00-0001-74.png,0005-00-0008-89.png
00000014,273,0,1445008078478,1445008078952,919,390,0,0,0,1,2,1,12,0004-00-0009-26.png,0002-00-0000-27.png
00000014,274,1,1445008081813,1445008082262,350,358,0,0,0,2,5,3,25,0002-00-0006-91.png,0001-00-0007-82.png
00000014,275,0,1445008083231,1445008083862,907,410,0,0,0,3,4,1,34,0003-00-0002-78.png,0005-00-0006-13.png
00000014,276,1,1445008087782,1445008088206,928,415,0,0,0,3,2,1,32,0003-00-0007-70.png,0002-00-0008-01.png
00000014,277,1,1445008089262,1445008089760,927,423,0,0,0,3,1,2,31,0003-00-0003-36.png,0004-00-0002-56.png
00000014,278,1,1445008090854,1445008091324,926,437,0,0,0,4,2,2,42,0005-00-0007-02.png,0002-00-0005-58.png
00000014,279,1,1445008092392,1445008092863,339,403,0,0,0,1,4,3,14,0004-00-0007-99.png,0005-00-0005-00.png
00000014,280,1,1445008093999,1445008094490,905,401,0,0,0,5,2,3,52,0001-00-0000-80.png,0002-00-0000-72.png
00000014,281,1,1445008095640,1445008096085,401,436,0,0,0,1,3,2,13,0004-00-0006-92.png,0003-00-0007-20.png
00000014,282,1,1445008097223,1445008097686,333,436,0,0,0,2,3,1,23,0002-00-0006-11.png,0003-00-0002-70.png
00000014,283,1,1445008098851,1445008099330,340,439,0,0,0,1,4,3,14,0004-00-0009-38.png,0005-00-0005-53.png
00000014,284,0,1445008100422,1445008100846,412,410,0,0,0,4,3,1,43,0005-00-0001-38.png,0003-00-0005-83.png
00000014,285,1,1445008104577,1445008104996,881,488,0,0,0,4,2,2,42,0005-00-0005-72.png,0002-00-0004-36.png
00000014,286,0,1445008106089,1445008106548,322,436,0,0,0,5,4,1,54,0001-00-0006-78.png,0005-00-0002-45.png
00000014,287,1,1445008110838,1445008111343,875,488,0,0,0,3,2,1,32,0003-00-0007-11.png,0002-00-0005-28.png
00000014,288,0,1445008112389,1445008112873,874,489,0,0,0,3,4,1,34,0003-00-0007-81.png,0005-00-0003-71.png
00000014,289,1,1445008116137,1445008116619,401,358,0,0,0,2,5,3,25,0002-00-0006-89.png,0001-00-0008-01.png
00000014,290,1,1445008117606,1445008118081,899,430,0,0,0,3,1,2,31,0003-00-0008-51.png,0004-00-0008-21.png
00000014,291,1,1445008119278,1445008119775,926,397,0,0,0,5,1,4,51,0001-00-0009-93.png,0004-00-0000-41.png
00000014,292,1,1445008120817,1445008121311,342,427,0,0,0,4,5,1,45,0005-00-0000-28.png,0001-00-0007-71.png
00000014,293,1,1445008122578,1445008123039,875,462,0,0,0,2,1,1,21,0002-00-0007-16.png,0004-00-0002-78.png
00000014,294,1,1445008124066,1445008124588,874,489,0,0,0,5,2,3,52,0001-00-0000-64.png,0002-00-0000-32.png
00000014,295,1,1445008125614,1445008126088,340,419,0,0,0,2,4,2,24,0002-00-0006-85.png,0005-00-0007-25.png
00000014,296,1,1445008127160,1445008127598,381,395,0,0,0,1,5,4,15,0004-00-0002-00.png,0001-00-0000-04.png
00000014,297,0,1445008128742,1445008129227,339,456,0,0,0,5,3,2,53,0001-00-0004-09.png,0003-00-0001-14.png
00000014,298,1,1445008132087,1445008132549,928,388,0,0,0,4,1,3,41,0005-00-0009-48.png,0004-00-0005-70.png
00000014,299,0,1445008133585,1445008134101,901,502,0,0,0,1,2,1,12,0004-00-0009-53.png,0002-00-0001-45.png
00000014,300,0,1445008137173,1445008137626,878,415,0,0,0,3,5,2,35,0003-00-0002-27.png,0001-00-0003-90.png
00000014,301,0,1445008140605,1445008141073,874,501,0,0,0,1,2,1,12,0004-00-0005-01.png,0002-00-0006-24.png
00000014,302,1,1445008144411,1445008144881,914,395,0,0,0,4,1,3,41,0005-00-0008-54.png,0004-00-0002-38.png
00000014,303,0,1445008145871,1445008146297,336,431,0,0,0,4,3,1,43,0005-00-0009-72.png,0003-00-0000-05.png
00000014,304,0,1445008149370,1445008149829,351,461,0,0,0,5,4,1,54,0001-00-0005-11.png,0005-00-0005-23.png
00000014,305,0,1445008152730,1445008153125,952,391,0,0,0,4,5,1,45,0005-00-0004-52.png,0001-00-0004-43.png
00000014,306,0,1445008156599,1445008157033,921,383,0,0,0,1,5,4,15,0004-00-0007-18.png,0001-00-0008-49.png
00000014,307,0,1445008159970,1445008160365,928,389,0,0,0,2,5,3,25,0002-00-0003-55.png,0001-00-0000-92.png
00000014,308,1,1445008163324,1445008163739,328,386,0,0,0,2,4,2,24,0002-00-0002-19.png,0005-00-0008-34.png
00000014,309,0,1445008164693,1445008165247,350,398,0,0,0,4,2,2,42,0005-00-0005-54.png,0002-00-0007-55.png
00000014,310,0,1445008168174,1445008168626,927,409,0,0,0,3,5,2,35,0003-00-0007-41.png,0001-00-0001-64.png
00000014,311,1,1445008171643,1445008172089,358,392,0,0,0,2,3,1,23,0002-00-0003-69.png,0003-00-0006-60.png
00000014,312,0,1445008173061,1445008173587,925,410,0,0,0,3,4,1,34,0003-00-0000-06.png,0005-00-0005-48.png
00000014,313,1,1445008176970,1445008177464,907,470,0,0,0,5,3,2,53,0001-00-0008-17.png,0003-00-0009-09.png
00000014,314,1,1445008178441,1445008178874,371,516,0,0,0,1,3,2,13,0004-00-0006-44.png,0003-00-0005-94.png
00000014,315,1,1445008179841,1445008180305,899,484,0,0,0,2,1,1,21,0002-00-0000-87.png,0004-00-0004-62.png
00000014,316,0,1445008181502,1445008181988,414,450,0,0,0,3,2,1,32,0003-00-0001-48.png,0002-00-0003-40.png
00000014,317,1,1445008184869,1445008185316,893,509,0,0,0,5,1,4,51,0001-00-0008-21.png,0004-00-0005-98.png
00000014,318,1,1445008186229,1445008186761,904,401,0,0,0,3,1,2,31,0003-00-0009-70.png,0004-00-0006-79.png
00000014,319,1,1445008187788,1445008188329,926,411,0,0,0,5,2,3,52,0001-00-0008-65.png,0002-00-0001-59.png
00000014,320,1,1445008189363,1445008189830,366,453,0,0,0,1,4,3,14,0004-00-0006-13.png,0005-00-0003-64.png
00000014,321,0,1445008190785,1445008191451,427,484,0,0,0,5,2,3,52,0001-00-0009-53.png,0002-00-0008-98.png
00000014,322,1,1445008194789,1445008195235,298,397,0,0,0,1,3,2,13,0004-00-0003-95.png,0003-00-0009-43.png
00000014,323,1,1445008196238,1445008196710,900,398,0,0,0,3,2,1,32,0003-00-0008-23.png,0002-00-0008-09.png
00000014,324,0,1445008197803,1445008198275,389,423,0,0,0,2,1,1,21,0002-00-0009-55.png,0004-00-0007-43.png
00000014,325,1,1445008201261,1445008201737,901,384,0,0,0,4,1,3,41,0005-00-0009-86.png,0004-00-0002-04.png
00000014,326,1,1445008202683,1445008203198,878,415,0,0,0,4,2,2,42,0005-00-0008-19.png,0002-00-0004-29.png
00000014,327,1,1445008204222,1445008204765,864,415,0,0,0,5,1,4,51,0001-00-0004-42.png,0004-00-0009-11.png
00000014,328,0,1445008205801,1445008206269,899,386,0,0,0,3,5,2,35,0003-00-0008-00.png,0001-00-0000-20.png
00000014,329,1,1445008209690,1445008210106,273,423,0,0,0,2,4,2,24,0002-00-0005-30.png,0005-00-0009-49.png
00000014,330,1,1445008211131,1445008211606,875,502,0,0,0,3,1,2,31,0003-00-0009-82.png,0004-00-0009-07.png
00000014,331,0,1445008212689,1445008213178,900,410,0,0,0,3,4,1,34,0003-00-0009-88.png,0005-00-0006-08.png
00000014,332,1,1445008216019,1445008216563,290,450,0,0,0,1,5,4,15,0004-00-0000-92.png,0001-00-0009-47.png
00000014,333,1,1445008217509,1445008217992,322,433,0,0,0,1,4,3,14,0004-00-0008-92.png,0005-00-0004-10.png
00000014,334,0,1445008218979,1445008219488,899,404,0,0,0,4,5,1,45,0005-00-0005-36.png,0001-00-0002-82.png
00000014,335,0,1445008222437,1445008222849,945,378,0,0,0,1,2,1,12,0004-00-0008-30.png,0002-00-0001-11.png
00000014,336,0,1445008225696,1445008226142,345,420,0,0,0,5,3,2,53,0001-00-0007-00.png,0003-00-0005-37.png
00000014,337,0,1445008229143,1445008229674,939,345,0,0,0,2,5,3,25,0002-00-0007-68.png,0001-00-0007-86.png
00000014,338,1,1445008232646,1445008233077,929,442,0,0,0,5,4,1,54,0001-00-0004-86.png,0005-00-0000-41.png
00000014,339,0,1445008234032,1445008234569,342,401,0,0,0,4,3,1,43,0005-00-0004-99.png,0003-00-0004-15.png
00000014,340,1,1445008237844,1445008238356,355,494,0,0,0,2,3,1,23,0002-00-0005-47.png,0003-00-0003-93.png
00000014,341,1,1445008239541,1445008240016,948,393,0,0,0,5,2,3,52,0001-00-0008-52.png,0002-00-0005-48.png
00000014,342,0,1445008241034,1445008241552,904,401,0,0,0,3,5,2,35,0003-00-0004-42.png,0001-00-0008-10.png
00000014,343,0,1445008244663,1445008245109,901,486,0,0,0,4,5,1,45,0005-00-0000-12.png,0001-00-0007-56.png
00000014,344,0,1445008248308,1445008248816,879,402,0,0,0,3,4,1,34,0003-00-0004-48.png,0005-00-0007-85.png
00000014,345,1,1445008251729,1445008252231,325,385,0,0,0,2,4,2,24,0002-00-0002-70.png,0005-00-0002-09.png
00000014,346,1,1445008253138,1445008253688,874,505,0,0,0,5,4,1,54,0001-00-0000-25.png,0005-00-0002-56.png
00000014,347,1,1445008254739,1445008255311,326,414,0,0,0,1,2,1,12,0004-00-0009-42.png,0002-00-0005-39.png
00000014,348,1,1445008256341,1445008256797,312,422,0,0,0,1,4,3,14,0004-00-0008-63.png,0005-00-0000-04.png
00000014,349,0,1445008257811,1445008258312,339,427,0,0,0,5,1,4,51,0001-00-0001-99.png,0004-00-0009-47.png
00000014,350,0,1445008261534,1445008261994,401,449,0,0,0,3,1,2,31,0003-00-0008-68.png,0004-00-0002-64.png
00000014,351,1,1445008265063,1445008265632,905,401,0,0,0,5,3,2,53,0001-00-0008-08.png,0003-00-0004-06.png
00000014,352,0,1445008266647,1445008267086,376,410,0,0,0,2,1,1,21,0002-00-0003-63.png,0004-00-0004-86.png
00000014,353,1,1445008270195,1445008270628,313,423,0,0,0,2,5,3,25,0002-00-0007-22.png,0001-00-0001-55.png
00000014,354,1,1445008271626,1445008272086,324,435,0,0,0,1,3,2,13,0004-00-0008-44.png,0003-00-0004-59.png
00000014,355,1,1445008273116,1445008273553,312,422,0,0,0,2,3,1,23,0002-00-0009-87.png,0003-00-0004-54.png
00000014,356,1,1445008274638,1445008275088,899,437,0,0,0,4,3,1,43,0005-00-0004-22.png,0003-00-0006-69.png
00000014,357,1,1445008276190,1445008276746,901,385,0,0,0,4,1,3,41,0005-00-0001-88.png,0004-00-0001-11.png
00000014,358,0,1445008277819,1445008278312,911,398,0,0,0,1,5,4,15,0004-00-0000-80.png,0001-00-0004-49.png
00000014,359,1,1445008281210,1445008281658,924,379,0,0,0,4,2,2,42,0005-00-0009-77.png,0002-00-0000-61.png
00000014,360,0,1445008282684,1445008283152,365,447,0,0,0,3,2,1,32,0003-00-0001-29.png,0002-00-0007-96.png
00000014,361,1,1445008286035,1445008286610,299,361,0,0,0,1,3,2,13,0004-00-0002-41.png,0003-00-0009-95.png
00000014,362,0,1445008287686,1445008288225,908,444,0,0,0,1,4,3,14,0004-00-0007-90.png,0005-00-0008-97.png
00000014,363,0,1445008291086,1445008291530,901,424,0,0,0,3,4,1,34,0003-00-0002-30.png,0005-00-0003-25.png
00000014,364,1,1445008294737,1445008295201,928,443,0,0,0,5,2,3,52,0001-00-0001-32.png,0002-00-0005-25.png
00000014,365,1,1445008296364,1445008296846,923,407,0,0,0,3,2,1,32,0003-00-0006-91.png,0002-00-0003-14.png
00000014,366,1,1445008297946,1445008298422,926,424,0,0,0,3,1,2,31,0003-00-0009-57.png,0004-00-0005-22.png
00000014,367,1,1445008299584,1445008300060,291,427,0,0,0,1,5,4,15,0004-00-0008-58.png,0001-00-0008-91.png
00000014,368,1,1445008301076,1445008301583,926,410,0,0,0,5,1,4,51,0001-00-0000-68.png,0004-00-0003-97.png
00000014,369,1,1445008302637,1445008303161,898,432,0,0,0,4,2,2,42,0005-00-0008-91.png,0002-00-0009-19.png
00000014,370,1,1445008304237,1445008304735,388,423,0,0,0,4,5,1,45,0005-00-0005-61.png,0001-00-0002-99.png
00000014,371,1,1445008305828,1445008306331,401,436,0,0,0,2,3,1,23,0002-00-0008-97.png,0003-00-0005-00.png
00000014,372,0,1445008307418,1445008307873,325,449,0,0,0,5,4,1,54,0001-00-0007-83.png,0005-00-0000-94.png
00000014,373,0,1445008310725,1445008311254,952,409,0,0,0,2,5,3,25,0002-00-0005-04.png,0001-00-0002-25.png
00000014,374,1,1445008314314,1445008314775,318,443,0,0,0,2,4,2,24,0002-00-0000-93.png,0005-00-0009-16.png
00000014,375,0,1445008315745,1445008316226,921,420,0,0,0,1,2,1,12,0004-00-0008-52.png,0002-00-0005-87.png
00000014,376,0,1445008319091,1445008319512,925,409,0,0,0,3,5,2,35,0003-00-0006-03.png,0001-00-0004-20.png
00000014,377,1,1445008322615,1445008323039,901,396,0,0,0,2,1,1,21,0002-00-0002-79.png,0004-00-0006-82.png
00000014,378,0,1445008323924,1445008324362,305,435,0,0,0,4,3,1,43,0005-00-0003-84.png,0003-00-0009-26.png
00000014,379,1,1445008327424,1445008327886,950,436,0,0,0,4,1,3,41,0005-00-0008-91.png,0004-00-0008-78.png
00000014,380,0,1445008329016,1445008329490,357,445,0,0,0,5,3,2,53,0001-00-0008-47.png,0003-00-0009-79.png
00000014,381,1,1445008332524,1445008332967,897,510,0,0,0,4,1,3,41,0005-00-0008-60.png,0004-00-0008-69.png
00000014,382,1,1445008333944,1445008334396,319,400,0,0,0,1,3,2,13,0004-00-0009-50.png,0003-00-0000-86.png
00000014,383,0,1445008335565,1445008336056,338,449,0,0,0,4,2,2,42,0005-00-0004-75.png,0002-00-0009-94.png
00000014,384,0,1445008338983,1445008339458,881,487,0,0,0,1,5,4,15,0004-00-0009-06.png,0001-00-0008-50.png
00000014,385,0,1445008342308,1445008342693,871,367,0,0,0,3,5,2,35,0003-00-0000-04.png,0001-00-0001-30.png
00000014,386,1,1445008345711,1445008346129,376,384,0,0,0,4,5,1,45,0005-00-0008-09.png,0001-00-0007-18.png
00000014,387,0,1445008347160,1445008347646,932,393,0,0,0,1,2,1,12,0004-00-0007-90.png,0002-00-0003-48.png
00000014,388,1,1445008350580,1445008351055,319,421,0,0,0,2,3,1,23,0002-00-0005-35.png,0003-00-0009-46.png
00000014,389,1,1445008352043,1445008352509,331,397,0,0,0,1,4,3,14,0004-00-0004-54.png,0005-00-0006-80.png
00000014,390,0,1445008353563,1445008354038,344,462,0,0,0,3,2,1,32,0003-00-0001-84.png,0002-00-0009-65.png
00000014,391,1,1445008357263,1445008357717,881,513,0,0,0,3,1,2,31,0003-00-0003-00.png,0004-00-0003-18.png
00000014,392,1,1445008358760,1445008359253,861,533,0,0,0,5,1,4,51,0001-00-0007-46.png,0004-00-0002-12.png
00000014,393,1,1445008360304,1445008360797,376,450,0,0,0,2,4,2,24,0002-00-0009-56.png,0005-00-0009-68.png
00000014,394,1,1445008361937,1445008362431,925,434,0,0,0,2,1,1,21,0002-00-0007-47.png,0004-00-0006-41.png
00000014,395,0,1445008363750,1445008364193,350,450,0,0,0,5,4,1,54,0001-00-0004-99.png,0005-00-0003-18.png
00000014,396,0,1445008367417,1445008367861,434,446,0,0,0,4,3,1,43,0005-00-0004-82.png,0003-00-0004-22.png
00000014,397,1,1445008370710,1445008371096,388,393,0,0,0,2,5,3,25,0002-00-0000-45.png,0001-00-0000-19.png
00000014,398,1,1445008372088,1445008373016,924,464,0,0,0,5,3,2,53,0001-00-0003-14.png,0003-00-0006-97.png
00000014,399,0,1445008374035,1445008374538,901,410,0,0,0,3,4,1,34,0003-00-0003-03.png,0005-00-0006-62.png
00000014,400,1,1445008377452,1445008377879,877,494,0,0,0,5,2,3,52,0001-00-0000-77.png,0002-00-0006-20.png
00000014,401,1,1445008378876,1445008379378,925,412,0,0,0,2,1,1,21,0002-00-0004-70.png,0004-00-0003-78.png
00000014,402,1,1445008380448,1445008381096,407,548,0,0,0,3,4,1,34,0003-00-0008-17.png,0005-00-0006-27.png
00000014,403,1,1445008382117,1445008382556,313,410,0,0,0,2,5,3,25,0002-00-0006-12.png,0001-00-0003-49.png
00000014,404,0,1445008383697,1445008384140,321,440,0,0,0,4,3,1,43,0005-00-0003-62.png,0003-00-0006-17.png
00000014,405,0,1445008388447,1445008388917,905,401,0,0,0,1,2,1,12,0004-00-0001-05.png,0002-00-0001-63.png
00000014,406,0,1445008392930,1445008393385,927,435,0,0,0,4,5,1,45,0005-00-0007-00.png,0001-00-0009-55.png
00000014,407,0,1445008396648,1445008397096,350,384,0,0,0,4,1,3,41,0005-00-0006-25.png,0004-00-0006-49.png
00000014,408,0,1445008400626,1445008401061,916,426,0,0,0,1,3,2,13,0004-00-0009-20.png,0003-00-0000-92.png
00000014,409,1,1445008403938,1445008404430,322,330,0,0,0,2,4,2,24,0002-00-0003-23.png,0005-00-0004-32.png
00000014,410,1,1445008405453,1445008405978,925,387,0,0,0,3,2,1,32,0003-00-0000-63.png,0002-00-0006-68.png
00000014,411,1,1445008407033,1445008407489,401,436,0,0,0,3,5,2,35,0003-00-0003-90.png,0001-00-0004-06.png
00000014,412,0,1445008408542,1445008409005,401,410,0,0,0,5,3,2,53,0001-00-0003-89.png,0003-00-0004-81.png
00000014,413,1,1445008412440,1445008412965,931,401,0,0,0,5,1,4,51,0001-00-0007-47.png,0004-00-0007-65.png
00000014,414,1,1445008414049,1445008414516,356,423,0,0,0,2,3,1,23,0002-00-0003-82.png,0003-00-0003-35.png
00000014,415,0,1445008415550,1445008416039,898,379,0,0,0,1,5,4,15,0004-00-0009-19.png,0001-00-0002-81.png
00000014,416,0,1445008419675,1445008420116,408,420,0,0,0,5,4,1,54,0001-00-0008-51.png,0005-00-0007-25.png
00000014,417,1,1445008424047,1445008424527,379,393,0,0,0,1,4,3,14,0004-00-0004-97.png,0005-00-0004-63.png
00000014,418,1,1445008425515,1445008426006,901,410,0,0,0,4,2,2,42,0005-00-0002-51.png,0002-00-0008-24.png
00000014,419,1,1445008426999,1445008427486,916,412,0,0,0,3,1,2,31,0003-00-0007-81.png,0004-00-0002-52.png
00000014,420,1,1445008428689,1445008429148,913,423,0,0,0,5,2,3,52,0001-00-0006-43.png,0002-00-0002-74.png
00000014,421,1,1445008430189,1445008430653,364,430,0,0,0,4,5,1,45,0005-00-0004-43.png,0001-00-0006-77.png
00000014,422,1,1445008431761,1445008432247,407,509,0,0,0,2,3,1,23,0002-00-0009-54.png,0003-00-0002-45.png
00000014,423,1,1445008433282,1445008433733,334,405,0,0,0,2,5,3,25,0002-00-0000-28.png,0001-00-0005-63.png
00000014,424,1,1445008434812,1445008435295,926,410,0,0,0,4,1,3,41,0005-00-0009-17.png,0004-00-0008-59.png
00000014,425,1,1445008436422,1445008436939,874,488,0,0,0,5,2,3,52,0001-00-0002-21.png,0002-00-0001-00.png
00000014,426,1,1445008438112,1445008438622,375,384,0,0,0,1,2,1,12,0004-00-0003-60.png,0002-00-0005-51.png
00000014,427,1,1445008439801,1445008440299,339,460,0,0,0,2,4,2,24,0002-00-0008-30.png,0005-00-0009-30.png
00000014,428,1,1445008441591,1445008442086,900,423,0,0,0,3,1,2,31,0003-00-0009-41.png,0004-00-0001-42.png
00000014,429,0,1445008443212,1445008443761,877,441,0,0,0,1,3,2,13,0004-00-0009-91.png,0003-00-0006-72.png
00000014,430,1,1445008446781,1445008447226,910,465,0,0,0,3,2,1,32,0003-00-0001-67.png,0002-00-0005-59.png
00000014,431,1,1445008448225,1445008448778,912,444,0,0,0,5,4,1,54,0001-00-0008-59.png,0005-00-0005-17.png
00000014,432,1,1445008449818,1445008450361,869,524,0,0,0,4,2,2,42,0005-00-0004-18.png,0002-00-0007-31.png
00000014,433,1,1445008451600,1445008452148,881,463,0,0,0,2,1,1,21,0002-00-0001-63.png,0004-00-0006-99.png
00000014,434,1,1445008453242,1445008453786,905,417,0,0,0,4,3,1,43,0005-00-0006-09.png,0003-00-0004-35.png
00000014,435,1,1445008454919,1445008455394,362,447,0,0,0,1,4,3,14,0004-00-0000-18.png,0005-00-0008-66.png
00000014,436,1,1445008456560,1445008456992,350,410,0,0,0,1,5,4,15,0004-00-0006-93.png,0001-00-0008-55.png
00000014,437,1,1445008458083,1445008458585,891,418,0,0,0,5,3,2,53,0001-00-0009-96.png,0003-00-0003-57.png
00000014,438,1,1445008459859,1445008460357,915,414,0,0,0,5,1,4,51,0001-00-0005-48.png,0004-00-0007-89.png
00000014,439,0,1445008461560,1445008462053,887,424,0,0,0,3,5,2,35,0003-00-0001-12.png,0001-00-0000-26.png
00000014,440,0,1445008465191,1445008465628,875,507,0,0,0,3,4,1,34,0003-00-0004-05.png,0005-00-0004-60.png
00000014,441,0,1445008468588,1445008468612,506,403,0,0,0,3,1,2,31,0003-00-0001-24.png,0004-00-0001-60.png
00000014,442,1,1445008471535,1445008472011,925,359,0,0,0,5,3,2,53,0001-00-0001-03.png,0003-00-0002-91.png
00000014,443,1,1445008473000,1445008473535,900,487,0,0,0,4,1,3,41,0005-00-0000-01.png,0004-00-0003-94.png
00000014,444,1,1445008474499,1445008475037,902,426,0,0,0,5,2,3,52,0001-00-0004-91.png,0002-00-0008-68.png
00000014,445,1,1445008476450,1445008476853,929,410,0,0,0,3,2,1,32,0003-00-0002-66.png,0002-00-0000-37.png
00000014,446,0,1445008477898,1445008478460,900,436,0,0,0,4,5,1,45,0005-00-0006-85.png,0001-00-0007-54.png
00000014,447,0,1445008481305,1445008481756,916,486,0,0,0,2,3,1,23,0002-00-0008-34.png,0003-00-0003-83.png
00000014,448,1,1445008484645,1445008485061,376,371,0,0,0,2,5,3,25,0002-00-0004-03.png,0001-00-0008-42.png
00000014,449,0,1445008486140,1445008486611,927,398,0,0,0,1,2,1,12,0004-00-0003-94.png,0002-00-0001-05.png
00000014,450,1,1445008490196,1445008490636,905,440,0,0,0,2,1,1,21,0002-00-0003-74.png,0004-00-0003-47.png
00000014,451,1,1445008491645,1445008492247,427,385,0,0,0,3,4,1,34,0003-00-0006-31.png,0005-00-0005-10.png
00000014,452,1,1445008493354,1445008493845,344,439,0,0,0,3,5,2,35,0003-00-0009-03.png,0001-00-0002-15.png
00000014,453,1,1445008494836,1445008495342,881,400,0,0,0,4,3,1,43,0005-00-0005-51.png,0003-00-0000-14.png
00000014,454,1,1445008496453,1445008496940,427,423,0,0,0,1,5,4,15,0004-00-0000-75.png,0001-00-0009-99.png
00000014,455,1,1445008498058,1445008498531,393,508,0,0,0,2,4,2,24,0002-00-0007-42.png,0005-00-0000-82.png
00000014,456,1,1445008499677,1445008500166,919,409,0,0,0,4,2,2,42,0005-00-0002-19.png,0002-00-0007-14.png
00000014,457,0,1445008501257,1445008501778,425,454,0,0,0,5,1,4,51,0001-00-0007-99.png,0004-00-0002-89.png
00000014,458,1,1445008504767,1445008505288,333,363,0,0,0,1,4,3,14,0004-00-0004-32.png,0005-00-0003-98.png
00000014,459,1,1445008506265,1445008506732,378,533,0,0,0,1,3,2,13,0004-00-0003-47.png,0003-00-0004-93.png
00000014,460,0,1445008507848,1445008508267,401,410,0,0,0,5,4,1,54,0001-00-0003-00.png,0005-00-0003-49.png
00000014,461,0,1445008511616,1445008512088,342,416,0,0,0,2,1,1,21,0002-00-0009-62.png,0004-00-0001-66.png
00000014,462,1,1445008515301,1445008515733,903,440,0,0,0,5,2,3,52,0001-00-0006-77.png,0002-00-0004-98.png
00000014,463,1,1445008516702,1445008517161,926,411,0,0,0,5,1,4,51,0001-00-0002-85.png,0004-00-0003-43.png
00000014,464,1,1445008518263,1445008518697,388,424,0,0,0,3,4,1,34,0003-00-0003-76.png,0005-00-0006-69.png
00000014,465,1,1445008519891,1445008520309,414,423,0,0,0,3,5,2,35,0003-00-0003-69.png,0001-00-0007-51.png
00000014,466,1,1445008521403,1445008521857,358,471,0,0,0,2,4,2,24,0002-00-0004-34.png,0005-00-0000-59.png
00000014,467,1,1445008523005,1445008523497,901,440,0,0,0,3,2,1,32,0003-00-0001-76.png,0002-00-0000-76.png
00000014,468,0,1445008524655,1445008525085,376,526,0,0,0,3,1,2,31,0003-00-0008-60.png,0004-00-0009-47.png
00000014,469,0,1445008532884,1445008533279,900,515,0,0,0,1,5,4,15,0004-00-0008-18.png,0001-00-0008-09.png
00000014,470,1,1445008536916,1445008537378,350,384,0,0,0,2,5,3,25,0002-00-0000-04.png,0001-00-0006-60.png
00000014,471,0,1445008538343,1445008538844,876,462,0,0,0,4,5,1,45,0005-00-0004-61.png,0001-00-0008-77.png
00000014,472,1,1445008542759,1445008543166,286,397,0,0,0,1,3,2,13,0004-00-0005-06.png,0003-00-0002-99.png
00000014,473,0,1445008544179,1445008545129,357,449,0,0,0,5,3,2,53,0001-00-0006-41.png,0003-00-0003-48.png
00000014,474,1,1445008549873,1445008550350,344,411,0,0,0,1,4,3,14,0004-00-0008-13.png,0005-00-0003-51.png
00000014,475,1,1445008551266,1445008551731,901,410,0,0,0,4,2,2,42,0005-00-0007-77.png,0002-00-0004-66.png
00000014,476,1,1445008552817,1445008553342,861,450,0,0,0,4,1,3,41,0005-00-0009-89.png,0004-00-0006-57.png
00000014,477,1,1445008554448,1445008554901,376,449,0,0,0,1,2,1,12,0004-00-0004-36.png,0002-00-0001-58.png
00000014,478,1,1445008555909,1445008556329,401,410,0,0,0,2,3,1,23,0002-00-0004-69.png,0003-00-0009-28.png
00000014,479,1,1445008557366,1445008557845,894,430,0,0,0,4,3,1,43,0005-00-0007-04.png,0003-00-0004-79.png
00000014,480,0,1445008558890,1445008559341,401,541,0,0,0,5,4,1,54,0001-00-0003-80.png,0005-00-0007-08.png
00000014,481,1,1445008562378,1445008562838,874,502,0,0,0,5,2,3,52,0001-00-0003-41.png,0002-00-0003-20.png
00000014,482,1,1445008563900,1445008564312,401,436,0,0,0,1,4,3,14,0004-00-0003-89.png,0005-00-0009-09.png
00000014,483,1,1445008565379,1445008565876,891,440,0,0,0,3,2,1,32,0003-00-0001-92.png,0002-00-0000-75.png
00000014,484,1,1445008566850,1445008567373,401,462,0,0,0,3,4,1,34,0003-00-0004-70.png,0005-00-0001-89.png
00000014,485,0,1445008568436,1445008568905,380,466,0,0,0,4,3,1,43,0005-00-0004-95.png,0003-00-0004-42.png
00000014,486,0,1445008573605,1445008574033,904,401,0,0,0,3,5,2,35,0003-00-0006-23.png,0001-00-0002-92.png
00000014,487,1,1445008577506,1445008577901,901,423,0,0,0,5,3,2,53,0001-00-0004-53.png,0003-00-0009-92.png
00000014,488,0,1445008578976,1445008579520,901,383,0,0,0,2,3,1,23,0002-00-0007-31.png,0003-00-0001-01.png
00000014,489,1,1445008582643,1445008583058,898,485,0,0,0,4,1,3,41,0005-00-0007-12.png,0004-00-0004-28.png
00000014,490,0,1445008583994,1445008584567,905,429,0,0,0,2,5,3,25,0002-00-0009-10.png,0001-00-0000-81.png
00000014,491,1,1445008587493,1445008587505,501,426,0,0,0,4,5,1,45,0005-00-0008-69.png,0001-00-0003-98.png
00000014,492,1,1445008588565,1445008589029,914,397,0,0,0,4,2,2,42,0005-00-0004-57.png,0002-00-0009-56.png
00000014,493,1,1445008589997,1445008590441,314,443,0,0,0,1,3,2,13,0004-00-0006-15.png,0003-00-0001-35.png
00000014,494,1,1445008591449,1445008592046,881,493,0,0,0,5,4,1,54,0001-00-0002-91.png,0005-00-0003-77.png
00000014,495,0,1445008593128,1445008593619,894,416,0,0,0,1,2,1,12,0004-00-0005-33.png,0002-00-0002-14.png
00000014,496,1,1445008597099,1445008597559,901,512,0,0,0,3,1,2,31,0003-00-0008-32.png,0004-00-0005-53.png
00000014,497,1,1445008598512,1445008598999,926,423,0,0,0,2,1,1,21,0002-00-0002-42.png,0004-00-0002-17.png
00000014,498,1,1445008600013,1445008600473,350,449,0,0,0,2,4,2,24,0002-00-0004-14.png,0005-00-0000-83.png
00000014,499,1,1445008601425,1445008601953,862,498,0,0,0,5,1,4,51,0001-00-0004-01.png,0004-00-0009-26.png
00000014,500,0,1445008602996,1445008603501,922,434,0,0,0,1,5,4,15,0004-00-0009-79.png,0001-00-0001-95.png
00000014,501,1,1445008606673,1445008607103,875,449,0,0,0,3,2,1,32,0003-00-0008-97.png,0002-00-0000-87.png
00000014,502,0,1445008608036,1445008608515,876,442,0,0,0,1,4,3,14,0004-00-0002-66.png,0005-00-0009-04.png
00000014,503,0,1445008611633,1445008612105,427,410,0,0,0,4,3,1,43,0005-00-0002-40.png,0003-00-0008-11.png
00000014,504,0,1445008615331,1445008615775,874,528,0,0,0,3,4,1,34,0003-00-0007-89.png,0005-00-0005-90.png
00000014,505,1,1445008618887,1445008619361,376,332,0,0,0,2,4,2,24,0002-00-0002-09.png,0005-00-0001-86.png
00000014,506,1,1445008620309,1445008620872,374,418,0,0,0,1,3,2,13,0004-00-0007-59.png,0003-00-0004-66.png
00000014,507,0,1445008621772,1445008622759,900,385,0,0,0,3,5,2,35,0003-00-0004-47.png,0001-00-0008-64.png
00000014,508,1,1445008625804,1445008626210,393,427,0,0,0,2,3,1,23,0002-00-0009-12.png,0003-00-0002-56.png
00000014,509,1,1445008627116,1445008627633,956,364,0,0,0,4,1,3,41,0005-00-0004-90.png,0004-00-0007-01.png
00000014,510,1,1445008628626,1445008629179,888,385,0,0,0,5,3,2,53,0001-00-0000-89.png,0003-00-0007-90.png
00000014,511,1,1445008630216,1445008630646,905,402,0,0,0,3,1,2,31,0003-00-0000-64.png,0004-00-0003-89.png
00000014,512,0,1445008631697,1445008632238,428,435,0,0,0,5,1,4,51,0001-00-0001-87.png,0004-00-0006-12.png
00000014,513,1,1445008635713,1445008636163,875,502,0,0,0,2,1,1,21,0002-00-0000-51.png,0004-00-0009-93.png
00000014,514,1,1445008637042,1445008637537,378,541,0,0,0,2,5,3,25,0002-00-0005-30.png,0001-00-0001-33.png
00000014,515,0,1445008638531,1445008638998,875,437,0,0,0,4,5,1,45,0005-00-0006-28.png,0001-00-0000-83.png
00000014,516,0,1445008641840,1445008642251,915,407,0,0,0,1,5,4,15,0004-00-0000-06.png,0001-00-0001-71.png
00000014,517,1,1445008645088,1445008645559,290,366,0,0,0,1,2,1,12,0004-00-0007-58.png,0002-00-0009-36.png
00000014,518,1,1445008646464,1445008646956,874,501,0,0,0,5,2,3,52,0001-00-0000-01.png,0002-00-0004-58.png
00000014,519,1,1445008647913,1445008648437,880,402,0,0,0,5,4,1,54,0001-00-0003-17.png,0005-00-0009-57.png
00000014,520,1,1445008649436,1445008649938,899,411,0,0,0,4,2,2,42,0005-00-0003-48.png,0002-00-0002-43.png
00000014,521,0,1445008650877,1445008651360,332,428,0,0,0,4,1,3,41,0005-00-0008-51.png,0004-00-0001-08.png
00000014,522,1,1445008654546,1445008655007,323,404,0,0,0,2,3,1,23,0002-00-0009-81.png,0003-00-0003-35.png
00000014,523,1,1445008656074,1445008656553,364,443,0,0,0,4,5,1,45,0005-00-0001-26.png,0001-00-0000-15.png
00000014,524,1,1445008657574,1445008658002,361,439,0,0,0,3,5,2,35,0003-00-0008-45.png,0001-00-0008-20.png
00000014,525,1,1445008659092,1445008659536,901,410,0,0,0,4,2,2,42,0005-00-0006-57.png,0002-00-0005-35.png
00000014,526,1,1445008660537,1445008661020,921,409,0,0,0,5,2,3,52,0001-00-0008-20.png,0002-00-0006-82.png
00000014,527,1,1445008662115,1445008662650,391,548,0,0,0,2,5,3,25,0002-00-0008-00.png,0001-00-0001-09.png
00000014,528,1,1445008663641,1445008664112,414,449,0,0,0,3,4,1,34,0003-00-0001-98.png,0005-00-0003-41.png
00000014,529,1,1445008665140,1445008665643,427,423,0,0,0,1,5,4,15,0004-00-0004-46.png,0001-00-0001-57.png
00000014,530,1,1445008666678,1445008667143,356,440,0,0,0,1,4,3,14,0004-00-0003-81.png,0005-00-0004-43.png
00000014,531,1,1445008668180,1445008668646,401,553,0,0,0,1,3,2,13,0004-00-0006-11.png,0003-00-0006-76.png
00000014,532,1,1445008669803,1445008670273,337,450,0,0,0,2,4,2,24,0002-00-0006-73.png,0005-00-0004-46.png
00000014,533,1,1445008671380,1445008671856,912,424,0,0,0,2,1,1,21,0002-00-0009-57.png,0004-00-0006-19.png
00000014,534,0,1445008672947,1445008673490,414,410,0,0,0,4,3,1,43,0005-00-0009-07.png,0003-00-0007-44.png
00000014,535,1,1445008676958,1445008677402,904,415,0,0,0,3,1,2,31,0003-00-0000-22.png,0004-00-0009-12.png
00000014,536,1,1445008678417,1445008678936,918,416,0,0,0,5,3,2,53,0001-00-0005-43.png,0003-00-0000-13.png
00000014,537,0,1445008679900,1445008680371,362,464,0,0,0,5,4,1,54,0001-00-0007-52.png,0005-00-0006-39.png
00000014,538,0,1445008683656,1445008684112,887,480,0,0,0,1,2,1,12,0004-00-0000-84.png,0002-00-0000-48.png
00000014,539,1,1445008687155,1445008687602,926,415,0,0,0,3,2,1,32,0003-00-0000-04.png,0002-00-0002-86.png
00000014,540,1,1445008688545,1445008689017,900,482,0,0,0,5,1,4,51,0001-00-0009-57.png,0004-00-0004-47.png
00000014,541,1,1445008689996,1445008690522,875,528,0,0,0,5,1,4,51,0001-00-0002-83.png,0004-00-0001-65.png
00000014,542,1,1445008691447,1445008691939,327,431,0,0,0,1,5,4,15,0004-00-0005-67.png,0001-00-0000-44.png
00000014,543,1,1445008693029,1445008693567,877,439,0,0,0,5,2,3,52,0001-00-0005-27.png,0002-00-0004-02.png
00000014,544,1,1445008694627,1445008695132,328,430,0,0,0,1,2,1,12,0004-00-0004-92.png,0002-00-0007-15.png
00000014,545,0,1445008696149,1445008697067,418,490,0,0,0,4,3,1,43,0005-00-0007-73.png,0003-00-0002-87.png
00000014,546,0,1445008700302,1445008700756,928,417,0,0,0,4,5,1,45,0005-00-0000-09.png,0001-00-0002-20.png
00000014,547,1,1445008703632,1445008704102,364,457,0,0,0,2,5,3,25,0002-00-0006-66.png,0001-00-0002-18.png
00000014,548,0,1445008705000,1445008705491,892,464,0,0,0,3,5,2,35,0003-00-0001-18.png,0001-00-0006-51.png
00000014,549,0,1445008708359,1445008708760,947,368,0,0,0,1,4,3,14,0004-00-0003-70.png,0005-00-0007-97.png
00000014,550,1,1445008711692,1445008712105,338,384,0,0,0,2,3,1,23,0002-00-0008-71.png,0003-00-0004-29.png
00000014,551,0,1445008712961,1445008713518,428,562,0,0,0,5,4,1,54,0001-00-0007-43.png,0005-00-0006-87.png
00000014,552,1,1445008716562,1445008717402,868,457,0,0,0,5,3,2,53,0001-00-0005-38.png,0003-00-0002-94.png
00000014,553,1,1445008718408,1445008719002,279,434,0,0,0,1,3,2,13,0004-00-0005-28.png,0003-00-0005-18.png
00000014,554,1,1445008719951,1445008720454,915,396,0,0,0,4,1,3,41,0005-00-0000-00.png,0004-00-0000-45.png
00000014,555,1,1445008721360,1445008721809,345,426,0,0,0,2,4,2,24,0002-00-0004-72.png,0005-00-0006-80.png
00000014,556,1,1445008722812,1445008723338,913,424,0,0,0,4,2,2,42,0005-00-0006-03.png,0002-00-0003-41.png
00000014,557,1,1445008724369,1445008724896,920,376,0,0,0,3,1,2,31,0003-00-0007-85.png,0004-00-0004-98.png
00000014,558,1,1445008725941,1445008726408,877,493,0,0,0,2,1,1,21,0002-00-0003-20.png,0004-00-0001-77.png
00000014,559,1,1445008727510,1445008728195,427,371,0,0,0,3,4,1,34,0003-00-0005-93.png,0005-00-0008-61.png
00000014,560,1,1445008729251,1445008729737,905,428,0,0,0,3,2,1,32,0003-00-0001-95.png,0002-00-0002-07.png
00000014,561,1,1445008730663,1445008731150,362,523,0,0,0,1,4,3,14,0004-00-0006-18.png,0005-00-0000-97.png
00000014,562,0,1445008732205,1445008732637,318,437,0,0,0,5,3,2,53,0001-00-0003-05.png,0003-00-0005-28.png
00000014,563,1,1445008736134,1445008736554,954,410,0,0,0,2,1,1,21,0002-00-0006-47.png,0004-00-0007-99.png
00000014,564,1,1445008737523,1445008738006,883,501,0,0,0,5,1,4,51,0001-00-0004-45.png,0004-00-0005-58.png
00000014,565,1,1445008739042,1445008739533,869,393,0,0,0,3,1,2,31,0003-00-0007-78.png,0004-00-0000-13.png
00000014,566,1,1445008740572,1445008741057,944,409,0,0,0,4,1,3,41,0005-00-0004-33.png,0004-00-0005-50.png
00000014,567,0,1445008742086,1445008742663,887,424,0,0,0,2,5,3,25,0002-00-0009-65.png,0001-00-0005-97.png
00000014,568,1,1445008746716,1445008747172,361,496,0,0,0,2,4,2,24,0002-00-0002-90.png,0005-00-0002-12.png
00000014,569,1,1445008748163,1445008748661,926,423,0,0,0,3,2,1,32,0003-00-0008-68.png,0002-00-0007-92.png
00000014,570,1,1445008749687,1445008750181,914,423,0,0,0,4,2,2,42,0005-00-0005-37.png,0002-00-0003-29.png
00000014,571,1,1445008751167,1445008751650,343,444,0,0,0,1,5,4,15,0004-00-0004-19.png,0001-00-0009-16.png
00000014,572,0,1445008752749,1445008753773,888,397,0,0,0,4,5,1,45,0005-00-0000-08.png,0001-00-0002-61.png
00000014,573,0,1445008756812,1445008757318,374,475,0,0,0,5,4,1,54,0001-00-0007-77.png,0005-00-0000-13.png
00000014,574,1,1445008760867,1445008761270,349,427,0,0,0,1,3,2,13,0004-00-0002-83.png,0003-00-0008-24.png
00000014,575,0,1445008762288,1445008762795,919,416,0,0,0,3,5,2,35,0003-00-0005-67.png,0001-00-0009-36.png
00000014,576,0,1445008765857,1445008766288,897,446,0,0,0,3,4,1,34,0003-00-0003-86.png,0005-00-0009-87.png
00000014,577,1,1445008769313,1445008769749,902,413,0,0,0,4,3,1,43,0005-00-0005-04.png,0003-00-0008-82.png
00000014,578,1,1445008770625,1445008771165,912,424,0,0,0,5,2,3,52,0001-00-0004-36.png,0002-00-0007-53.png
00000014,579,1,1445008772178,1445008772630,438,449,0,0,0,2,3,1,23,0002-00-0004-36.png,0003-00-0009-39.png
00000014,580,0,1445008773649,1445008774183,902,409,0,0,0,1,2,1,12,0004-00-0008-92.png,0002-00-0000-54.png
00000014,581,1,1445008777124,1445008777212,513,513,0,0,0,2,5,3,25,0002-00-0007-03.png,0001-00-0000-47.png
00000014,582,1,1445008778179,1445008778705,876,493,0,0,0,4,3,1,43,0005-00-0002-70.png,0003-00-0006-62.png
00000014,583,1,1445008779660,1445008780128,905,401,0,0,0,3,2,1,32,0003-00-0002-91.png,0002-00-0002-68.png
00000014,584,0,1445008781110,1445008781620,890,419,0,0,0,2,3,1,23,0002-00-0000-45.png,0003-00-0002-38.png
00000014,585,1,1445008784707,1445008785114,928,413,0,0,0,4,1,3,41,0005-00-0002-13.png,0004-00-0000-83.png
00000014,586,1,1445008786110,1445008786554,355,439,0,0,0,1,5,4,15,0004-00-0007-02.png,0001-00-0005-92.png
00000014,587,1,1445008787492,1445008787970,325,423,0,0,0,2,4,2,24,0002-00-0006-59.png,0005-00-0005-71.png
00000014,588,1,1445008788962,1445008789475,903,445,0,0,0,2,1,1,21,0002-00-0006-34.png,0004-00-0009-39.png
00000014,589,1,1445008790546,1445008791000,895,420,0,0,0,4,2,2,42,0005-00-0001-13.png,0002-00-0000-37.png
00000014,590,1,1445008791963,1445008792487,401,462,0,0,0,3,4,1,34,0003-00-0000-47.png,0005-00-0002-14.png
00000014,591,0,1445008793597,1445008794072,357,463,0,0,0,5,3,2,53,0001-00-0002-47.png,0003-00-0008-37.png
00000014,592,1,1445008798148,1445008798574,372,530,0,0,0,1,3,2,13,0004-00-0001-20.png,0003-00-0000-36.png
00000014,593,1,1445008799558,1445008799990,874,383,0,0,0,5,2,3,52,0001-00-0003-57.png,0002-00-0002-43.png
00000014,594,0,1445008801029,1445008801537,895,411,0,0,0,4,5,1,45,0005-00-0004-44.png,0001-00-0008-04.png
00000014,595,1,1445008804598,1445008805074,367,463,0,0,0,1,4,3,14,0004-00-0001-64.png,0005-00-0004-84.png
00000014,596,1,1445008805989,1445008806466,867,533,0,0,0,3,1,2,31,0003-00-0004-33.png,0004-00-0003-72.png
00000014,597,1,1445008807398,1445008807891,401,423,0,0,0,3,5,2,35,0003-00-0009-36.png,0001-00-0009-94.png
00000014,598,1,1445008808950,1445008809459,880,454,0,0,0,5,4,1,54,0001-00-0009-53.png,0005-00-0008-23.png
00000014,599,0,1445008810491,1445008811068,902,414,0,0,0,1,2,1,12,0004-00-0000-94.png,0002-00-0009-82.png
00000014,600,1,1445008814736,1445008815198,877,448,0,0,0,5,1,4,51,0001-00-0008-39.png,0004-00-0001-53.png
00000014,601,1,1445008816155,1445008816587,376,410,0,0,0,1,4,3,14,0004-00-0004-11.png,0005-00-0000-46.png
00000014,602,1,1445008817517,1445008817937,318,452,0,0,0,2,4,2,24,0002-00-0001-11.png,0005-00-0007-53.png
00000014,603,1,1445008819038,1445008819521,925,438,0,0,0,4,1,3,41,0005-00-0000-47.png,0004-00-0001-69.png
00000014,604,0,1445008820628,1445008821159,382,490,0,0,0,2,1,1,21,0002-00-0007-49.png,0004-00-0005-69.png
00000014,605,1,1445008824345,1445008824794,869,408,0,0,0,4,2,2,42,0005-00-0003-35.png,0002-00-0000-76.png
00000014,606,0,1445008825805,1445008826242,317,448,0,0,0,5,4,1,54,0001-00-0009-66.png,0005-00-0008-49.png
00000014,607,1,1445008829425,1445008829847,411,502,0,0,0,3,4,1,34,0003-00-0000-42.png,0005-00-0005-86.png
00000014,608,1,1445008830804,1445008831258,395,387,0,0,0,2,3,1,23,0002-00-0000-14.png,0003-00-0000-18.png
00000014,609,1,1445008832176,1445008832690,893,390,0,0,0,4,3,1,43,0005-00-0004-26.png,0003-00-0006-31.png
00000014,610,1,1445008833607,1445008834113,920,410,0,0,0,3,1,2,31,0003-00-0009-55.png,0004-00-0003-85.png
00000014,611,1,1445008835047,1445008835548,904,419,0,0,0,3,2,1,32,0003-00-0008-10.png,0002-00-0000-76.png
00000014,612,1,1445008836517,1445008837014,433,491,0,0,0,3,5,2,35,0003-00-0005-28.png,0001-00-0005-76.png
00000014,613,0,1445008837963,1445008838487,900,411,0,0,0,4,5,1,45,0005-00-0005-58.png,0001-00-0003-83.png
00000014,614,0,1445008841387,1445008841850,376,449,0,0,0,5,3,2,53,0001-00-0003-70.png,0003-00-0009-33.png
00000014,615,1,1445008844917,1445008845355,338,390,0,0,0,1,2,1,12,0004-00-0008-65.png,0002-00-0002-57.png
00000014,616,1,1445008846285,1445008846701,401,423,0,0,0,1,5,4,15,0004-00-0002-18.png,0001-00-0005-82.png
00000014,617,1,1445008847690,1445008848195,903,410,0,0,0,5,2,3,52,0001-00-0004-03.png,0002-00-0008-20.png
00000014,618,0,1445008849152,1445008849614,345,442,0,0,0,5,1,4,51,0001-00-0003-23.png,0004-00-0006-86.png
00000014,619,1,1445008852459,1445008852883,376,332,0,0,0,1,3,2,13,0004-00-0003-26.png,0003-00-0009-80.png
00000014,620,1,1445008853831,1445008854279,401,436,0,0,0,2,5,3,25,0002-00-0006-13.png,0001-00-0005-90.png
00000014,621,1,1445008855245,1445008855744,873,510,0,0,0,3,1,2,31,0003-00-0003-87.png,0004-00-0008-62.png
00000014,622,0,1445008856844,1445008857320,896,419,0,0,0,3,5,2,35,0003-00-0009-42.png,0001-00-0003-28.png
00000014,623,1,1445008860312,1445008860754,290,360,0,0,0,1,4,3,14,0004-00-0005-45.png,0005-00-0001-52.png
00000014,624,0,1445008861683,1445008862103,407,461,0,0,0,5,3,2,53,0001-00-0003-43.png,0003-00-0003-11.png
00000014,625,1,1445008866091,1445008866521,376,384,0,0,0,2,3,1,23,0002-00-0001-72.png,0003-00-0003-48.png
00000014,626,1,1445008867458,1445008867952,900,488,0,0,0,5,2,3,52,0001-00-0008-34.png,0002-00-0000-68.png
00000014,627,1,1445008869123,1445008869617,899,385,0,0,0,5,1,4,51,0001-00-0006-08.png,0004-00-0002-68.png
00000014,628,1,1445008870591,1445008871085,927,414,0,0,0,4,2,2,42,0005-00-0009-34.png,0002-00-0003-54.png
00000014,629,1,1445008872117,1445008872600,893,410,0,0,0,4,3,1,43,0005-00-0000-52.png,0003-00-0007-04.png
00000014,630,1,1445008873567,1445008874053,932,414,0,0,0,4,1,3,41,0005-00-0005-25.png,0004-00-0003-60.png
00000014,631,0,1445008875237,1445008875748,896,420,0,0,0,3,4,1,34,0003-00-0005-79.png,0005-00-0008-98.png
00000014,632,0,1445008878674,1445008879143,921,389,0,0,0,1,2,1,12,0004-00-0007-14.png,0002-00-0006-39.png
00000014,633,1,1445008882145,1445008882594,380,539,0,0,0,4,5,1,45,0005-00-0002-59.png,0001-00-0003-71.png
00000014,634,1,1445008883536,1445008884019,376,423,0,0,0,1,5,4,15,0004-00-0003-65.png,0001-00-0001-74.png
00000014,635,1,1445008885017,1445008885488,397,436,0,0,0,1,3,2,13,0004-00-0000-58.png,0003-00-0005-89.png
00000014,636,0,1445008886460,1445008887048,899,438,0,0,0,2,4,2,24,0002-00-0006-71.png,0005-00-0005-68.png
00000014,637,1,1445008889935,1445008890380,875,384,0,0,0,2,1,1,21,0002-00-0000-23.png,0004-00-0005-97.png
00000014,638,1,1445008891266,1445008892240,874,359,0,0,0,3,2,1,32,0003-00-0001-16.png,0002-00-0007-58.png
00000014,639,1,1445008893247,1445008893667,366,535,0,0,0,2,5,3,25,0002-00-0005-84.png,0001-00-0003-20.png
00000014,640,1,1445008894647,1445008895143,887,424,0,0,0,5,4,1,54,0001-00-0000-19.png,0005-00-0000-42.png
00000014,641,1,1445008896200,1445008896683,400,439,0,0,0,2,3,1,23,0002-00-0002-94.png,0003-00-0004-77.png
00000014,642,1,1445008897660,1445008898164,898,430,0,0,0,2,1,1,21,0002-00-0007-11.png,0004-00-0000-08.png
00000014,643,1,1445008899239,1445008899724,386,454,0,0,0,3,5,2,35,0003-00-0001-17.png,0001-00-0000-07.png
00000014,644,1,1445008900681,1445008901177,905,416,0,0,0,4,2,2,42,0005-00-0006-00.png,0002-00-0000-20.png
00000014,645,0,1445008902191,1445008902727,887,450,0,0,0,1,2,1,12,0004-00-0004-25.png,0002-00-0008-42.png
00000014,646,1,1445008905820,1445008906234,331,411,0,0,0,2,4,2,24,0002-00-0006-74.png,0005-00-0008-15.png
00000014,647,1,1445008907190,1445008907716,887,449,0,0,0,4,3,1,43,0005-00-0009-01.png,0003-00-0000-73.png
00000014,648,1,1445008908679,1445008909118,362,449,0,0,0,4,5,1,45,0005-00-0008-98.png,0001-00-0009-05.png
00000014,649,1,1445008910102,1445008910550,363,424,0,0,0,1,5,4,15,0004-00-0005-10.png,0001-00-0001-26.png
00000014,650,1,1445008911722,1445008912213,901,409,0,0,0,4,1,3,41,0005-00-0005-31.png,0004-00-0000-90.png
00000014,651,1,1445008913273,1445008914240,883,413,0,0,0,5,2,3,52,0001-00-0006-20.png,0002-00-0009-54.png
00000014,652,1,1445008915480,1445008916006,339,423,0,0,0,1,3,2,13,0004-00-0006-37.png,0003-00-0004-84.png
00000014,653,1,1445008916999,1445008917549,897,405,0,0,0,3,2,1,32,0003-00-0008-57.png,0002-00-0007-43.png
00000014,654,0,1445008918592,1445008919049,893,512,0,0,0,1,4,3,14,0004-00-0000-94.png,0005-00-0004-18.png
00000014,655,1,1445008921896,1445008922466,927,402,0,0,0,5,1,4,51,0001-00-0009-68.png,0004-00-0002-40.png
00000014,656,1,1445008923418,1445008923986,342,420,0,0,0,3,4,1,34,0003-00-0002-82.png,0005-00-0003-75.png
00000014,657,1,1445008924970,1445008925452,401,436,0,0,0,2,5,3,25,0002-00-0006-68.png,0001-00-0000-64.png
00000014,658,1,1445008926458,1445008927448,901,409,0,0,0,5,4,1,54,0001-00-0002-42.png,0005-00-0004-09.png
00000014,659,1,1445008928497,1445008928952,869,418,0,0,0,3,1,2,31,0003-00-0005-65.png,0004-00-0000-85.png
00000014,660,1,1445008930020,1445008930567,877,424,0,0,0,5,3,2,53,0001-00-0000-68.png,0003-00-0002-83.png
00000014,661,0,1445008931631,1445008932164,392,388,0,0,0,5,3,2,53,0001-00-0003-20.png,0003-00-0008-47.png
00000014,662,1,1445008935258,1445008935810,314,371,0,0,0,1,4,3,14,0004-00-0000-19.png,0005-00-0008-41.png
00000014,663,1,1445008936689,1445008937175,876,502,0,0,0,2,1,1,21,0002-00-0005-49.png,0004-00-0002-77.png
00000014,664,1,1445008938101,1445008938521,350,423,0,0,0,2,3,1,23,0002-00-0002-90.png,0003-00-0006-67.png
00000014,665,0,1445008939532,1445008940022,902,414,0,0,0,4,5,1,45,0005-00-0004-77.png,0001-00-0009-46.png
00000014,666,0,1445008943010,1445008943474,923,428,0,0,0,1,2,1,12,0004-00-0003-19.png,0002-00-0001-79.png
00000014,667,0,1445008946696,1445008947189,260,541,0,0,0,5,4,1,54,0001-00-0008-54.png,0005-00-0003-60.png
00000014,668,1,1445008950672,1445008951151,407,522,0,0,0,1,5,4,15,0004-00-0004-95.png,0001-00-0007-31.png
00000014,669,0,1445008952051,1445008952569,914,423,0,0,0,3,5,2,35,0003-00-0000-38.png,0001-00-0005-79.png
00000014,670,1,1445008956546,1445008956975,927,384,0,0,0,3,2,1,32,0003-00-0004-40.png,0002-00-0008-97.png
00000014,671,1,1445008957947,1445008958443,874,482,0,0,0,4,1,3,41,0005-00-0001-93.png,0004-00-0009-72.png
00000014,672,1,1445008959389,1445008960080,341,375,0,0,0,2,4,2,24,0002-00-0009-58.png,0005-00-0004-02.png
00000014,673,0,1445008961037,1445008961934,868,360,0,0,0,3,4,1,34,0003-00-0005-31.png,0005-00-0000-26.png
00000014,674,0,1445008965251,1445008965666,926,411,0,0,0,2,5,3,25,0002-00-0007-16.png,0001-00-0008-32.png
00000014,675,1,1445008968570,1445008968978,896,368,0,0,0,4,3,1,43,0005-00-0002-78.png,0003-00-0005-28.png
00000014,676,0,1445008970000,1445008970443,381,453,0,0,0,5,1,4,51,0001-00-0007-97.png,0004-00-0000-17.png
00000014,677,0,1445008973488,1445008973508,504,439,0,0,0,5,2,3,52,0001-00-0008-80.png,0002-00-0003-32.png
00000014,678,1,1445008976471,1445008976988,292,409,0,0,0,1,3,2,13,0004-00-0009-07.png,0003-00-0009-88.png
00000014,679,1,1445008977870,1445008978417,919,477,0,0,0,3,1,2,31,0003-00-0006-17.png,0004-00-0001-90.png
00000014,680,1,1445008979342,1445008979855,919,416,0,0,0,4,2,2,42,0005-00-0005-78.png,0002-00-0002-49.png
00000014,681,1,1445008980923,1445008981442,884,417,0,0,0,4,3,1,43,0005-00-0000-80.png,0003-00-0005-38.png
00000014,682,1,1445008982432,1445008982872,346,446,0,0,0,2,3,1,23,0002-00-0006-69.png,0003-00-0000-64.png
00000014,683,1,1445008983913,1445008984498,927,418,0,0,0,2,1,1,21,0002-00-0007-57.png,0004-00-0003-09.png
00000014,684,1,1445008985659,1445008986131,325,475,0,0,0,1,3,2,13,0004-00-0006-52.png,0003-00-0002-51.png
00000014,685,0,1445008987044,1445008987547,369,442,0,0,0,5,3,2,53,0001-00-0000-80.png,0003-00-0008-46.png
00000014,686,1,1445008990980,1445008991428,299,449,0,0,0,1,4,3,14,0004-00-0001-21.png,0005-00-0007-40.png
00000014,687,1,1445008992340,1445008992852,902,417,0,0,0,4,1,3,41,0005-00-0003-08.png,0004-00-0007-94.png
00000014,688,1,1445008993849,1445008994295,373,410,0,0,0,1,5,4,15,0004-00-0001-82.png,0001-00-0002-72.png
00000014,689,1,1445008995224,1445008995721,906,402,0,0,0,3,1,2,31,0003-00-0008-37.png,0004-00-0006-96.png
00000014,690,1,1445008996764,1445008997251,926,443,0,0,0,5,2,3,52,0001-00-0001-54.png,0002-00-0006-17.png
00000014,691,0,1445008998433,1445008998927,915,466,0,0,0,3,4,1,34,0003-00-0003-71.png,0005-00-0006-08.png
00000014,692,0,1445009001904,1445009002365,303,396,0,0,0,5,4,1,54,0001-00-0009-46.png,0005-00-0006-61.png
00000014,693,1,1445009005439,1445009005831,312,373,0,0,0,2,4,2,24,0002-00-0004-57.png,0005-00-0008-15.png
00000014,694,1,1445009006752,1445009007263,930,427,0,0,0,3,2,1,32,0003-00-0006-53.png,0002-00-0004-94.png
00000014,695,1,1445009008343,1445009008839,922,419,0,0,0,5,1,4,51,0001-00-0004-69.png,0004-00-0002-14.png
00000014,696,1,1445009009883,1445009010359,913,439,0,0,0,4,2,2,42,0005-00-0002-13.png,0002-00-0006-96.png
00000014,697,1,1445009011483,1445009011917,334,439,0,0,0,4,5,1,45,0005-00-0004-18.png,0001-00-0002-54.png
00000014,698,0,1445009012996,1445009013516,860,552,0,0,0,1,2,1,12,0004-00-0000-71.png,0002-00-0007-12.png
00000014,699,1,1445009016622,1445009017085,350,384,0,0,0,3,5,2,35,0003-00-0005-45.png,0001-00-0004-52.png
00000014,700,0,1445009017983,1445009018555,887,448,0,0,0,2,5,3,25,0002-00-0001-24.png,0001-00-0000-35.png
00000014,701,1,1445009021725,1445009022168,902,450,0,0,0,5,1,4,51,0001-00-0004-37.png,0004-00-0003-47.png
00000014,702,1,1445009023092,1445009023587,902,410,0,0,0,4,2,2,42,0005-00-0006-70.png,0002-00-0007-94.png
00000014,703,0,1445009024541,1445009025055,900,449,0,0,0,1,2,1,12,0004-00-0007-86.png,0002-00-0001-06.png
00000014,704,1,1445009028533,1445009028941,899,509,0,0,0,5,2,3,52,0001-00-0002-03.png,0002-00-0005-30.png
00000014,705,1,1445009029869,1445009030360,925,438,0,0,0,4,1,3,41,0005-00-0003-89.png,0004-00-0005-85.png
00000014,706,1,1445009031312,1445009031905,321,384,0,0,0,3,5,2,35,0003-00-0007-07.png,0001-00-0008-38.png
00000014,707,0,1445009032907,1445009033472,347,414,0,0,0,4,3,1,43,0005-00-0000-85.png,0003-00-0002-19.png
00000014,708,1,1445009036509,1445009036941,355,409,0,0,0,2,3,1,23,0002-00-0008-43.png,0003-00-0005-78.png
00000014,709,1,1445009037817,1445009038304,937,398,0,0,0,2,1,1,21,0002-00-0008-53.png,0004-00-0006-99.png
00000014,710,1,1445009039290,1445009039743,376,436,0,0,0,1,4,3,14,0004-00-0004-48.png,0005-00-0001-90.png
00000014,711,1,1445009040851,1445009041257,357,444,0,0,0,1,5,4,15,0004-00-0001-70.png,0001-00-0007-58.png
00000014,712,0,1445009042222,1445009042651,401,436,0,0,0,5,3,2,53,0001-00-0001-34.png,0003-00-0003-04.png
00000014,713,1,1445009045510,1445009045941,900,463,0,0,0,3,1,2,31,0003-00-0006-29.png,0004-00-0009-75.png
00000014,714,0,1445009046861,1445009047349,873,509,0,0,0,4,5,1,45,0005-00-0007-65.png,0001-00-0001-82.png
00000014,715,1,1445009050392,1445009050929,904,496,0,0,0,5,4,1,54,0001-00-0006-91.png,0005-00-0004-26.png
00000014,716,1,1445009051823,1445009052297,332,445,0,0,0,3,4,1,34,0003-00-0003-07.png,0005-00-0000-80.png
00000014,717,1,1445009053401,1445009053887,899,412,0,0,0,3,2,1,32,0003-00-0007-98.png,0002-00-0004-13.png
00000014,718,0,1445009054776,1445009055282,899,432,0,0,0,2,5,3,25,0002-00-0008-72.png,0001-00-0001-78.png
00000014,719,1,1445009058506,1445009058957,299,410,0,0,0,2,4,2,24,0002-00-0003-71.png,0005-00-0009-00.png
00000014,720,1,1445009059842,1445009060291,361,445,0,0,0,1,3,2,13,0004-00-0008-87.png,0003-00-0005-95.png
00000014,721,0,1445009061243,1445009061767,876,459,0,0,0,1,5,4,15,0004-00-0000-64.png,0001-00-0001-62.png
00000014,722,1,1445009064730,1445009065141,347,379,0,0,0,2,3,1,23,0002-00-0008-76.png,0003-00-0006-32.png
00000014,723,1,1445009066043,1445009066552,905,506,0,0,0,3,1,2,31,0003-00-0006-94.png,0004-00-0004-92.png
00000014,724,1,1445009067596,1445009068146,876,520,0,0,0,3,2,1,32,0003-00-0005-44.png,0002-00-0006-09.png
00000014,725,1,1445009069136,1445009069569,367,402,0,0,0,1,3,2,13,0004-00-0004-00.png,0003-00-0001-12.png
00000014,726,0,1445009070706,1445009071240,386,423,0,0,0,5,4,1,54,0001-00-0001-39.png,0005-00-0006-61.png
00000014,727,0,1445009074393,1445009074942,903,520,0,0,0,3,4,1,34,0003-00-0007-11.png,0005-00-0006-42.png
00000014,728,1,1445009077842,1445009077858,520,430,0,0,0,2,4,2,24,0002-00-0007-93.png,0005-00-0007-95.png
00000014,729,0,1445009078872,1445009079408,374,411,0,0,0,2,1,1,21,0002-00-0003-34.png,0004-00-0009-78.png
00000014,730,0,1445009082471,1445009082877,898,474,0,0,0,1,2,1,12,0004-00-0004-24.png,0002-00-0000-79.png
00000014,731,0,1445009085830,1445009086296,901,417,0,0,0,4,5,1,45,0005-00-0008-47.png,0001-00-0003-31.png
00000014,732,1,1445009090689,1445009091140,929,410,0,0,0,4,1,3,41,0005-00-0008-08.png,0004-00-0005-63.png
00000014,733,1,1445009092461,1445009092902,872,506,0,0,0,5,1,4,51,0001-00-0009-16.png,0004-00-0003-71.png
00000014,734,0,1445009094379,1445009094845,917,423,0,0,0,3,5,2,35,0003-00-0002-96.png,0001-00-0003-71.png
00000014,735,1,1445009099625,1445009100090,299,397,0,0,0,1,4,3,14,0004-00-0001-31.png,0005-00-0009-36.png
00000014,736,1,1445009101185,1445009101729,890,412,0,0,0,4,3,1,43,0005-00-0006-02.png,0003-00-0001-77.png
00000014,737,1,1445009102996,1445009103485,897,419,0,0,0,5,2,3,52,0001-00-0004-62.png,0002-00-0002-16.png
00000014,738,1,1445009104667,1445009106395,314,438,0,0,0,2,5,3,25,0002-00-0004-08.png,0001-00-0004-47.png
00000014,739,1,1445009107532,1445009108039,900,440,0,0,0,4,2,2,42,0005-00-0006-95.png,0002-00-0002-25.png
00000014,740,0,1445009109107,1445009109710,362,449,0,0,0,5,3,2,53,0001-00-0001-97.png,0003-00-0000-23.png
00000014,741,1,1445009112997,1445009113417,350,423,0,0,0,2,3,1,23,0002-00-0000-59.png,0003-00-0002-78.png
00000014,742,0,1445009114375,1445009114862,401,566,0,0,0,4,3,1,43,0005-00-0007-07.png,0003-00-0009-68.png
00000014,743,1,1445009119743,1445009120185,332,422,0,0,0,1,3,2,13,0004-00-0001-93.png,0003-00-0007-05.png
00000014,744,1,1445009122227,1445009124272,376,451,0,0,0,3,4,1,34,0003-00-0002-63.png,0005-00-0007-49.png
00000014,745,0,1445009125390,1445009125931,896,454,0,0,0,1,2,1,12,0004-00-0005-49.png,0002-00-0000-07.png
00000014,746,0,1445009130645,1445009131131,913,439,0,0,0,4,5,1,45,0005-00-0009-46.png,0001-00-0003-60.png
00000014,747,0,1445009135534,1445009135962,329,409,0,0,0,5,3,2,53,0001-00-0002-91.png,0003-00-0001-37.png
00000014,748,1,1445009139030,1445009139493,918,454,0,0,0,5,4,1,54,0001-00-0000-03.png,0005-00-0007-97.png
00000014,749,1,1445009140568,1445009141015,406,466,0,0,0,2,4,2,24,0002-00-0001-27.png,0005-00-0002-64.png
00000014,750,1,1445009142079,1445009142603,866,540,0,0,0,4,2,2,42,0005-00-0003-58.png,0002-00-0005-88.png
00000014,751,1,1445009143894,1445009144318,386,410,0,0,0,1,5,4,15,0004-00-0009-13.png,0001-00-0008-69.png
00000014,752,1,1445009145435,1445009145899,911,424,0,0,0,3,2,1,32,0003-00-0005-95.png,0002-00-0005-54.png
00000014,753,0,1445009147011,1445009147515,890,465,0,0,0,1,4,3,14,0004-00-0003-40.png,0005-00-0001-94.png
00000014,754,0,1445009150474,1445009150894,930,499,0,0,0,3,5,2,35,0003-00-0008-02.png,0001-00-0001-81.png
00000014,755,1,1445009159475,1445009159959,879,443,0,0,0,2,1,1,21,0002-00-0003-53.png,0004-00-0001-99.png
00000014,756,1,1445009161061,1445009161564,923,457,0,0,0,5,2,3,52,0001-00-0000-36.png,0002-00-0001-27.png
00000014,757,0,1445009162619,1445009163078,376,436,0,0,0,5,1,4,51,0001-00-0004-29.png,0004-00-0008-53.png
00000014,758,0,1445009167804,1445009168235,376,475,0,0,0,3,1,2,31,0003-00-0001-37.png,0004-00-0003-53.png
00000014,759,1,1445009175136,1445009175559,362,397,0,0,0,2,5,3,25,0002-00-0006-66.png,0001-00-0009-25.png
00000014,760,1,1445009176857,1445009177805,912,461,0,0,0,4,1,3,41,0005-00-0002-18.png,0004-00-0000-01.png
00000014,761,1,1445009178944,1445009179401,867,511,0,0,0,5,2,3,52,0001-00-0001-48.png,0002-00-0009-57.png
00000014,762,1,1445009180425,1445009181438,376,423,0,0,0,3,5,2,35,0003-00-0007-01.png,0001-00-0009-31.png
00000014,763,1,1445009182505,1445009182953,887,502,0,0,0,4,2,2,42,0005-00-0000-82.png,0002-00-0009-73.png
00000014,764,0,1445009184033,1445009184516,921,419,0,0,0,1,5,4,15,0004-00-0003-53.png,0001-00-0001-83.png
00000014,765,0,1445009188694,1445009189169,361,469,0,0,0,4,3,1,43,0005-00-0000-50.png,0003-00-0000-18.png
00000014,766,1,1445009192083,1445009192099,493,354,0,0,0,2,3,1,23,0002-00-0009-43.png,0003-00-0004-27.png
00000014,767,1,1445009193114,1445009193610,870,524,0,0,0,5,3,2,53,0001-00-0007-95.png,0003-00-0004-71.png
00000014,768,1,1445009194746,1445009195198,367,435,0,0,0,1,3,2,13,0004-00-0007-16.png,0003-00-0000-19.png
00000014,769,1,1445009196755,1445009197195,381,429,0,0,0,2,5,3,25,0002-00-0007-16.png,0001-00-0007-11.png
00000014,770,1,1445009198205,1445009198660,358,445,0,0,0,1,4,3,14,0004-00-0005-36.png,0005-00-0006-32.png
00000014,771,1,1445009199653,1445009200137,427,436,0,0,0,2,4,2,24,0002-00-0002-23.png,0005-00-0004-68.png
00000014,772,1,1445009201190,1445009201694,362,448,0,0,0,1,2,1,12,0004-00-0002-09.png,0002-00-0008-89.png
00000014,773,1,1445009202639,1445009203144,932,419,0,0,0,3,1,2,31,0003-00-0008-26.png,0004-00-0001-20.png
00000014,774,0,1445009204169,1445009204680,421,440,0,0,0,2,1,1,21,0002-00-0001-28.png,0004-00-0002-46.png
00000014,775,1,1445009210579,1445009211008,950,456,0,0,0,4,1,3,41,0005-00-0001-79.png,0004-00-0008-35.png
00000014,776,1,1445009212379,1445009212843,361,467,0,0,0,3,4,1,34,0003-00-0009-57.png,0005-00-0001-37.png
00000014,777,1,1445009214117,1445009214581,900,423,0,0,0,5,1,4,51,0001-00-0007-44.png,0004-00-0005-74.png
00000014,778,0,1445009215844,1445009216402,886,398,0,0,0,4,5,1,45,0005-00-0007-81.png,0001-00-0001-46.png
00000014,779,1,1445009219305,1445009219708,872,367,0,0,0,3,2,1,32,0003-00-0006-31.png,0002-00-0003-63.png
00000014,780,1,1445009220667,1445009221210,876,476,0,0,0,5,4,1,54,0001-00-0004-60.png,0005-00-0008-10.png
00000014,781,1,1445009222366,1445009222831,427,462,0,0,0,2,3,1,23,0002-00-0002-34.png,0003-00-0001-03.png
00000014,782,1,1445009223887,1445009224403,924,442,0,0,0,2,1,1,21,0002-00-0001-15.png,0004-00-0001-22.png
00000014,783,1,1445009225340,1445009225824,923,432,0,0,0,4,1,3,41,0005-00-0006-39.png,0004-00-0005-50.png
00000014,784,1,1445009226819,1445009227304,449,485,0,0,0,3,5,2,35,0003-00-0004-36.png,0001-00-0008-85.png
00000014,785,0,1445009228431,1445009228946,374,439,0,0,0,5,3,2,53,0001-00-0008-40.png,0003-00-0002-04.png
00000014,786,0,1445009233987,1445009234465,896,445,0,0,0,2,4,2,24,0002-00-0008-67.png,0005-00-0009-76.png
00000014,787,1,1445009237930,1445009238469,361,347,0,0,0,1,3,2,13,0004-00-0008-08.png,0003-00-0006-14.png
00000014,788,0,1445009239543,1445009240030,878,442,0,0,0,3,4,1,34,0003-00-0008-78.png,0005-00-0003-03.png
00000014,789,1,1445009243636,1445009244151,924,437,0,0,0,5,2,3,52,0001-00-0009-44.png,0002-00-0008-62.png
00000014,790,0,1445009245223,1445009245720,889,462,0,0,0,1,5,4,15,0004-00-0002-67.png,0001-00-0002-83.png
00000014,791,1,1445009248755,1445009249198,898,434,0,0,0,3,2,1,32,0003-00-0001-42.png,0002-00-0003-40.png
00000014,792,1,1445009250365,1445009250809,401,435,0,0,0,2,5,3,25,0002-00-0000-24.png,0001-00-0001-68.png
00000014,793,1,1445009251816,1445009252331,921,416,0,0,0,4,2,2,42,0005-00-0000-19.png,0002-00-0009-53.png
00000014,794,1,1445009253357,1445009253859,900,449,0,0,0,3,1,2,31,0003-00-0001-82.png,0004-00-0003-29.png
00000014,795,1,1445009254918,1445009255386,343,469,0,0,0,4,5,1,45,0005-00-0007-36.png,0001-00-0009-78.png
00000014,796,0,1445009256300,1445009256826,892,409,0,0,0,1,2,1,12,0004-00-0001-38.png,0002-00-0004-00.png
00000014,797,1,1445009260621,1445009261068,393,428,0,0,0,1,4,3,14,0004-00-0006-74.png,0005-00-0001-53.png
00000014,798,0,1445009262081,1445009262573,363,443,0,0,0,4,3,1,43,0005-00-0007-23.png,0003-00-0004-09.png
00000014,799,0,1445009265500,1445009265560,478,505,0,0,0,5,1,4,51,0001-00-0008-79.png,0004-00-0005-59.png
00000014,800,0,1445009268602,1445009269076,418,363,0,0,0,5,4,1,54,0001-00-0000-87.png,0005-00-0009-51.png
00000014,801,1,1445009272061,1445009272089,511,436,0,0,0,4,5,1,45,0005-00-0000-99.png,0001-00-0000-62.png
00000014,802,1,1445009273045,1445009273535,907,455,0,0,0,4,2,2,42,0005-00-0009-91.png,0002-00-0006-59.png
00000014,803,0,1445009274447,1445009275052,420,512,0,0,0,3,1,2,31,0003-00-0001-05.png,0004-00-0000-88.png
00000014,804,1,1445009277963,1445009278427,902,434,0,0,0,4,3,1,43,0005-00-0005-09.png,0003-00-0000-81.png
00000014,805,1,1445009279627,1445009280110,350,430,0,0,0,1,5,4,15,0004-00-0004-15.png,0001-00-0007-65.png
00000014,806,1,1445009281026,1445009281534,917,425,0,0,0,3,2,1,32,0003-00-0000-93.png,0002-00-0006-63.png
00000014,807,1,1445009282527,1445009283019,911,419,0,0,0,5,1,4,51,0001-00-0006-85.png,0004-00-0004-38.png
00000014,808,1,1445009283958,1445009284551,427,384,0,0,0,2,5,3,25,0002-00-0006-84.png,0001-00-0004-46.png
00000014,809,0,1445009285559,1445009286004,402,566,0,0,0,4,1,3,41,0005-00-0004-55.png,0004-00-0006-02.png
00000014,810,1,1445009288946,1445009289352,363,528,0,0,0,1,3,2,13,0004-00-0006-77.png,0003-00-0002-76.png
00000014,811,0,1445009290218,1445009290652,376,410,0,0,0,5,4,1,54,0001-00-0003-56.png,0005-00-0005-14.png
00000014,812,1,1445009293717,1445009293745,495,447,0,0,0,3,4,1,34,0003-00-0003-34.png,0005-00-0001-28.png
00000014,813,1,1445009294682,1445009295163,299,474,0,0,0,1,4,3,14,0004-00-0009-64.png,0005-00-0003-47.png
00000014,814,1,1445009296381,1445009296832,870,497,0,0,0,5,3,2,53,0001-00-0001-86.png,0003-00-0004-80.png
00000014,815,1,1445009297743,1445009298228,376,410,0,0,0,2,4,2,24,0002-00-0002-75.png,0005-00-0002-87.png
00000014,816,1,1445009299312,1445009299779,314,441,0,0,0,1,2,1,12,0004-00-0003-79.png,0002-00-0007-34.png
00000014,817,1,1445009300695,1445009301132,376,423,0,0,0,2,3,1,23,0002-00-0002-38.png,0003-00-0008-09.png
00000014,818,0,1445009302095,1445009302611,862,475,0,0,0,3,5,2,35,0003-00-0004-14.png,0001-00-0006-72.png
00000014,819,0,1445009305521,1445009306116,338,518,0,0,0,2,1,1,21,0002-00-0006-77.png,0004-00-0008-61.png
00000014,820,1,1445009309439,1445009309839,883,526,0,0,0,5,2,3,52,0001-00-0005-75.png,0002-00-0001-54.png
00000014,821,0,1445009310731,1445009311643,438,406,0,0,0,4,1,3,41,0005-00-0001-60.png,0004-00-0008-10.png
00000014,822,1,1445009317802,1445009318277,347,383,0,0,0,1,3,2,13,0004-00-0008-84.png,0003-00-0001-58.png
00000014,823,1,1445009321336,1445009321956,326,374,0,0,0,2,3,1,23,0002-00-0009-15.png,0003-00-0002-55.png
00000014,824,1,1445009323050,1445009323530,901,440,0,0,0,2,1,1,21,0002-00-0009-76.png,0004-00-0000-19.png
00000014,825,1,1445009324464,1445009325366,927,398,0,0,0,3,2,1,32,0003-00-0006-44.png,0002-00-0009-44.png
00000014,826,1,1445009326353,1445009326809,375,413,0,0,0,1,4,3,14,0004-00-0008-40.png,0005-00-0002-37.png
00000014,827,1,1445009327767,1445009328236,338,441,0,0,0,1,5,4,15,0004-00-0004-27.png,0001-00-0001-19.png
00000014,828,1,1445009329186,1445009329679,339,491,0,0,0,2,4,2,24,0002-00-0004-11.png,0005-00-0007-41.png
00000014,829,1,1445009330708,1445009331183,426,471,0,0,0,2,5,3,25,0002-00-0001-50.png,0001-00-0008-52.png
00000014,830,0,1445009332179,1445009332710,888,429,0,0,0,3,5,2,35,0003-00-0006-41.png,0001-00-0005-66.png
00000014,831,0,1445009335806,1445009336261,903,440,0,0,0,4,5,1,45,0005-00-0002-74.png,0001-00-0008-13.png
00000014,832,1,1445009340477,1445009341048,418,424,0,0,0,1,2,1,12,0004-00-0004-40.png,0002-00-0006-85.png
00000014,833,1,1445009342048,1445009343027,874,412,0,0,0,4,3,1,43,0005-00-0009-35.png,0003-00-0003-63.png
00000014,834,0,1445009344065,1445009344601,874,422,0,0,0,3,4,1,34,0003-00-0004-12.png,0005-00-0009-01.png
00000014,835,1,1445009361141,1445009361585,953,450,0,0,0,4,2,2,42,0005-00-0000-38.png,0002-00-0009-13.png
00000014,836,0,1445009362871,1445009363301,366,443,0,0,0,5,3,2,53,0001-00-0008-54.png,0003-00-0000-37.png
00000014,837,0,1445009368229,1445009368744,366,426,0,0,0,5,2,3,52,0001-00-0005-91.png,0002-00-0001-93.png
00000014,838,0,1445009371706,1445009372137,375,374,0,0,0,5,1,4,51,0001-00-0009-67.png,0004-00-0006-09.png
00000014,839,0,1445009375631,1445009376073,327,433,0,0,0,5,4,1,54,0001-00-0001-83.png,0005-00-0004-80.png
00000014,840,1,1445009383867,1445009384280,977,359,0,0,0,3,1,2,31,0003-00-0007-66.png,0004-00-0003-95.png
00000014,841,1,1445009385366,1445009386612,393,427,0,0,0,2,3,1,23,0002-00-0009-77.png,0003-00-0008-90.png
00000014,842,1,1445009387741,1445009388186,384,444,0,0,0,2,5,3,25,0002-00-0009-22.png,0001-00-0005-73.png
00000014,843,1,1445009389360,1445009389857,931,422,0,0,0,5,2,3,52,0001-00-0002-00.png,0002-00-0002-94.png
00000014,844,1,1445009390891,1445009391358,876,501,0,0,0,3,2,1,32,0003-00-0002-97.png,0002-00-0000-06.png
00000014,845,1,1445009392381,1445009392868,419,481,0,0,0,3,5,2,35,0003-00-0008-62.png,0001-00-0004-53.png
00000014,846,0,1445009393783,1445009394226,435,453,0,0,0,5,1,4,51,0001-00-0006-33.png,0004-00-0006-09.png
00000014,847,1,1445009398954,1445009399394,311,397,0,0,0,1,2,1,12,0004-00-0004-12.png,0002-00-0006-48.png
00000014,848,1,1445009400249,1445009400733,906,453,0,0,0,5,3,2,53,0001-00-0004-17.png,0003-00-0004-97.png
00000014,849,0,1445009401663,1445009402185,873,545,0,0,0,3,4,1,34,0003-00-0001-80.png,0005-00-0008-86.png
00000014,850,0,1445009406642,1445009407138,888,489,0,0,0,1,5,4,15,0004-00-0002-35.png,0001-00-0006-17.png
00000014,851,0,1445009409969,1445009410412,930,375,0,0,0,1,3,2,13,0004-00-0006-65.png,0003-00-0001-92.png
00000014,852,0,1445009414315,1445009414766,414,423,0,0,0,4,3,1,43,0005-00-0005-83.png,0003-00-0004-16.png
00000014,853,1,1445009418685,1445009419112,350,421,0,0,0,4,5,1,45,0005-00-0001-81.png,0001-00-0006-99.png
00000014,854,1,1445009420487,1445009420964,943,439,0,0,0,4,1,3,41,0005-00-0003-48.png,0004-00-0006-87.png
00000014,855,0,1445009422017,1445009422570,918,508,0,0,0,1,4,3,14,0004-00-0004-89.png,0005-00-0003-44.png
00000014,856,0,1445009426010,1445009426478,387,397,0,0,0,2,1,1,21,0002-00-0006-34.png,0004-00-0005-64.png
00000014,857,1,1445009429570,1445009430072,950,439,0,0,0,5,4,1,54,0001-00-0003-09.png,0005-00-0003-81.png
00000014,858,1,1445009431130,1445009431561,376,450,0,0,0,2,4,2,24,0002-00-0008-32.png,0005-00-0008-15.png
00000014,859,1,1445009432472,1445009433002,876,449,0,0,0,4,2,2,42,0005-00-0004-51.png,0002-00-0000-89.png
00000014,860,1,1445009433942,1445009434404,902,410,0,0,0,3,1,2,31,0003-00-0000-03.png,0004-00-0003-23.png
00000014,861,1,1445009435366,1445009435905,902,413,0,0,0,5,2,3,52,0001-00-0008-94.png,0002-00-0002-65.png
00000014,862,1,1445009436833,1445009437259,413,410,0,0,0,1,3,2,13,0004-00-0006-05.png,0003-00-0004-78.png
00000014,863,1,1445009438206,1445009438679,338,439,0,0,0,2,4,2,24,0002-00-0008-45.png,0005-00-0003-89.png
00000014,864,0,1445009439657,1445009440239,894,446,0,0,0,1,5,4,15,0004-00-0000-27.png,0001-00-0005-18.png
00000014,865,1,1445009443723,1445009444156,342,422,0,0,0,4,5,1,45,0005-00-0006-40.png,0001-00-0000-92.png
00000014,866,0,1445009445241,1445009445807,875,474,0,0,0,2,3,1,23,0002-00-0001-19.png,0003-00-0007-33.png
00000014,867,1,1445009449508,1445009449933,389,436,0,0,0,1,2,1,12,0004-00-0006-11.png,0002-00-0001-62.png
00000014,868,1,1445009450916,1445009451406,896,524,0,0,0,4,1,3,41,0005-00-0004-93.png,0004-00-0006-20.png
00000014,869,1,1445009452380,1445009452859,333,449,0,0,0,3,4,1,34,0003-00-0006-76.png,0005-00-0006-79.png
00000014,870,1,1445009453838,1445009454387,346,414,0,0,0,1,4,3,14,0004-00-0003-11.png,0005-00-0000-55.png
00000014,871,1,1445009455258,1445009455760,872,508,0,0,0,4,2,2,42,0005-00-0002-94.png,0002-00-0005-63.png
00000014,872,1,1445009456739,1445009457276,875,436,0,0,0,4,3,1,43,0005-00-0006-27.png,0003-00-0007-78.png
00000014,873,1,1445009458340,1445009458838,903,442,0,0,0,3,2,1,32,0003-00-0003-08.png,0002-00-0001-32.png
00000014,874,1,1445009459781,1445009460306,919,442,0,0,0,3,1,2,31,0003-00-0000-10.png,0004-00-0009-96.png
00000014,875,0,1445009461251,1445009461745,360,458,0,0,0,2,1,1,21,0002-00-0005-88.png,0004-00-0001-07.png
00000014,876,0,1445009465177,1445009465800,901,417,0,0,0,3,5,2,35,0003-00-0003-68.png,0001-00-0006-57.png
00000014,877,1,1445009469288,1445009469794,863,519,0,0,0,5,3,2,53,0001-00-0009-91.png,0003-00-0008-83.png
00000014,878,1,1445009470783,1445009471214,401,410,0,0,0,2,5,3,25,0002-00-0005-30.png,0001-00-0001-34.png
00000014,879,1,1445009472242,1445009472788,908,453,0,0,0,5,4,1,54,0001-00-0000-33.png,0005-00-0007-88.png
00000014,880,1,1445009473725,1445009474198,924,457,0,0,0,5,1,4,51,0001-00-0008-28.png,0004-00-0000-27.png
00000014,881,1,1445009475285,1445009475791,933,422,0,0,0,2,1,1,21,0002-00-0007-63.png,0004-00-0007-13.png
00000014,882,1,1445009476683,1445009477186,916,437,0,0,0,3,2,1,32,0003-00-0005-92.png,0002-00-0005-33.png
00000014,883,1,1445009478085,1445009478552,430,427,0,0,0,1,2,1,12,0004-00-0002-41.png,0002-00-0003-59.png
00000014,884,1,1445009479439,1445009479875,403,466,0,0,0,2,5,3,25,0002-00-0001-05.png,0001-00-0005-93.png
00000014,885,1,1445009480877,1445009481353,893,451,0,0,0,4,1,3,41,0005-00-0001-86.png,0004-00-0004-07.png
00000014,886,1,1445009482216,1445009482633,401,411,0,0,0,1,3,2,13,0004-00-0004-36.png,0003-00-0004-74.png
00000014,887,0,1445009483591,1445009484114,393,417,0,0,0,4,3,1,43,0005-00-0007-22.png,0003-00-0007-03.png
00000014,888,1,1445009488284,1445009488778,927,476,0,0,0,5,1,4,51,0001-00-0006-56.png,0004-00-0003-86.png
00000014,889,1,1445009489809,1445009490309,875,528,0,0,0,5,2,3,52,0001-00-0004-32.png,0002-00-0004-90.png
00000014,890,1,1445009491371,1445009491861,342,463,0,0,0,4,5,1,45,0005-00-0004-38.png,0001-00-0002-01.png
00000014,891,0,1445009492853,1445009493559,899,413,0,0,0,2,3,1,23,0002-00-0006-43.png,0003-00-0001-19.png
00000014,892,0,1445009497231,1445009497718,892,536,0,0,0,3,4,1,34,0003-00-0009-09.png,0005-00-0005-18.png
00000014,893,1,1445009501184,1445009501576,325,403,0,0,0,1,5,4,15,0004-00-0006-11.png,0001-00-0001-01.png
00000014,894,1,1445009502513,1445009503007,875,508,0,0,0,5,3,2,53,0001-00-0005-85.png,0003-00-0000-26.png
00000014,895,0,1445009503921,1445009504508,902,418,0,0,0,3,5,2,35,0003-00-0001-67.png,0001-00-0004-46.png
00000014,896,1,1445009508836,1445009509314,362,445,0,0,0,1,4,3,14,0004-00-0003-10.png,0005-00-0002-11.png
00000014,897,1,1445009510523,1445009511050,897,501,0,0,0,3,1,2,31,0003-00-0006-26.png,0004-00-0001-66.png
00000014,898,1,1445009512162,1445009512584,389,436,0,0,0,2,4,2,24,0002-00-0002-35.png,0005-00-0005-88.png
00000014,899,1,1445009513502,1445009514482,870,550,0,0,0,4,2,2,42,0005-00-0006-27.png,0002-00-0005-38.png
00000014,900,1,1445009515492,1445009515997,922,434,0,0,0,5,4,1,54,0001-00-0009-13.png,0005-00-0000-71.png
00000014,901,0,1445009516892,1445009518218,902,442,0,0,0,4,5,1,45,0005-00-0002-77.png,0001-00-0008-50.png
00000014,902,1,1445009524927,1445009525453,365,419,0,0,0,1,3,2,13,0004-00-0002-74.png,0003-00-0004-34.png
00000014,903,1,1445009526791,1445009527292,382,472,0,0,0,2,3,1,23,0002-00-0001-69.png,0003-00-0006-44.png
00000014,904,1,1445009528299,1445009528692,350,423,0,0,0,2,4,2,24,0002-00-0006-63.png,0005-00-0007-62.png
00000014,905,1,1445009529624,1445009530131,935,444,0,0,0,3,2,1,32,0003-00-0002-71.png,0002-00-0006-83.png
00000014,906,0,1445009531154,1445009531662,894,395,0,0,0,2,5,3,25,0002-00-0000-33.png,0001-00-0007-57.png
00000014,907,1,1445009535720,1445009536202,923,491,0,0,0,4,1,3,41,0005-00-0004-24.png,0004-00-0002-43.png
00000014,908,1,1445009537364,1445009537840,901,409,0,0,0,5,2,3,52,0001-00-0004-48.png,0002-00-0009-47.png
00000014,909,0,1445009539278,1445009539746,945,413,0,0,0,1,5,4,15,0004-00-0005-23.png,0001-00-0002-47.png
00000014,910,1,1445009542572,1445009543043,904,397,0,0,0,2,1,1,21,0002-00-0002-68.png,0004-00-0000-06.png
00000014,911,0,1445009544038,1445009544552,921,445,0,0,0,1,2,1,12,0004-00-0001-48.png,0002-00-0000-01.png
00000014,912,1,1445009550187,1445009550663,363,424,0,0,0,1,4,3,14,0004-00-0004-44.png,0005-00-0007-22.png
00000014,913,1,1445009551639,1445009552105,927,410,0,0,0,5,1,4,51,0001-00-0006-43.png,0004-00-0006-01.png
00000014,914,1,1445009553289,1445009553796,906,445,0,0,0,4,2,2,42,0005-00-0002-67.png,0002-00-0003-39.png
00000014,915,0,1445009554818,1445009555310,362,425,0,0,0,5,4,1,54,0001-00-0002-19.png,0005-00-0009-27.png
00000014,916,0,1445009558881,1445009559314,921,445,0,0,0,3,5,2,35,0003-00-0000-51.png,0001-00-0004-18.png
00000014,917,1,1445009563056,1445009563514,938,410,0,0,0,4,3,1,43,0005-00-0009-26.png,0003-00-0002-42.png
00000014,918,1,1445009564468,1445009564939,360,465,0,0,0,3,4,1,34,0003-00-0008-60.png,0005-00-0005-07.png
00000014,919,1,1445009565985,1445009566439,922,419,0,0,0,3,1,2,31,0003-00-0000-10.png,0004-00-0007-67.png
00000014,920,0,1445009567381,1445009567875,377,441,0,0,0,5,3,2,53,0001-00-0008-13.png,0003-00-0001-51.png
00000014,921,1,1445009572666,1445009573077,376,398,0,0,0,1,2,1,12,0004-00-0000-41.png,0002-00-0008-25.png
00000014,922,0,1445009574366,1445009574845,418,472,0,0,0,5,4,1,54,0001-00-0001-14.png,0005-00-0004-52.png
00000014,923,1,1445009578670,1445009579120,927,439,0,0,0,5,2,3,52,0001-00-0007-11.png,0002-00-0001-88.png
00000014,924,0,1445009580359,1445009580788,344,430,0,0,0,4,1,3,41,0005-00-0004-61.png,0004-00-0003-88.png
00000014,925,1,1445009584709,1445009585138,363,411,0,0,0,2,4,2,24,0002-00-0000-46.png,0005-00-0006-75.png
00000014,926,1,1445009586250,1445009586685,394,454,0,0,0,3,4,1,34,0003-00-0008-59.png,0005-00-0003-66.png
00000014,927,1,1445009587710,1445009588753,928,420,0,0,0,2,1,1,21,0002-00-0000-44.png,0004-00-0001-10.png
00000014,928,1,1445009589640,1445009590166,920,440,0,0,0,4,2,2,42,0005-00-0007-33.png,0002-00-0000-70.png
00000014,929,0,1445009591060,1445009591685,338,422,0,0,0,5,3,2,53,0001-00-0003-56.png,0003-00-0007-66.png
00000014,930,1,1445009596162,1445009596606,352,375,0,0,0,2,3,1,23,0002-00-0007-85.png,0003-00-0007-14.png
00000014,931,0,1445009597752,1445009598299,880,427,0,0,0,4,5,1,45,0005-00-0006-50.png,0001-00-0001-70.png
00000014,932,0,1445009601648,1445009602075,927,423,0,0,0,1,5,4,15,0004-00-0000-61.png,0001-00-0002-19.png
00000014,933,1,1445009608890,1445009609321,927,409,0,0,0,5,1,4,51,0001-00-0002-33.png,0004-00-0001-79.png
00000014,934,1,1445009611110,1445009611575,325,424,0,0,0,2,5,3,25,0002-00-0001-16.png,0001-00-0009-48.png
00000014,935,0,1445009613009,1445009613473,921,446,0,0,0,3,5,2,35,0003-00-0006-47.png,0001-00-0006-47.png
00000014,936,0,1445009616705,1445009617167,383,437,0,0,0,4,3,1,43,0005-00-0006-62.png,0003-00-0005-61.png
00000014,937,0,1445009620548,1445009621019,414,527,0,0,0,3,2,1,32,0003-00-0001-52.png,0002-00-0008-44.png
00000014,938,1,1445009625857,1445009626345,922,461,0,0,0,3,1,2,31,0003-00-0009-55.png,0004-00-0003-66.png
00000014,939,1,1445009627278,1445009627795,342,402,0,0,0,1,3,2,13,0004-00-0004-78.png,0003-00-0008-04.png
00000014,940,1,1445009628931,1445009629454,325,395,0,0,0,1,4,3,14,0004-00-0003-13.png,0005-00-0001-04.png
00000014,941,1,1445009630936,1445009631391,401,462,0,0,0,1,2,1,12,0004-00-0009-42.png,0002-00-0006-93.png
00000014,942,0,1445009632981,1445009633497,880,479,0,0,0,3,5,2,35,0003-00-0002-93.png,0001-00-0003-19.png
