subject_id,trial,correct_response,stim_time,response_time,x_coord,y_coord,trial_timeout,timeout_time,interTrial_timeout,left_rank,right_rank,distance,joint_rank,left_image,right_image
00000014,1,1,1444832915589,1444832916520,904,507,0,0,0,4,2,2,42,0005-00-0002-49.png,0002-00-0009-72.png
00000014,2,1,1444832917648,1444832918149,884,393,0,0,0,5,2,3,52,0001-00-0007-64.png,0002-00-0009-26.png
00000014,3,1,1444832919111,1444832919648,336,401,0,0,0,2,5,3,25,0002-00-0003-83.png,0001-00-0001-70.png
00000014,4,1,1444832920932,1444832921363,316,402,0,0,0,1,5,4,15,0004-00-0001-69.png,0001-00-0004-48.png
00000014,5,1,1444832922283,1444832922792,912,509,0,0,0,4,1,3,41,0005-00-0005-66.png,0004-00-0008-85.png
00000014,6,0,1444832923803,1444832924280,883,373,0,0,0,1,4,3,14,0004-00-0001-46.png,0005-00-0007-11.png
00000014,7,1,1444832927371,1444832927768,335,400,0,0,0,3,4,1,34,0003-00-0008-81.png,0005-00-0006-54.png
00000014,8,1,1444832928651,1444832929119,405,431,0,0,0,2,3,1,23,0002-00-0003-01.png,0003-00-0009-36.png
00000014,9,1,1444832930044,1444832930571,888,370,0,0,0,3,2,1,32,0003-00-0008-35.png,0002-00-0007-74.png
00000014,10,1,1444832931546,1444832932069,972,420,0,0,0,2,1,1,21,0002-00-0009-28.png,0004-00-0004-61.png
00000014,11,0,1444832933107,1444832933575,390,418,0,0,0,5,1,4,51,0001-00-0003-10.png,0004-00-0001-33.png
00000014,12,0,1444832936786,1444832937275,379,450,0,0,0,4,3,1,43,0005-00-0008-94.png,0003-00-0006-70.png
00000014,13,0,1444832940152,1444832940511,419,430,0,0,0,3,1,2,31,0003-00-0004-69.png,0004-00-0000-35.png
00000014,14,1,1444832943572,1444832944048,411,520,0,0,0,4,5,1,45,0005-00-0000-23.png,0001-00-0007-87.png
00000014,15,0,1444832945167,1444832945698,376,515,0,0,0,5,3,2,53,0001-00-0007-59.png,0003-00-0002-26.png
00000014,16,1,1444832948571,1444832948615,498,400,0,0,0,3,5,2,35,0003-00-0008-03.png,0001-00-0006-48.png
00000014,17,1,1444832949775,1444832950249,376,492,0,0,0,1,3,2,13,0004-00-0008-91.png,0003-00-0003-59.png
00000014,18,1,1444832951154,1444832951679,897,483,0,0,0,5,4,1,54,0001-00-0005-41.png,0005-00-0000-55.png
00000014,19,1,1444832952675,1444832953192,357,417,0,0,0,1,2,1,12,0004-00-0004-76.png,0002-00-0003-32.png
00000014,20,1,1444832954133,1444832954582,320,418,0,0,0,2,4,2,24,0002-00-0006-87.png,0005-00-0003-13.png
00000014,21,1,1444832955597,1444832956104,325,410,0,0,0,1,2,1,12,0004-00-0001-48.png,0002-00-0008-44.png
00000014,22,1,1444832957514,1444832957970,881,526,0,0,0,5,3,2,53,0001-00-0003-90.png,0003-00-0003-77.png
00000014,23,1,1444832958955,1444832959406,376,426,0,0,0,1,5,4,15,0004-00-0000-02.png,0001-00-0007-35.png
00000014,24,1,1444832960397,1444832960951,944,428,0,0,0,3,2,1,32,0003-00-0008-35.png,0002-00-0001-46.png
00000014,25,0,1444832962276,1444832962779,942,392,0,0,0,3,5,2,35,0003-00-0003-09.png,0001-00-0006-90.png
00000014,26,0,1444832965924,1444832966387,942,441,0,0,0,3,4,1,34,0003-00-0001-59.png,0005-00-0002-17.png
00000014,27,1,1444832969270,1444832969695,971,415,0,0,0,4,1,3,41,0005-00-0001-91.png,0004-00-0007-89.png
00000014,28,1,1444832970745,1444832971259,322,439,0,0,0,1,3,2,13,0004-00-0003-67.png,0003-00-0004-12.png
00000014,29,1,1444832972250,1444832972710,333,407,0,0,0,4,5,1,45,0005-00-0003-94.png,0001-00-0001-09.png
00000014,30,1,1444832973746,1444832974265,862,358,0,0,0,4,2,2,42,0005-00-0002-83.png,0002-00-0003-31.png
00000014,31,0,1444832975298,1444832975813,947,368,0,0,0,2,5,3,25,0002-00-0002-79.png,0001-00-0005-04.png
00000014,32,1,1444832978884,1444832979371,940,396,0,0,0,5,2,3,52,0001-00-0004-47.png,0002-00-0001-94.png
00000014,33,1,1444832980295,1444832980837,901,371,0,0,0,5,4,1,54,0001-00-0003-59.png,0005-00-0007-80.png
00000014,34,0,1444832982318,1444832982797,928,442,0,0,0,2,3,1,23,0002-00-0000-47.png,0003-00-0003-85.png
00000014,35,1,1444832986649,1444832987165,926,423,0,0,0,3,1,2,31,0003-00-0008-24.png,0004-00-0003-82.png
00000014,36,1,1444832988088,1444832988579,343,426,0,0,0,2,4,2,24,0002-00-0000-61.png,0005-00-0004-35.png
00000014,37,1,1444832989689,1444832990209,967,412,0,0,0,5,1,4,51,0001-00-0001-38.png,0004-00-0007-20.png
00000014,38,1,1444832991249,1444832991741,351,431,0,0,0,1,4,3,14,0004-00-0008-34.png,0005-00-0001-84.png
00000014,39,0,1444832992620,1444832993124,384,420,0,0,0,2,1,1,21,0002-00-0005-43.png,0004-00-0000-07.png
00000014,40,0,1444832996205,1444832996634,387,423,0,0,0,4,3,1,43,0005-00-0001-37.png,0003-00-0006-14.png
00000014,41,0,1444832999563,1444832999591,504,412,0,0,0,4,2,2,42,0005-00-0002-00.png,0002-00-0003-88.png
00000014,42,0,1444833002458,1444833002896,287,424,0,0,0,2,1,1,21,0002-00-0000-86.png,0004-00-0008-95.png
00000014,43,1,1444833005786,1444833006190,900,371,0,0,0,4,1,3,41,0005-00-0004-70.png,0004-00-0006-24.png
00000014,44,1,1444833007649,1444833008143,926,386,0,0,0,3,1,2,31,0003-00-0004-36.png,0004-00-0004-65.png
00000014,45,1,1444833009097,1444833009580,283,415,0,0,0,1,5,4,15,0004-00-0006-89.png,0001-00-0004-26.png
00000014,46,0,1444833010616,1444833011083,338,478,0,0,0,4,3,1,43,0005-00-0000-26.png,0003-00-0000-02.png
00000014,47,0,1444833014087,1444833014564,914,475,0,0,0,1,2,1,12,0004-00-0007-70.png,0002-00-0003-67.png
00000014,48,1,1444833017755,1444833018227,399,418,0,0,0,4,5,1,45,0005-00-0008-68.png,0001-00-0001-36.png
00000014,49,1,1444833019195,1444833019647,376,420,0,0,0,1,3,2,13,0004-00-0001-80.png,0003-00-0003-24.png
00000014,50,0,1444833020637,1444833021160,919,379,0,0,0,3,5,2,35,0003-00-0000-92.png,0001-00-0007-76.png
00000014,51,1,1444833024702,1444833025158,918,391,0,0,0,5,1,4,51,0001-00-0000-01.png,0004-00-0008-96.png
00000014,52,1,1444833026094,1444833026565,338,399,0,0,0,2,3,1,23,0002-00-0006-85.png,0003-00-0004-11.png
00000014,53,1,1444833027644,1444833028654,874,318,0,0,0,3,2,1,32,0003-00-0009-03.png,0002-00-0002-62.png
00000014,54,1,1444833029783,1444833030281,938,371,0,0,0,5,3,2,53,0001-00-0007-60.png,0003-00-0003-51.png
00000014,55,0,1444833031291,1444833031756,376,397,0,0,0,5,2,3,52,0001-00-0007-33.png,0002-00-0008-72.png
00000014,56,1,1444833034770,1444833035239,286,397,0,0,0,2,4,2,24,0002-00-0009-95.png,0005-00-0000-98.png
00000014,57,1,1444833036210,1444833036708,294,437,0,0,0,2,5,3,25,0002-00-0003-60.png,0001-00-0000-71.png
00000014,58,1,1444833037709,1444833038220,929,401,0,0,0,5,4,1,54,0001-00-0004-44.png,0005-00-0003-90.png
00000014,59,1,1444833039299,1444833039760,331,434,0,0,0,1,4,3,14,0004-00-0001-76.png,0005-00-0008-88.png
00000014,60,1,1444833040903,1444833041374,314,410,0,0,0,3,4,1,34,0003-00-0004-34.png,0005-00-0001-90.png
00000014,61,1,1444833042465,1444833042966,900,365,0,0,0,3,1,2,31,0003-00-0008-41.png,0004-00-0006-91.png
00000014,62,0,1444833044105,1444833044611,916,460,0,0,0,3,4,1,34,0003-00-0000-87.png,0005-00-0001-62.png
00000014,63,0,1444833047719,1444833048163,952,359,0,0,0,3,5,2,35,0003-00-0009-81.png,0001-00-0002-27.png
00000014,64,0,1444833051089,1444833051145,499,443,0,0,0,3,2,1,32,0003-00-0008-67.png,0002-00-0007-55.png
00000014,65,1,1444833054029,1444833054428,325,358,0,0,0,1,5,4,15,0004-00-0000-83.png,0001-00-0007-50.png
00000014,66,1,1444833055394,1444833055894,305,411,0,0,0,2,5,3,25,0002-00-0004-85.png,0001-00-0004-73.png
00000014,67,1,1444833056979,1444833057414,325,396,0,0,0,1,3,2,13,0004-00-0002-72.png,0003-00-0004-78.png
00000014,68,1,1444833058599,1444833059159,905,375,0,0,0,5,3,2,53,0001-00-0000-43.png,0003-00-0005-79.png
00000014,69,0,1444833060305,1444833060779,900,450,0,0,0,2,4,2,24,0002-00-0003-38.png,0005-00-0002-38.png
00000014,70,1,1444833063732,1444833064316,291,393,0,0,0,4,5,1,45,0005-00-0000-50.png,0001-00-0007-77.png
00000014,71,1,1444833065300,1444833065885,876,477,0,0,0,4,2,2,42,0005-00-0000-01.png,0002-00-0009-75.png
00000014,72,0,1444833066943,1444833067497,901,384,0,0,0,1,4,3,14,0004-00-0001-11.png,0005-00-0009-26.png
00000014,73,1,1444833070510,1444833070961,299,371,0,0,0,2,3,1,23,0002-00-0004-83.png,0003-00-0009-08.png
00000014,74,0,1444833071972,1444833072420,361,405,0,0,0,5,4,1,54,0001-00-0001-65.png,0005-00-0004-28.png
00000014,75,1,1444833075501,1444833076089,857,311,0,0,0,5,2,3,52,0001-00-0000-78.png,0002-00-0008-04.png
00000014,76,1,1444833077086,1444833077590,888,452,0,0,0,5,1,4,51,0001-00-0007-82.png,0004-00-0009-98.png
00000014,77,0,1444833078696,1444833079132,376,422,0,0,0,4,3,1,43,0005-00-0007-48.png,0003-00-0000-89.png
00000014,78,0,1444833082160,1444833082610,427,474,0,0,0,4,1,3,41,0005-00-0000-88.png,0004-00-0007-76.png
00000014,79,0,1444833085557,1444833086008,874,358,0,0,0,1,2,1,12,0004-00-0001-26.png,0002-00-0001-45.png
00000014,80,0,1444833089097,1444833089549,350,358,0,0,0,2,1,1,21,0002-00-0004-28.png,0004-00-0003-90.png
00000014,81,1,1444833092745,1444833093185,928,389,0,0,0,4,1,3,41,0005-00-0007-05.png,0004-00-0001-63.png
00000014,82,1,1444833094196,1444833094779,874,475,0,0,0,4,2,2,42,0005-00-0009-83.png,0002-00-0004-06.png
00000014,83,1,1444833095844,1444833096388,396,512,0,0,0,4,5,1,45,0005-00-0006-88.png,0001-00-0002-35.png
00000014,84,1,1444833097441,1444833097920,922,368,0,0,0,5,1,4,51,0001-00-0009-01.png,0004-00-0003-24.png
00000014,85,0,1444833099034,1444833099518,341,417,0,0,0,5,4,1,54,0001-00-0000-58.png,0005-00-0009-23.png
00000014,86,0,1444833102482,1444833102937,861,346,0,0,0,1,2,1,12,0004-00-0007-47.png,0002-00-0006-40.png
00000014,87,1,1444833105869,1444833106278,368,374,0,0,0,2,3,1,23,0002-00-0001-89.png,0003-00-0009-32.png
00000014,88,0,1444833107254,1444833107757,349,406,0,0,0,5,2,3,52,0001-00-0009-03.png,0002-00-0008-33.png
00000014,89,1,1444833110813,1444833111297,358,403,0,0,0,3,4,1,34,0003-00-0003-70.png,0005-00-0000-51.png
00000014,90,1,1444833112292,1444833112855,913,396,0,0,0,5,3,2,53,0001-00-0000-88.png,0003-00-0009-86.png
00000014,91,0,1444833113872,1444833114416,872,456,0,0,0,3,5,2,35,0003-00-0009-14.png,0001-00-0005-47.png
00000014,92,1,1444833117500,1444833117983,905,376,0,0,0,3,1,2,31,0003-00-0009-36.png,0004-00-0006-45.png
00000014,93,1,1444833119082,1444833119565,367,402,0,0,0,2,5,3,25,0002-00-0007-59.png,0001-00-0007-83.png
00000014,94,1,1444833120643,1444833121206,889,371,0,0,0,2,1,1,21,0002-00-0003-00.png,0004-00-0007-19.png
00000014,95,1,1444833122252,1444833122742,299,438,0,0,0,1,5,4,15,0004-00-0003-72.png,0001-00-0005-99.png
00000014,96,1,1444833124291,1444833124771,929,374,0,0,0,3,2,1,32,0003-00-0007-01.png,0002-00-0005-15.png
00000014,97,1,1444833125883,1444833126358,292,401,0,0,0,1,4,3,14,0004-00-0001-29.png,0005-00-0009-56.png
00000014,98,0,1444833127535,1444833128135,350,397,0,0,0,4,3,1,43,0005-00-0009-64.png,0003-00-0003-71.png
00000014,99,1,1444833131046,1444833131484,343,401,0,0,0,1,3,2,13,0004-00-0003-70.png,0003-00-0008-90.png
00000014,100,1,1444833132419,1444833132902,350,398,0,0,0,2,4,2,24,0002-00-0005-65.png,0005-00-0007-51.png
00000014,101,0,1444833134029,1444833134531,896,446,0,0,0,4,5,1,45,0005-00-0002-44.png,0001-00-0007-04.png
00000014,102,1,1444833137526,1444833138040,912,370,0,0,0,5,4,1,54,0001-00-0009-63.png,0005-00-0008-09.png
00000014,103,1,1444833139472,1444833139904,930,375,0,0,0,5,1,4,51,0001-00-0002-85.png,0004-00-0003-33.png
00000014,104,1,1444833141075,1444833141566,901,461,0,0,0,3,1,2,31,0003-00-0000-71.png,0004-00-0005-14.png
00000014,105,1,1444833142825,1444833143354,312,450,0,0,0,1,3,2,13,0004-00-0001-30.png,0003-00-0007-00.png
00000014,106,1,1444833144483,1444833145000,885,456,0,0,0,4,2,2,42,0005-00-0005-86.png,0002-00-0006-40.png
00000014,107,1,1444833146185,1444833146737,916,349,0,0,0,4,3,1,43,0005-00-0007-09.png,0003-00-0005-58.png
00000014,108,1,1444833147814,1444833148332,930,374,0,0,0,3,2,1,32,0003-00-0001-96.png,0002-00-0007-69.png
00000014,109,0,1444833149536,1444833150157,865,324,0,0,0,3,5,2,35,0003-00-0000-26.png,0001-00-0009-07.png
00000014,110,0,1444833153032,1444833153471,932,391,0,0,0,2,5,3,25,0002-00-0005-48.png,0001-00-0001-65.png
00000014,111,0,1444833156307,1444833156778,379,382,0,0,0,4,1,3,41,0005-00-0003-48.png,0004-00-0000-15.png
00000014,112,1,1444833159810,1444833160342,930,375,0,0,0,5,2,3,52,0001-00-0009-82.png,0002-00-0008-86.png
00000014,113,0,1444833161371,1444833161871,363,422,0,0,0,2,1,1,21,0002-00-0008-20.png,0004-00-0007-30.png
00000014,114,1,1444833164867,1444833165334,336,514,0,0,0,2,3,1,23,0002-00-0002-43.png,0003-00-0003-94.png
00000014,115,1,1444833166250,1444833166781,350,423,0,0,0,1,5,4,15,0004-00-0002-55.png,0001-00-0006-64.png
00000014,116,1,1444833167886,1444833168342,273,403,0,0,0,1,4,3,14,0004-00-0003-67.png,0005-00-0002-64.png
00000014,117,0,1444833169362,1444833169887,925,360,0,0,0,2,4,2,24,0002-00-0005-70.png,0005-00-0009-37.png
00000014,118,0,1444833172969,1444833173456,359,510,0,0,0,5,3,2,53,0001-00-0000-24.png,0003-00-0001-34.png
00000014,119,0,1444833176454,1444833176921,922,394,0,0,0,1,2,1,12,0004-00-0001-76.png,0002-00-0008-28.png
00000014,120,1,1444833180012,1444833180489,311,393,0,0,0,3,4,1,34,0003-00-0006-95.png,0005-00-0009-06.png
00000014,121,1,1444833181426,1444833181918,376,421,0,0,0,1,5,4,15,0004-00-0005-32.png,0001-00-0002-26.png
00000014,122,0,1444833182928,1444833183466,931,375,0,0,0,4,5,1,45,0005-00-0000-61.png,0001-00-0001-21.png
00000014,123,1,1444833186604,1444833187056,930,375,0,0,0,5,2,3,52,0001-00-0003-96.png,0002-00-0000-58.png
00000014,124,1,1444833188252,1444833188787,376,422,0,0,0,2,3,1,23,0002-00-0002-30.png,0003-00-0003-94.png
00000014,125,0,1444833189771,1444833190258,927,331,0,0,0,1,3,2,13,0004-00-0002-37.png,0003-00-0003-96.png
00000014,126,1,1444833193164,1444833193703,355,409,0,0,0,2,5,3,25,0002-00-0005-79.png,0001-00-0000-65.png
00000014,127,1,1444833194942,1444833195472,903,426,0,0,0,3,1,2,31,0003-00-0007-37.png,0004-00-0007-26.png
00000014,128,1,1444833196623,1444833197208,900,391,0,0,0,4,3,1,43,0005-00-0009-12.png,0003-00-0007-50.png
00000014,129,0,1444833198282,1444833198785,342,401,0,0,0,2,1,1,21,0002-00-0004-18.png,0004-00-0004-34.png
00000014,130,1,1444833201870,1444833202334,364,397,0,0,0,1,4,3,14,0004-00-0000-34.png,0005-00-0003-49.png
00000014,131,0,1444833203282,1444833203805,299,438,0,0,0,5,3,2,53,0001-00-0007-59.png,0003-00-0007-42.png
00000014,132,1,1444833206728,1444833207291,900,437,0,0,0,5,1,4,51,0001-00-0006-77.png,0004-00-0000-61.png
00000014,133,1,1444833208281,1444833208736,412,423,0,0,0,2,4,2,24,0002-00-0002-75.png,0005-00-0001-18.png
00000014,134,1,1444833209810,1444833210349,926,386,0,0,0,4,2,2,42,0005-00-0005-93.png,0002-00-0004-05.png
00000014,135,1,1444833211398,1444833211952,325,398,0,0,0,1,2,1,12,0004-00-0002-32.png,0002-00-0008-11.png
00000014,136,0,1444833213001,1444833213537,926,371,0,0,0,3,5,2,35,0003-00-0003-22.png,0001-00-0002-45.png
00000014,137,1,1444833216588,1444833217084,875,450,0,0,0,3,2,1,32,0003-00-0009-67.png,0002-00-0009-13.png
00000014,138,0,1444833218141,1444833218641,338,402,0,0,0,5,4,1,54,0001-00-0007-68.png,0005-00-0006-43.png
00000014,139,1,1444833221516,1444833221584,510,482,0,0,0,3,4,1,34,0003-00-0004-21.png,0005-00-0008-40.png
00000014,140,0,1444833222761,1444833223237,388,424,0,0,0,4,1,3,41,0005-00-0004-32.png,0004-00-0006-06.png
00000014,141,1,1444833226179,1444833226753,942,377,0,0,0,5,1,4,51,0001-00-0000-28.png,0004-00-0000-29.png
00000014,142,1,1444833227790,1444833228351,870,472,0,0,0,3,1,2,31,0003-00-0006-60.png,0004-00-0002-95.png
00000014,143,1,1444833229350,1444833229901,401,410,0,0,0,1,4,3,14,0004-00-0000-11.png,0005-00-0009-02.png
00000014,144,1,1444833230930,1444833231466,396,516,0,0,0,1,5,4,15,0004-00-0009-69.png,0001-00-0007-10.png
00000014,145,1,1444833232480,1444833233051,879,481,0,0,0,4,1,3,41,0005-00-0000-15.png,0004-00-0008-58.png
00000014,146,1,1444833234200,1444833234720,873,456,0,0,0,3,2,1,32,0003-00-0001-95.png,0002-00-0006-27.png
00000014,147,0,1444833235819,1444833236399,903,386,0,0,0,4,5,1,45,0005-00-0001-96.png,0001-00-0003-02.png
00000014,148,1,1444833239406,1444833239857,931,375,0,0,0,5,4,1,54,0001-00-0000-03.png,0005-00-0005-77.png
00000014,149,1,1444833241090,1444833241659,900,449,0,0,0,2,1,1,21,0002-00-0005-03.png,0004-00-0002-51.png
00000014,150,1,1444833242628,1444833243112,385,424,0,0,0,2,4,2,24,0002-00-0003-77.png,0005-00-0000-94.png
00000014,151,1,1444833244337,1444833244838,261,410,0,0,0,2,3,1,23,0002-00-0003-91.png,0003-00-0004-27.png
00000014,152,1,1444833245987,1444833246563,300,438,0,0,0,3,5,2,35,0003-00-0003-21.png,0001-00-0007-43.png
00000014,153,1,1444833247727,1444833248335,905,375,0,0,0,5,2,3,52,0001-00-0007-55.png,0002-00-0007-71.png
00000014,154,1,1444833249527,1444833250033,886,477,0,0,0,4,2,2,42,0005-00-0004-73.png,0002-00-0006-32.png
00000014,155,1,1444833251367,1444833251869,317,427,0,0,0,2,5,3,25,0002-00-0008-59.png,0001-00-0007-94.png
00000014,156,1,1444833252976,1444833253561,861,449,0,0,0,5,3,2,53,0001-00-0009-87.png,0003-00-0009-28.png
00000014,157,1,1444833254745,1444833255256,363,410,0,0,0,1,3,2,13,0004-00-0000-19.png,0003-00-0004-64.png
00000014,158,1,1444833256843,1444833257347,862,481,0,0,0,4,3,1,43,0005-00-0007-90.png,0003-00-0002-37.png
00000014,159,0,1444833258533,1444833259078,877,466,0,0,0,1,2,1,12,0004-00-0002-77.png,0002-00-0009-12.png
00000014,160,1,1444833262001,1444833262425,311,392,0,0,0,3,4,1,34,0003-00-0007-26.png,0005-00-0003-76.png
00000014,161,0,1444833263362,1444833263898,874,462,0,0,0,1,2,1,12,0004-00-0000-52.png,0002-00-0009-31.png
00000014,162,1,1444833267012,1444833267456,313,393,0,0,0,2,5,3,25,0002-00-0003-91.png,0001-00-0001-06.png
00000014,163,0,1444833268481,1444833268984,299,423,0,0,0,2,1,1,21,0002-00-0004-43.png,0004-00-0006-73.png
00000014,164,1,1444833271855,1444833272344,323,413,0,0,0,1,3,2,13,0004-00-0007-18.png,0003-00-0003-46.png
00000014,165,1,1444833273330,1444833273824,924,385,0,0,0,3,1,2,31,0003-00-0002-37.png,0004-00-0007-24.png
00000014,166,0,1444833274911,1444833275468,874,475,0,0,0,3,5,2,35,0003-00-0005-89.png,0001-00-0006-49.png
00000014,167,1,1444833278818,1444833279286,370,539,0,0,0,2,3,1,23,0002-00-0001-24.png,0003-00-0002-37.png
00000014,168,1,1444833280322,1444833280821,930,401,0,0,0,4,2,2,42,0005-00-0006-51.png,0002-00-0004-53.png
00000014,169,1,1444833281959,1444833282483,931,402,0,0,0,5,2,3,52,0001-00-0001-35.png,0002-00-0005-89.png
00000014,170,1,1444833283766,1444833284279,325,435,0,0,0,4,5,1,45,0005-00-0005-76.png,0001-00-0004-71.png
00000014,171,1,1444833285386,1444833286079,930,375,0,0,0,4,1,3,41,0005-00-0006-89.png,0004-00-0003-59.png
00000014,172,1,1444833287195,1444833287720,904,401,0,0,0,3,2,1,32,0003-00-0000-91.png,0002-00-0005-01.png
00000014,173,1,1444833288861,1444833289380,895,394,0,0,0,4,3,1,43,0005-00-0005-84.png,0003-00-0009-02.png
00000014,174,1,1444833290635,1444833291139,299,422,0,0,0,2,4,2,24,0002-00-0005-39.png,0005-00-0005-20.png
00000014,175,1,1444833292166,1444833292656,339,436,0,0,0,1,5,4,15,0004-00-0007-10.png,0001-00-0009-92.png
00000014,176,1,1444833293966,1444833294501,896,380,0,0,0,5,1,4,51,0001-00-0001-50.png,0004-00-0002-54.png
00000014,177,0,1444833295834,1444833296560,394,365,0,0,0,5,3,2,53,0001-00-0007-86.png,0003-00-0005-22.png
00000014,178,0,1444833299660,1444833300145,876,397,0,0,0,3,4,1,34,0003-00-0000-43.png,0005-00-0005-74.png
00000014,179,0,1444833303155,1444833303793,384,340,0,0,0,5,4,1,54,0001-00-0007-38.png,0005-00-0003-91.png
00000014,180,1,1444833306803,1444833307316,384,445,0,0,0,1,4,3,14,0004-00-0006-46.png,0005-00-0003-35.png
00000014,181,1,1444833308347,1444833308862,925,360,0,0,0,3,1,2,31,0003-00-0001-95.png,0004-00-0007-01.png
00000014,182,1,1444833309885,1444833310393,376,397,0,0,0,1,4,3,14,0004-00-0006-80.png,0005-00-0000-37.png
00000014,183,1,1444833311456,1444833311997,879,374,0,0,0,5,4,1,54,0001-00-0008-12.png,0005-00-0008-95.png
00000014,184,1,1444833313136,1444833313650,913,397,0,0,0,5,2,3,52,0001-00-0008-94.png,0002-00-0001-63.png
00000014,185,0,1444833315011,1444833315519,376,436,0,0,0,4,3,1,43,0005-00-0007-41.png,0003-00-0003-44.png
00000014,186,1,1444833318654,1444833319107,325,420,0,0,0,2,3,1,23,0002-00-0003-23.png,0003-00-0009-89.png
00000014,187,0,1444833320135,1444833320723,314,464,0,0,0,5,3,2,53,0001-00-0005-65.png,0003-00-0002-03.png
00000014,188,1,1444833324338,1444833324784,946,392,0,0,0,4,1,3,41,0005-00-0001-28.png,0004-00-0001-69.png
00000014,189,1,1444833325899,1444833326529,329,422,0,0,0,1,3,2,13,0004-00-0003-92.png,0003-00-0002-34.png
00000014,190,0,1444833327659,1444833328203,900,403,0,0,0,4,5,1,45,0005-00-0000-66.png,0001-00-0006-41.png
00000014,191,1,1444833331176,1444833331232,519,436,0,0,0,3,5,2,35,0003-00-0000-24.png,0001-00-0006-23.png
00000014,192,1,1444833332251,1444833332854,394,415,0,0,0,2,4,2,24,0002-00-0003-51.png,0005-00-0004-81.png
00000014,193,1,1444833333990,1444833334462,376,410,0,0,0,2,5,3,25,0002-00-0001-04.png,0001-00-0008-34.png
00000014,194,1,1444833336147,1444833336661,299,449,0,0,0,3,4,1,34,0003-00-0002-18.png,0005-00-0003-02.png
00000014,195,1,1444833337707,1444833338271,911,398,0,0,0,5,1,4,51,0001-00-0009-06.png,0004-00-0006-72.png
00000014,196,1,1444833339428,1444833339903,901,409,0,0,0,4,2,2,42,0005-00-0003-71.png,0002-00-0002-63.png
00000014,197,1,1444833341167,1444833341724,912,422,0,0,0,2,1,1,21,0002-00-0004-55.png,0004-00-0005-49.png
00000014,198,1,1444833342827,1444833343383,919,378,0,0,0,3,2,1,32,0003-00-0009-18.png,0002-00-0001-26.png
00000014,199,1,1444833344616,1444833345111,325,398,0,0,0,1,2,1,12,0004-00-0001-90.png,0002-00-0009-25.png
00000014,200,1,1444833346218,1444833346703,390,448,0,0,0,1,5,4,15,0004-00-0002-32.png,0001-00-0007-15.png
00000014,201,1,1444833347968,1444833348450,352,409,0,0,0,1,2,1,12,0004-00-0009-68.png,0002-00-0009-63.png
00000014,202,0,1444833349536,1444833350050,380,466,0,0,0,5,1,4,51,0001-00-0000-55.png,0004-00-0001-43.png
00000014,203,1,1444833353253,1444833353689,325,399,0,0,0,2,5,3,25,0002-00-0000-21.png,0001-00-0006-77.png
00000014,204,1,1444833354804,1444833355346,323,430,0,0,0,1,3,2,13,0004-00-0004-55.png,0003-00-0002-90.png
00000014,205,1,1444833356484,1444833357019,877,493,0,0,0,3,2,1,32,0003-00-0005-14.png,0002-00-0006-56.png
00000014,206,1,1444833358154,1444833358778,899,412,0,0,0,2,1,1,21,0002-00-0005-57.png,0004-00-0003-69.png
00000014,207,0,1444833359872,1444833360425,385,445,0,0,0,5,4,1,54,0001-00-0004-28.png,0005-00-0005-30.png
00000014,208,0,1444833363411,1444833363447,516,436,0,0,0,4,2,2,42,0005-00-0006-01.png,0002-00-0005-39.png
00000014,209,0,1444833366561,1444833367006,859,500,0,0,0,4,5,1,45,0005-00-0009-54.png,0001-00-0009-38.png
00000014,210,1,1444833370030,1444833370588,871,392,0,0,0,5,3,2,53,0001-00-0003-39.png,0003-00-0009-10.png
00000014,211,0,1444833371600,1444833372075,358,420,0,0,0,4,1,3,41,0005-00-0008-40.png,0004-00-0001-62.png
00000014,212,0,1444833375097,1444833375560,359,418,0,0,0,4,3,1,43,0005-00-0005-92.png,0003-00-0009-37.png
00000014,213,1,1444833378607,1444833379093,268,394,0,0,0,2,3,1,23,0002-00-0002-21.png,0003-00-0003-81.png
00000014,214,0,1444833380046,1444833380611,892,416,0,0,0,3,5,2,35,0003-00-0000-61.png,0001-00-0006-20.png
00000014,215,0,1444833386344,1444833386854,868,545,0,0,0,1,4,3,14,0004-00-0009-54.png,0005-00-0006-44.png
00000014,216,0,1444833389729,1444833390213,356,461,0,0,0,5,2,3,52,0001-00-0004-12.png,0002-00-0000-05.png
00000014,217,1,1444833393062,1444833393538,911,450,0,0,0,3,1,2,31,0003-00-0009-88.png,0004-00-0001-36.png
00000014,218,1,1444833394441,1444833394967,350,410,0,0,0,1,5,4,15,0004-00-0001-50.png,0001-00-0005-35.png
00000014,219,1,1444833396012,1444833398950,342,428,0,0,0,3,4,1,34,0003-00-0003-54.png,0005-00-0006-58.png
00000014,220,1,1444833400087,1444833400591,376,450,0,0,0,2,4,2,24,0002-00-0008-84.png,0005-00-0001-11.png
00000014,221,0,1444833401737,1444833402228,350,410,0,0,0,5,3,2,53,0001-00-0004-22.png,0003-00-0000-72.png
00000014,222,1,1444833405514,1444833405988,875,514,0,0,0,3,2,1,32,0003-00-0002-05.png,0002-00-0005-88.png
00000014,223,0,1444833406963,1444833407562,879,439,0,0,0,1,2,1,12,0004-00-0005-91.png,0002-00-0008-99.png
00000014,224,1,1444833410590,1444833411024,952,424,0,0,0,5,1,4,51,0001-00-0001-96.png,0004-00-0009-55.png
00000014,225,1,1444833411910,1444833412398,907,501,0,0,0,4,1,3,41,0005-00-0007-83.png,0004-00-0009-83.png
00000014,226,1,1444833413386,1444833414058,926,383,0,0,0,2,1,1,21,0002-00-0004-97.png,0004-00-0004-87.png
00000014,227,1,1444833415042,1444833415576,397,430,0,0,0,2,4,2,24,0002-00-0001-70.png,0005-00-0006-11.png
00000014,228,1,1444833416485,1444833417108,867,413,0,0,0,3,1,2,31,0003-00-0008-06.png,0004-00-0006-97.png
00000014,229,0,1444833418025,1444833418547,905,401,0,0,0,3,5,2,35,0003-00-0005-79.png,0001-00-0003-05.png
00000014,230,0,1444833421533,1444833421974,926,384,0,0,0,4,5,1,45,0005-00-0009-46.png,0001-00-0004-73.png
00000014,231,1,1444833424843,1444833425265,376,372,0,0,0,2,3,1,23,0002-00-0001-35.png,0003-00-0008-17.png
00000014,232,1,1444833426120,1444833426677,407,557,0,0,0,1,4,3,14,0004-00-0000-46.png,0005-00-0000-24.png
00000014,233,0,1444833427585,1444833428142,900,358,0,0,0,2,5,3,25,0002-00-0000-76.png,0001-00-0004-11.png
00000014,234,1,1444833431041,1444833431528,888,479,0,0,0,5,2,3,52,0001-00-0002-18.png,0002-00-0007-54.png
00000014,235,1,1444833432789,1444833433353,939,346,0,0,0,4,2,2,42,0005-00-0000-03.png,0002-00-0009-83.png
00000014,236,0,1444833434366,1444833434868,380,539,0,0,0,5,4,1,54,0001-00-0009-72.png,0005-00-0006-58.png
00000014,237,1,1444833437812,1444833437860,453,452,0,0,0,3,4,1,34,0003-00-0001-39.png,0005-00-0009-10.png
00000014,238,0,1444833438833,1444833439336,325,436,0,0,0,4,3,1,43,0005-00-0009-49.png,0003-00-0008-90.png
00000014,239,0,1444833442243,1444833442703,914,423,0,0,0,1,3,2,13,0004-00-0000-80.png,0003-00-0001-82.png
00000014,240,1,1444833445674,1444833445690,492,344,0,0,0,1,5,4,15,0004-00-0004-68.png,0001-00-0007-44.png
00000014,241,0,1444833446592,1444833447159,926,385,0,0,0,3,5,2,35,0003-00-0000-18.png,0001-00-0007-64.png
00000014,242,0,1444833450088,1444833450441,947,342,0,0,0,1,3,2,13,0004-00-0007-95.png,0003-00-0003-96.png
00000014,243,0,1444833453396,1444833453895,927,384,0,0,0,4,5,1,45,0005-00-0006-69.png,0001-00-0008-85.png
00000014,244,1,1444833456936,1444833457470,342,493,0,0,0,2,5,3,25,0002-00-0004-73.png,0001-00-0002-04.png
00000014,245,1,1444833458388,1444833458979,875,462,0,0,0,2,1,1,21,0002-00-0009-07.png,0004-00-0009-15.png
00000014,246,1,1444833459926,1444833460365,382,420,0,0,0,1,5,4,15,0004-00-0008-93.png,0001-00-0006-38.png
00000014,247,1,1444833461388,1444833461834,350,423,0,0,0,2,3,1,23,0002-00-0005-40.png,0003-00-0004-16.png
00000014,248,0,1444833462909,1444833463437,905,401,0,0,0,2,4,2,24,0002-00-0009-23.png,0005-00-0000-97.png
00000014,249,1,1444833466363,1444833466873,873,508,0,0,0,5,3,2,53,0001-00-0009-78.png,0003-00-0006-50.png
00000014,250,1,1444833467887,1444833468370,931,401,0,0,0,3,1,2,31,0003-00-0002-34.png,0004-00-0006-15.png
00000014,251,1,1444833469519,1444833470013,868,499,0,0,0,5,4,1,54,0001-00-0006-20.png,0005-00-0006-20.png
00000014,252,1,1444833470978,1444833471483,401,422,0,0,0,1,4,3,14,0004-00-0000-32.png,0005-00-0000-85.png
00000014,253,1,1444833472550,1444833472994,862,384,0,0,0,3,2,1,32,0003-00-0006-26.png,0002-00-0002-63.png
00000014,254,1,1444833474089,1444833474574,900,423,0,0,0,5,1,4,51,0001-00-0000-93.png,0004-00-0008-81.png
00000014,255,1,1444833475629,1444833476152,930,413,0,0,0,4,2,2,42,0005-00-0007-67.png,0002-00-0007-74.png
00000014,256,1,1444833477199,1444833477743,926,385,0,0,0,4,1,3,41,0005-00-0008-21.png,0004-00-0009-58.png
00000014,257,1,1444833478809,1444833479437,881,419,0,0,0,4,3,1,43,0005-00-0003-32.png,0003-00-0009-11.png
00000014,258,1,1444833480459,1444833480984,903,414,0,0,0,5,2,3,52,0001-00-0006-57.png,0002-00-0006-14.png
00000014,259,0,1444833482059,1444833482573,906,417,0,0,0,1,2,1,12,0004-00-0007-19.png,0002-00-0007-78.png
00000014,260,1,1444833489347,1444833489775,410,518,0,0,0,3,4,1,34,0003-00-0007-79.png,0005-00-0001-01.png
00000014,261,1,1444833490728,1444833491246,413,545,0,0,0,1,3,2,13,0004-00-0004-07.png,0003-00-0008-35.png
00000014,262,0,1444833492313,1444833492839,905,415,0,0,0,2,3,1,23,0002-00-0009-86.png,0003-00-0006-26.png
00000014,263,0,1444833496916,1444833497456,880,479,0,0,0,4,5,1,45,0005-00-0004-59.png,0001-00-0001-29.png
00000014,264,0,1444833500532,1444833501019,913,397,0,0,0,3,4,1,34,0003-00-0009-24.png,0005-00-0004-92.png
00000014,265,1,1444833503890,1444833504246,298,371,0,0,0,1,2,1,12,0004-00-0003-64.png,0002-00-0009-23.png
00000014,266,0,1444833505123,1444833505575,338,394,0,0,0,5,3,2,53,0001-00-0003-05.png,0003-00-0002-18.png
00000014,267,1,1444833508834,1444833509321,901,423,0,0,0,3,2,1,32,0003-00-0001-50.png,0002-00-0005-49.png
00000014,268,0,1444833510206,1444833510755,875,475,0,0,0,1,5,4,15,0004-00-0004-19.png,0001-00-0004-63.png
00000014,269,0,1444833515975,1444833516400,876,422,0,0,0,2,4,2,24,0002-00-0004-36.png,0005-00-0007-47.png
00000014,270,1,1444833521352,1444833521748,269,394,0,0,0,2,5,3,25,0002-00-0007-54.png,0001-00-0006-38.png
00000014,271,1,1444833522674,1444833523192,888,397,0,0,0,3,1,2,31,0003-00-0009-79.png,0004-00-0007-77.png
00000014,272,1,1444833524113,1444833524710,910,392,0,0,0,4,3,1,43,0005-00-0000-20.png,0003-00-0005-93.png
00000014,273,1,1444833525595,1444833526167,878,469,0,0,0,5,2,3,52,0001-00-0000-51.png,0002-00-0009-05.png
00000014,274,1,1444833527075,1444833527629,925,411,0,0,0,2,1,1,21,0002-00-0008-58.png,0004-00-0008-35.png
00000014,275,1,1444833528536,1444833529184,401,512,0,0,0,1,4,3,14,0004-00-0009-41.png,0005-00-0009-50.png
00000014,276,0,1444833530147,1444833530639,401,410,0,0,0,5,1,4,51,0001-00-0002-13.png,0004-00-0000-08.png
00000014,277,1,1444833533744,1444833534238,871,470,0,0,0,5,4,1,54,0001-00-0003-36.png,0005-00-0007-21.png
00000014,278,0,1444833535123,1444833535659,904,384,0,0,0,3,5,2,35,0003-00-0004-23.png,0001-00-0007-52.png
00000014,279,1,1444833542247,1444833542601,951,410,0,0,0,4,2,2,42,0005-00-0000-91.png,0002-00-0008-02.png
00000014,280,1,1444833543510,1444833544036,875,502,0,0,0,4,1,3,41,0005-00-0009-51.png,0004-00-0008-03.png
00000014,281,1,1444833544952,1444833545475,905,420,0,0,0,4,1,3,41,0005-00-0002-68.png,0004-00-0000-08.png
00000014,282,1,1444833546405,1444833546897,329,421,0,0,0,2,3,1,23,0002-00-0006-80.png,0003-00-0001-84.png
00000014,283,0,1444833547871,1444833548389,332,445,0,0,0,5,4,1,54,0001-00-0002-33.png,0005-00-0001-96.png
00000014,284,0,1444833553528,1444833553989,315,393,0,0,0,2,1,1,21,0002-00-0005-23.png,0004-00-0006-74.png
00000014,285,1,1444833558696,1444833559152,886,447,0,0,0,5,1,4,51,0001-00-0009-64.png,0004-00-0005-47.png
00000014,286,1,1444833560087,1444833560609,885,477,0,0,0,3,1,2,31,0003-00-0006-51.png,0004-00-0001-94.png
00000014,287,0,1444833561463,1444833562013,325,441,0,0,0,5,3,2,53,0001-00-0003-29.png,0003-00-0009-80.png
00000014,288,1,1444833566119,1444833566569,240,454,0,0,0,1,2,1,12,0004-00-0004-52.png,0002-00-0009-76.png
00000014,289,0,1444833567460,1444833567968,908,421,0,0,0,3,5,2,35,0003-00-0008-12.png,0001-00-0001-98.png
00000014,290,1,1444833571150,1444833571621,299,410,0,0,0,2,4,2,24,0002-00-0000-49.png,0005-00-0006-96.png
00000014,291,1,1444833572549,1444833573090,873,483,0,0,0,5,2,3,52,0001-00-0005-15.png,0002-00-0000-59.png
00000014,292,1,1444833573968,1444833574414,393,428,0,0,0,4,5,1,45,0005-00-0006-88.png,0001-00-0008-66.png
00000014,293,1,1444833575360,1444833575957,334,466,0,0,0,3,4,1,34,0003-00-0004-60.png,0005-00-0006-37.png
00000014,294,1,1444833576950,1444833577480,875,488,0,0,0,4,3,1,43,0005-00-0005-99.png,0003-00-0002-92.png
00000014,295,1,1444833578370,1444833578900,401,410,0,0,0,1,4,3,14,0004-00-0006-65.png,0005-00-0004-98.png
00000014,296,1,1444833579921,1444833580438,901,409,0,0,0,3,2,1,32,0003-00-0009-39.png,0002-00-0000-97.png
00000014,297,1,1444833581391,1444833581899,905,401,0,0,0,4,2,2,42,0005-00-0000-37.png,0002-00-0002-45.png
00000014,298,1,1444833582842,1444833583356,338,423,0,0,0,1,3,2,13,0004-00-0006-25.png,0003-00-0008-36.png
00000014,299,0,1444833584323,1444833584837,878,415,0,0,0,2,5,3,25,0002-00-0009-00.png,0001-00-0000-85.png
00000014,300,1,1444833587941,1444833588482,291,363,0,0,0,1,5,4,15,0004-00-0007-50.png,0001-00-0008-51.png
00000014,301,1,1444833589462,1444833589950,900,403,0,0,0,4,2,2,42,0005-00-0001-27.png,0002-00-0007-82.png
00000014,302,0,1444833590922,1444833591523,888,422,0,0,0,4,5,1,45,0005-00-0005-48.png,0001-00-0004-16.png
00000014,303,1,1444833594669,1444833595151,902,410,0,0,0,5,3,2,53,0001-00-0000-43.png,0003-00-0006-03.png
00000014,304,1,1444833596099,1444833596578,376,423,0,0,0,1,3,2,13,0004-00-0004-11.png,0003-00-0002-49.png
00000014,305,1,1444833597568,1444833598061,312,475,0,0,0,2,3,1,23,0002-00-0007-71.png,0003-00-0000-72.png
00000014,306,1,1444833599051,1444833599562,922,407,0,0,0,3,2,1,32,0003-00-0007-47.png,0002-00-0007-31.png
00000014,307,0,1444833600511,1444833601017,913,410,0,0,0,3,5,2,35,0003-00-0005-38.png,0001-00-0004-62.png
00000014,308,1,1444833607348,1444833607891,913,397,0,0,0,5,1,4,51,0001-00-0002-37.png,0004-00-0004-98.png
00000014,309,1,1444833608768,1444833609291,903,416,0,0,0,3,1,2,31,0003-00-0006-47.png,0004-00-0004-62.png
00000014,310,1,1444833610256,1444833610823,875,396,0,0,0,4,3,1,43,0005-00-0004-57.png,0003-00-0006-41.png
00000014,311,0,1444833611787,1444833612306,893,483,0,0,0,1,2,1,12,0004-00-0008-28.png,0002-00-0005-12.png
00000014,312,0,1444833616157,1444833616619,317,427,0,0,0,2,1,1,21,0002-00-0004-90.png,0004-00-0006-38.png
00000014,313,0,1444833619852,1444833620277,901,434,0,0,0,3,4,1,34,0003-00-0007-61.png,0005-00-0002-46.png
00000014,314,0,1444833623330,1444833623804,344,495,0,0,0,5,4,1,54,0001-00-0003-42.png,0005-00-0005-30.png
00000014,315,1,1444833626738,1444833626774,504,436,0,0,0,2,5,3,25,0002-00-0008-18.png,0001-00-0004-51.png
00000014,316,1,1444833627828,1444833628288,376,449,0,0,0,1,4,3,14,0004-00-0008-70.png,0005-00-0006-69.png
00000014,317,1,1444833629173,1444833629675,901,486,0,0,0,4,1,3,41,0005-00-0006-40.png,0004-00-0009-87.png
00000014,318,1,1444833630633,1444833631173,316,431,0,0,0,1,5,4,15,0004-00-0006-69.png,0001-00-0008-24.png
00000014,319,1,1444833632095,1444833632589,318,392,0,0,0,2,4,2,24,0002-00-0003-71.png,0005-00-0006-28.png
00000014,320,0,1444833633505,1444833634088,390,446,0,0,0,5,2,3,52,0001-00-0002-48.png,0002-00-0000-50.png
00000014,321,0,1444833637061,1444833637148,520,466,0,0,0,5,3,2,53,0001-00-0005-56.png,0003-00-0006-64.png
00000014,322,1,1444833640295,1444833640725,887,502,0,0,0,4,2,2,42,0005-00-0003-71.png,0002-00-0003-50.png
00000014,323,0,1444833641606,1444833642155,896,420,0,0,0,3,4,1,34,0003-00-0005-92.png,0005-00-0002-89.png
00000014,324,0,1444833645073,1444833645615,904,480,0,0,0,1,2,1,12,0004-00-0007-51.png,0002-00-0007-11.png
00000014,325,1,1444833649973,1444833650456,337,410,0,0,0,1,4,3,14,0004-00-0002-43.png,0005-00-0005-72.png
00000014,326,1,1444833651325,1444833651801,896,472,0,0,0,5,1,4,51,0001-00-0001-09.png,0004-00-0003-67.png
00000014,327,1,1444833652775,1444833653298,903,389,0,0,0,4,3,1,43,0005-00-0005-94.png,0003-00-0006-58.png
00000014,328,0,1444833654324,1444833654838,319,446,0,0,0,2,1,1,21,0002-00-0004-82.png,0004-00-0004-90.png
00000014,329,0,1444833657962,1444833658361,334,431,0,0,0,4,1,3,41,0005-00-0009-37.png,0004-00-0002-09.png
00000014,330,1,1444833661981,1444833662421,928,416,0,0,0,5,2,3,52,0001-00-0006-86.png,0002-00-0008-17.png
00000014,331,1,1444833663369,1444833663854,886,503,0,0,0,3,1,2,31,0003-00-0000-24.png,0004-00-0001-94.png
00000014,332,1,1444833664789,1444833665237,411,410,0,0,0,2,3,1,23,0002-00-0002-33.png,0003-00-0008-30.png
00000014,333,1,1444833666170,1444833666709,904,401,0,0,0,5,4,1,54,0001-00-0001-11.png,0005-00-0009-50.png
00000014,334,1,1444833667631,1444833668093,376,410,0,0,0,2,4,2,24,0002-00-0009-22.png,0005-00-0007-69.png
00000014,335,1,1444833669012,1444833669475,341,428,0,0,0,2,5,3,25,0002-00-0000-83.png,0001-00-0009-27.png
00000014,336,1,1444833670462,1444833671169,457,542,0,0,0,1,3,2,13,0004-00-0008-60.png,0003-00-0005-46.png
00000014,337,0,1444833672244,1444833672810,875,410,0,0,0,1,5,4,15,0004-00-0006-88.png,0001-00-0008-14.png
00000014,338,1,1444833676778,1444833677226,903,415,0,0,0,3,2,1,32,0003-00-0009-56.png,0002-00-0005-84.png
00000014,339,0,1444833678185,1444833678659,896,420,0,0,0,3,5,2,35,0003-00-0003-22.png,0001-00-0009-75.png
00000014,340,0,1444833682041,1444833682589,875,475,0,0,0,4,5,1,45,0005-00-0004-66.png,0001-00-0004-50.png
00000014,341,0,1444833685928,1444833686495,869,517,0,0,0,3,5,2,35,0003-00-0000-41.png,0001-00-0004-35.png
00000014,342,0,1444833689613,1444833690080,337,410,0,0,0,5,3,2,53,0001-00-0005-74.png,0003-00-0004-57.png
00000014,343,1,1444833693778,1444833694194,899,410,0,0,0,5,1,4,51,0001-00-0009-13.png,0004-00-0009-54.png
00000014,344,1,1444833695200,1444833695658,364,527,0,0,0,1,4,3,14,0004-00-0003-21.png,0005-00-0008-23.png
00000014,345,0,1444833696610,1444833697123,282,366,0,0,0,2,1,1,21,0002-00-0000-56.png,0004-00-0006-72.png
00000014,346,1,1444833700886,1444833701419,355,478,0,0,0,1,5,4,15,0004-00-0008-38.png,0001-00-0009-11.png
00000014,347,1,1444833702475,1444833703048,364,421,0,0,0,3,4,1,34,0003-00-0006-61.png,0005-00-0002-02.png
00000014,348,1,1444833704016,1444833704512,913,398,0,0,0,4,2,2,42,0005-00-0008-55.png,0002-00-0006-69.png
00000014,349,0,1444833705514,1444833706015,882,500,0,0,0,1,2,1,12,0004-00-0002-75.png,0002-00-0002-29.png
00000014,350,0,1444833709285,1444833709849,901,356,0,0,0,2,3,1,23,0002-00-0003-80.png,0003-00-0004-82.png
00000014,351,1,1444833712930,1444833713360,339,417,0,0,0,2,5,3,25,0002-00-0000-91.png,0001-00-0005-59.png
00000014,352,1,1444833714261,1444833714689,376,410,0,0,0,2,4,2,24,0002-00-0007-06.png,0005-00-0003-48.png
00000014,353,0,1444833715712,1444833716255,879,426,0,0,0,4,5,1,45,0005-00-0009-87.png,0001-00-0007-60.png
00000014,354,0,1444833719497,1444833719990,393,426,0,0,0,4,3,1,43,0005-00-0004-46.png,0003-00-0002-30.png
00000014,355,0,1444833723034,1444833723469,368,428,0,0,0,5,4,1,54,0001-00-0001-06.png,0005-00-0004-28.png
00000014,356,0,1444833726596,1444833727080,377,436,0,0,0,4,1,3,41,0005-00-0007-62.png,0004-00-0000-65.png
00000014,357,1,1444833729937,1444833730393,897,460,0,0,0,3,1,2,31,0003-00-0002-98.png,0004-00-0009-40.png
00000014,358,1,1444833731231,1444833731753,887,476,0,0,0,5,2,3,52,0001-00-0006-06.png,0002-00-0000-21.png
00000014,359,1,1444833732774,1444833733241,363,437,0,0,0,1,3,2,13,0004-00-0004-99.png,0003-00-0007-52.png
00000014,360,1,1444833734206,1444833734639,905,401,0,0,0,3,2,1,32,0003-00-0003-22.png,0002-00-0009-12.png
00000014,361,1,1444833735592,1444833736062,343,446,0,0,0,1,3,2,13,0004-00-0006-56.png,0003-00-0000-89.png
00000014,362,1,1444833737196,1444833737816,907,393,0,0,0,2,1,1,21,0002-00-0000-82.png,0004-00-0004-85.png
00000014,363,1,1444833738696,1444833739222,878,516,0,0,0,4,2,2,42,0005-00-0008-23.png,0002-00-0002-07.png
00000014,364,1,1444833740315,1444833740743,376,423,0,0,0,3,5,2,35,0003-00-0005-21.png,0001-00-0008-25.png
00000014,365,0,1444833741648,1444833742171,914,397,0,0,0,1,2,1,12,0004-00-0004-51.png,0002-00-0004-94.png
00000014,366,0,1444833745266,1444833745823,342,392,0,0,0,5,3,2,53,0001-00-0009-61.png,0003-00-0007-60.png
00000014,367,1,1444833748922,1444833748942,494,413,0,0,0,2,4,2,24,0002-00-0008-00.png,0005-00-0007-29.png
00000014,368,1,1444833749947,1444833750473,873,490,0,0,0,3,1,2,31,0003-00-0003-86.png,0004-00-0003-74.png
00000014,369,0,1444833751615,1444833752123,375,437,0,0,0,5,1,4,51,0001-00-0002-83.png,0004-00-0008-79.png
00000014,370,1,1444833756725,1444833757156,350,398,0,0,0,2,5,3,25,0002-00-0003-50.png,0001-00-0000-94.png
00000014,371,1,1444833758166,1444833758658,325,476,0,0,0,3,4,1,34,0003-00-0006-50.png,0005-00-0001-91.png
00000014,372,1,1444833759625,1444833760173,901,422,0,0,0,5,2,3,52,0001-00-0004-67.png,0002-00-0008-26.png
00000014,373,1,1444833761155,1444833761675,878,506,0,0,0,3,2,1,32,0003-00-0004-57.png,0002-00-0000-77.png
00000014,374,1,1444833762677,1444833763255,350,449,0,0,0,2,3,1,23,0002-00-0008-89.png,0003-00-0000-74.png
00000014,375,0,1444833764197,1444833764771,417,533,0,0,0,4,3,1,43,0005-00-0005-37.png,0003-00-0009-35.png
00000014,376,0,1444833767615,1444833767848,521,408,0,0,0,4,1,3,41,0005-00-0002-57.png,0004-00-0008-49.png
00000014,377,1,1444833771064,1444833771572,879,415,0,0,0,5,4,1,54,0001-00-0000-72.png,0005-00-0003-73.png
00000014,378,0,1444833772626,1444833773107,887,424,0,0,0,4,5,1,45,0005-00-0000-03.png,0001-00-0000-91.png
00000014,379,1,1444833776302,1444833776897,331,403,0,0,0,1,4,3,14,0004-00-0008-60.png,0005-00-0001-11.png
00000014,380,1,1444833777912,1444833778364,315,444,0,0,0,1,5,4,15,0004-00-0005-86.png,0001-00-0004-55.png
00000014,381,1,1444833779314,1444833779840,880,427,0,0,0,5,3,2,53,0001-00-0006-72.png,0003-00-0003-51.png
00000014,382,1,1444833780856,1444833781354,386,502,0,0,0,1,2,1,12,0004-00-0003-19.png,0002-00-0008-70.png
00000014,383,1,1444833782335,1444833782790,401,437,0,0,0,2,4,2,24,0002-00-0008-27.png,0005-00-0003-76.png
00000014,384,1,1444833783806,1444833784303,330,386,0,0,0,2,5,3,25,0002-00-0005-69.png,0001-00-0008-76.png
00000014,385,1,1444833785277,1444833785792,874,508,0,0,0,5,2,3,52,0001-00-0005-01.png,0002-00-0004-43.png
00000014,386,0,1444833786858,1444833787846,926,386,0,0,0,3,5,2,35,0003-00-0004-02.png,0001-00-0000-37.png
00000014,387,1,1444833790710,1444833791150,365,497,0,0,0,4,5,1,45,0005-00-0009-27.png,0001-00-0005-08.png
00000014,388,1,1444833792173,1444833792706,347,455,0,0,0,3,4,1,34,0003-00-0004-63.png,0005-00-0007-96.png
00000014,389,0,1444833793657,1444833794144,376,449,0,0,0,5,1,4,51,0001-00-0005-28.png,0004-00-0002-82.png
00000014,390,1,1444833797930,1444833798427,860,425,0,0,0,3,2,1,32,0003-00-0000-17.png,0002-00-0009-47.png
00000014,391,1,1444833799376,1444833799886,904,401,0,0,0,4,1,3,41,0005-00-0000-31.png,0004-00-0007-86.png
00000014,392,1,1444833800877,1444833801371,376,410,0,0,0,1,3,2,13,0004-00-0008-61.png,0003-00-0002-24.png
00000014,393,0,1444833802391,1444833802838,401,449,0,0,0,5,4,1,54,0001-00-0002-77.png,0005-00-0002-14.png
00000014,394,1,1444833805896,1444833806347,874,490,0,0,0,2,1,1,21,0002-00-0000-42.png,0004-00-0008-67.png
00000014,395,1,1444833807350,1444833807851,898,429,0,0,0,3,1,2,31,0003-00-0004-94.png,0004-00-0006-97.png
00000014,396,1,1444833808881,1444833809325,392,428,0,0,0,2,3,1,23,0002-00-0008-15.png,0003-00-0005-01.png
00000014,397,1,1444833810391,1444833810932,895,446,0,0,0,4,3,1,43,0005-00-0009-86.png,0003-00-0006-17.png
00000014,398,1,1444833811988,1444833812482,340,440,0,0,0,1,4,3,14,0004-00-0002-90.png,0005-00-0008-00.png
00000014,399,1,1444833813481,1444833814014,908,420,0,0,0,4,2,2,42,0005-00-0008-39.png,0002-00-0004-36.png
00000014,400,0,1444833815120,1444833815610,868,506,0,0,0,1,5,4,15,0004-00-0007-00.png,0001-00-0007-70.png
00000014,401,1,1444833820131,1444833820567,376,358,0,0,0,2,5,3,25,0002-00-0000-80.png,0001-00-0007-15.png
00000014,402,0,1444833821571,1444833822089,899,439,0,0,0,2,3,1,23,0002-00-0009-55.png,0003-00-0004-86.png
00000014,403,0,1444833825110,1444833825683,396,382,0,0,0,5,1,4,51,0001-00-0007-75.png,0004-00-0000-91.png
00000014,404,0,1444833829712,1444833830152,363,544,0,0,0,5,4,1,54,0001-00-0007-56.png,0005-00-0007-19.png
00000014,405,1,1444833833140,1444833833193,501,418,0,0,0,3,5,2,35,0003-00-0000-33.png,0001-00-0008-32.png
00000014,406,1,1444833834244,1444833834758,875,514,0,0,0,3,2,1,32,0003-00-0005-73.png,0002-00-0007-34.png
00000014,407,0,1444833835716,1444833836242,320,447,0,0,0,5,2,3,52,0001-00-0008-46.png,0002-00-0001-33.png
00000014,408,1,1444833839492,1444833839927,350,358,0,0,0,1,3,2,13,0004-00-0000-89.png,0003-00-0005-91.png
00000014,409,1,1444833840871,1444833841447,353,451,0,0,0,4,5,1,45,0005-00-0007-99.png,0001-00-0005-02.png
00000014,410,1,1444833842450,1444833843011,316,397,0,0,0,3,4,1,34,0003-00-0001-28.png,0005-00-0009-27.png
00000014,411,1,1444833843983,1444833844465,376,410,0,0,0,1,4,3,14,0004-00-0007-87.png,0005-00-0003-73.png
00000014,412,1,1444833845453,1444833845968,354,406,0,0,0,1,5,4,15,0004-00-0009-24.png,0001-00-0006-36.png
00000014,413,1,1444833846921,1444833847446,900,423,0,0,0,5,3,2,53,0001-00-0009-21.png,0003-00-0004-79.png
00000014,414,1,1444833848458,1444833848933,339,419,0,0,0,1,2,1,12,0004-00-0003-09.png,0002-00-0003-65.png
00000014,415,0,1444833849921,1444833850419,310,410,0,0,0,4,3,1,43,0005-00-0004-18.png,0003-00-0007-53.png
00000014,416,1,1444833853936,1444833854361,905,402,0,0,0,4,1,3,41,0005-00-0003-31.png,0004-00-0000-28.png
00000014,417,1,1444833855320,1444833855833,908,421,0,0,0,3,1,2,31,0003-00-0008-08.png,0004-00-0004-42.png
00000014,418,1,1444833856790,1444833857304,878,416,0,0,0,4,2,2,42,0005-00-0005-06.png,0002-00-0001-82.png
00000014,419,0,1444833858282,1444833858820,376,436,0,0,0,2,1,1,21,0002-00-0002-80.png,0004-00-0009-80.png
00000014,420,1,1444833861869,1444833862264,363,397,0,0,0,2,4,2,24,0002-00-0006-69.png,0005-00-0001-60.png
00000014,421,0,1444833863221,1444833863966,386,365,0,0,0,5,3,2,53,0001-00-0003-57.png,0003-00-0002-86.png
00000014,422,0,1444833866847,1444833867342,336,388,0,0,0,4,3,1,43,0005-00-0009-45.png,0003-00-0007-79.png
00000014,423,0,1444833870556,1444833871016,349,426,0,0,0,4,2,2,42,0005-00-0008-23.png,0002-00-0007-83.png
00000014,424,1,1444833873914,1444833874486,965,397,0,0,0,4,1,3,41,0005-00-0006-92.png,0004-00-0003-26.png
00000014,425,1,1444833875465,1444833875971,901,410,0,0,0,3,1,2,31,0003-00-0005-20.png,0004-00-0000-39.png
00000014,426,0,1444833876945,1444833877489,382,472,0,0,0,5,1,4,51,0001-00-0001-45.png,0004-00-0004-31.png
00000014,427,1,1444833881248,1444833881743,349,402,0,0,0,2,5,3,25,0002-00-0001-03.png,0001-00-0009-04.png
00000014,428,0,1444833882606,1444833883153,925,384,0,0,0,2,4,2,24,0002-00-0007-10.png,0005-00-0007-55.png
00000014,429,1,1444833886137,1444833886634,922,393,0,0,0,3,2,1,32,0003-00-0007-59.png,0002-00-0005-19.png
00000014,430,0,1444833887579,1444833888112,900,503,0,0,0,1,2,1,12,0004-00-0001-40.png,0002-00-0001-32.png
00000014,431,0,1444833891495,1444833891926,289,397,0,0,0,5,4,1,54,0001-00-0001-98.png,0005-00-0008-58.png
00000014,432,1,1444833894883,1444833895368,361,410,0,0,0,1,3,2,13,0004-00-0001-55.png,0003-00-0008-13.png
00000014,433,0,1444833896293,1444833896848,901,408,0,0,0,4,5,1,45,0005-00-0004-61.png,0001-00-0004-92.png
00000014,434,0,1444833899879,1444833900331,901,410,0,0,0,1,5,4,15,0004-00-0005-39.png,0001-00-0005-50.png
00000014,435,0,1444833903320,1444833903807,881,514,0,0,0,1,4,3,14,0004-00-0004-92.png,0005-00-0006-05.png
00000014,436,1,1444833906665,1444833907102,925,489,0,0,0,2,1,1,21,0002-00-0005-51.png,0004-00-0005-35.png
00000014,437,1,1444833907956,1444833908501,395,526,0,0,0,3,4,1,34,0003-00-0009-70.png,0005-00-0008-24.png
00000014,438,1,1444833909392,1444833909915,911,398,0,0,0,5,2,3,52,0001-00-0004-58.png,0002-00-0005-93.png
00000014,439,0,1444833910844,1444833911379,889,397,0,0,0,3,5,2,35,0003-00-0004-98.png,0001-00-0000-73.png
00000014,440,1,1444833914978,1444833915428,313,438,0,0,0,2,3,1,23,0002-00-0005-11.png,0003-00-0002-14.png
00000014,441,0,1444833916318,1444833916836,299,436,0,0,0,5,3,2,53,0001-00-0002-37.png,0003-00-0000-39.png
00000014,442,1,1444833920099,1444833920568,315,413,0,0,0,1,4,3,14,0004-00-0008-30.png,0005-00-0007-83.png
00000014,443,1,1444833921496,1444833922047,898,405,0,0,0,4,1,3,41,0005-00-0009-58.png,0004-00-0003-71.png
00000014,444,0,1444833923017,1444833923469,344,437,0,0,0,5,1,4,51,0001-00-0004-57.png,0004-00-0009-57.png
00000014,445,0,1444833926714,1444833927175,344,439,0,0,0,4,3,1,43,0005-00-0006-04.png,0003-00-0007-40.png
00000014,446,1,1444833930243,1444833930668,302,415,0,0,0,1,5,4,15,0004-00-0009-38.png,0001-00-0003-45.png
00000014,447,1,1444833931551,1444833932063,890,517,0,0,0,5,2,3,52,0001-00-0002-69.png,0002-00-0007-33.png
00000014,448,1,1444833932984,1444833933428,362,446,0,0,0,2,4,2,24,0002-00-0004-31.png,0005-00-0007-19.png
00000014,449,0,1444833934415,1444833935396,907,513,0,0,0,1,2,1,12,0004-00-0005-04.png,0002-00-0002-39.png
00000014,450,1,1444833938338,1444833938782,299,429,0,0,0,3,4,1,34,0003-00-0003-77.png,0005-00-0001-70.png
00000014,451,1,1444833939702,1444833940287,376,384,0,0,0,4,5,1,45,0005-00-0007-10.png,0001-00-0003-46.png
00000014,452,1,1444833941282,1444833941797,902,390,0,0,0,4,2,2,42,0005-00-0001-50.png,0002-00-0001-34.png
00000014,453,1,1444833942740,1444833943258,872,484,0,0,0,3,2,1,32,0003-00-0004-36.png,0002-00-0000-11.png
00000014,454,1,1444833944223,1444833944695,900,385,0,0,0,3,1,2,31,0003-00-0006-92.png,0004-00-0007-40.png
00000014,455,1,1444833945665,1444833946191,388,430,0,0,0,3,5,2,35,0003-00-0009-86.png,0001-00-0002-52.png
00000014,456,0,1444833947265,1444833947818,401,345,0,0,0,2,1,1,21,0002-00-0007-64.png,0004-00-0008-68.png
00000014,457,0,1444833950710,1444833951153,895,402,0,0,0,2,5,3,25,0002-00-0001-72.png,0001-00-0003-55.png
00000014,458,0,1444833954202,1444833954767,367,393,0,0,0,5,4,1,54,0001-00-0001-56.png,0005-00-0008-29.png
00000014,459,1,1444833958564,1444833959064,341,397,0,0,0,1,3,2,13,0004-00-0006-45.png,0003-00-0005-10.png
00000014,460,1,1444833960041,1444833960486,300,444,0,0,0,2,3,1,23,0002-00-0004-39.png,0003-00-0003-50.png
00000014,461,1,1444833961465,1444833962008,903,416,0,0,0,5,4,1,54,0001-00-0006-85.png,0005-00-0000-77.png
00000014,462,1,1444833962936,1444833963463,901,410,0,0,0,4,1,3,41,0005-00-0007-84.png,0004-00-0009-12.png
00000014,463,0,1444833964436,1444833964886,376,410,0,0,0,2,1,1,21,0002-00-0001-56.png,0004-00-0004-07.png
00000014,464,1,1444833968036,1444833968476,896,498,0,0,0,3,2,1,32,0003-00-0007-19.png,0002-00-0000-21.png
00000014,465,1,1444833969427,1444833969907,329,419,0,0,0,3,5,2,35,0003-00-0008-55.png,0001-00-0005-34.png
00000014,466,1,1444833970905,1444833971419,340,439,0,0,0,2,5,3,25,0002-00-0007-39.png,0001-00-0004-03.png
00000014,467,0,1444833972406,1444833972901,387,436,0,0,0,5,3,2,53,0001-00-0004-90.png,0003-00-0002-63.png
00000014,468,1,1444833976393,1444833976864,376,423,0,0,0,3,4,1,34,0003-00-0004-22.png,0005-00-0009-53.png
00000014,469,1,1444833977933,1444833978445,908,453,0,0,0,4,2,2,42,0005-00-0007-34.png,0002-00-0004-27.png
00000014,470,1,1444833979462,1444833980060,870,524,0,0,0,5,2,3,52,0001-00-0003-25.png,0002-00-0003-20.png
00000014,471,0,1444833981075,1444833981547,354,418,0,0,0,3,1,2,31,0003-00-0005-01.png,0004-00-0006-55.png
00000014,472,1,1444833984698,1444833985181,364,514,0,0,0,2,4,2,24,0002-00-0007-34.png,0005-00-0006-39.png
00000014,473,0,1444833986121,1444833986706,900,462,0,0,0,4,5,1,45,0005-00-0008-22.png,0001-00-0000-71.png
00000014,474,0,1444833989879,1444833990339,925,423,0,0,0,1,2,1,12,0004-00-0002-47.png,0002-00-0001-25.png
00000014,475,1,1444833993385,1444833993862,899,490,0,0,0,5,1,4,51,0001-00-0003-65.png,0004-00-0008-09.png
00000014,476,1,1444833994795,1444833995285,873,502,0,0,0,4,3,1,43,0005-00-0004-63.png,0003-00-0001-82.png
00000014,477,0,1444833996378,1444833996880,902,416,0,0,0,1,3,2,13,0004-00-0002-85.png,0003-00-0007-31.png
00000014,478,1,1444834000044,1444834000545,376,423,0,0,0,1,4,3,14,0004-00-0005-12.png,0005-00-0007-04.png
00000014,479,0,1444834001534,1444834002062,900,436,0,0,0,1,5,4,15,0004-00-0005-35.png,0001-00-0003-89.png
00000014,480,1,1444834004933,1444834005407,292,427,0,0,0,2,3,1,23,0002-00-0000-37.png,0003-00-0008-51.png
00000014,481,0,1444834006385,1444834006866,874,501,0,0,0,4,5,1,45,0005-00-0008-64.png,0001-00-0001-82.png
00000014,482,1,1444834009992,1444834010455,905,439,0,0,0,3,1,2,31,0003-00-0003-67.png,0004-00-0001-64.png
00000014,483,0,1444834011362,1444834012181,874,344,0,0,0,3,5,2,35,0003-00-0002-19.png,0001-00-0001-76.png
00000014,484,1,1444834015369,1444834016033,901,416,0,0,0,5,2,3,52,0001-00-0002-32.png,0002-00-0007-56.png
00000014,485,1,1444834017027,1444834017459,376,443,0,0,0,1,4,3,14,0004-00-0009-85.png,0005-00-0002-02.png
00000014,486,1,1444834018468,1444834019015,912,398,0,0,0,3,2,1,32,0003-00-0005-80.png,0002-00-0000-53.png
00000014,487,0,1444834020007,1444834020733,318,453,0,0,0,4,2,2,42,0005-00-0004-32.png,0002-00-0005-66.png
00000014,488,0,1444834023572,1444834024259,422,514,0,0,0,5,1,4,51,0001-00-0006-12.png,0004-00-0009-16.png
00000014,489,1,1444834027363,1444834027887,977,384,0,0,0,4,1,3,41,0005-00-0002-77.png,0004-00-0000-45.png
00000014,490,1,1444834028873,1444834029430,862,502,0,0,0,5,3,2,53,0001-00-0002-93.png,0003-00-0008-88.png
00000014,491,0,1444834030404,1444834030949,880,401,0,0,0,1,3,2,13,0004-00-0007-77.png,0003-00-0005-06.png
00000014,492,0,1444834034140,1444834034743,284,447,0,0,0,5,4,1,54,0001-00-0005-26.png,0005-00-0002-85.png
00000014,493,1,1444834037756,1444834038397,913,454,0,0,0,4,3,1,43,0005-00-0003-47.png,0003-00-0004-02.png
00000014,494,1,1444834039367,1444834039819,411,423,0,0,0,2,4,2,24,0002-00-0009-27.png,0005-00-0000-85.png
00000014,495,0,1444834040899,1444834041447,879,479,0,0,0,2,5,3,25,0002-00-0007-61.png,0001-00-0000-27.png
00000014,496,0,1444834044296,1444834044746,899,489,0,0,0,3,4,1,34,0003-00-0003-73.png,0005-00-0001-62.png
00000014,497,0,1444834047746,1444834048234,334,423,0,0,0,2,1,1,21,0002-00-0005-35.png,0004-00-0008-25.png
00000014,498,1,1444834051325,1444834051871,245,559,0,0,0,1,5,4,15,0004-00-0007-07.png,0001-00-0002-26.png
00000014,499,1,1444834052885,1444834053449,340,444,0,0,0,2,3,1,23,0002-00-0009-46.png,0003-00-0003-71.png
00000014,500,0,1444834054392,1444834054918,899,501,0,0,0,1,2,1,12,0004-00-0007-08.png,0002-00-0006-11.png
00000014,501,1,1444834057852,1444834058338,903,417,0,0,0,4,3,1,43,0005-00-0009-03.png,0003-00-0002-74.png
00000014,502,1,1444834059275,1444834059805,928,417,0,0,0,4,2,2,42,0005-00-0006-07.png,0002-00-0007-77.png
00000014,503,1,1444834060763,1444834061251,881,490,0,0,0,5,4,1,54,0001-00-0007-43.png,0005-00-0005-79.png
00000014,504,1,1444834062374,1444834062851,902,410,0,0,0,3,2,1,32,0003-00-0008-35.png,0002-00-0000-88.png
00000014,505,1,1444834063976,1444834064476,901,411,0,0,0,2,1,1,21,0002-00-0009-00.png,0004-00-0002-86.png
00000014,506,1,1444834065505,1444834066037,331,395,0,0,0,2,5,3,25,0002-00-0006-17.png,0001-00-0009-33.png
00000014,507,1,1444834067082,1444834067557,905,428,0,0,0,4,1,3,41,0005-00-0009-58.png,0004-00-0002-26.png
00000014,508,1,1444834068624,1444834069090,353,446,0,0,0,1,4,3,14,0004-00-0006-93.png,0005-00-0009-02.png
00000014,509,0,1444834070194,1444834070697,886,417,0,0,0,3,5,2,35,0003-00-0006-21.png,0001-00-0003-34.png
00000014,510,1,1444834073731,1444834074243,901,424,0,0,0,5,3,2,53,0001-00-0005-94.png,0003-00-0000-04.png
00000014,511,1,1444834075213,1444834075690,369,455,0,0,0,1,3,2,13,0004-00-0006-92.png,0003-00-0000-62.png
00000014,512,1,1444834076676,1444834077218,901,410,0,0,0,5,1,4,51,0001-00-0003-46.png,0004-00-0001-40.png
00000014,513,1,1444834078186,1444834078789,393,406,0,0,0,2,4,2,24,0002-00-0009-38.png,0005-00-0005-13.png
00000014,514,1,1444834079897,1444834080406,361,410,0,0,0,1,2,1,12,0004-00-0007-94.png,0002-00-0002-51.png
00000014,515,1,1444834081454,1444834082917,927,486,0,0,0,3,1,2,31,0003-00-0009-18.png,0004-00-0003-43.png
00000014,516,1,1444834083982,1444834084544,401,422,0,0,0,4,5,1,45,0005-00-0005-90.png,0001-00-0001-26.png
00000014,517,1,1444834085568,1444834086542,909,409,0,0,0,5,2,3,52,0001-00-0008-36.png,0002-00-0007-84.png
00000014,518,1,1444834087640,1444834088143,346,441,0,0,0,1,5,4,15,0004-00-0009-63.png,0001-00-0006-67.png
00000014,519,1,1444834089160,1444834089642,325,439,0,0,0,2,3,1,23,0002-00-0006-94.png,0003-00-0007-17.png
00000014,520,1,1444834090700,1444834091205,355,450,0,0,0,3,4,1,34,0003-00-0000-14.png,0005-00-0006-34.png
00000014,521,0,1444834092389,1444834092933,879,427,0,0,0,3,5,2,35,0003-00-0004-14.png,0001-00-0007-24.png
00000014,522,0,1444834095846,1444834096272,401,410,0,0,0,4,3,1,43,0005-00-0000-73.png,0003-00-0009-35.png
00000014,523,1,1444834099266,1444834099831,322,384,0,0,0,2,5,3,25,0002-00-0001-41.png,0001-00-0004-95.png
00000014,524,1,1444834100816,1444834101318,875,514,0,0,0,3,2,1,32,0003-00-0001-87.png,0002-00-0008-11.png
00000014,525,1,1444834102276,1444834102679,376,424,0,0,0,2,4,2,24,0002-00-0007-33.png,0005-00-0003-02.png
00000014,526,1,1444834103709,1444834104345,350,358,0,0,0,2,3,1,23,0002-00-0002-69.png,0003-00-0005-54.png
00000014,527,1,1444834105534,1444834106052,902,416,0,0,0,3,1,2,31,0003-00-0008-71.png,0004-00-0006-18.png
00000014,528,1,1444834107098,1444834107604,886,424,0,0,0,5,2,3,52,0001-00-0007-76.png,0002-00-0004-83.png
00000014,529,1,1444834108707,1444834109287,883,420,0,0,0,5,3,2,53,0001-00-0006-86.png,0003-00-0000-50.png
00000014,530,1,1444834110360,1444834110853,911,424,0,0,0,2,1,1,21,0002-00-0004-83.png,0004-00-0005-19.png
00000014,531,1,1444834112069,1444834112625,346,466,0,0,0,1,4,3,14,0004-00-0005-12.png,0005-00-0007-20.png
00000014,532,1,1444834113690,1444834114170,389,449,0,0,0,3,4,1,34,0003-00-0000-54.png,0005-00-0008-47.png
00000014,533,1,1444834115339,1444834115869,879,427,0,0,0,4,2,2,42,0005-00-0006-03.png,0002-00-0008-21.png
00000014,534,1,1444834116918,1444834117377,376,410,0,0,0,1,5,4,15,0004-00-0003-18.png,0001-00-0003-71.png
00000014,535,1,1444834118555,1444834119065,312,449,0,0,0,1,2,1,12,0004-00-0007-78.png,0002-00-0007-96.png
00000014,536,0,1444834120160,1444834120752,880,401,0,0,0,1,3,2,13,0004-00-0004-49.png,0003-00-0000-14.png
00000014,537,1,1444834123875,1444834124306,904,401,0,0,0,4,1,3,41,0005-00-0007-94.png,0004-00-0008-65.png
00000014,538,1,1444834125497,1444834126012,325,477,0,0,0,4,5,1,45,0005-00-0008-07.png,0001-00-0004-68.png
00000014,539,1,1444834127346,1444834127837,880,428,0,0,0,5,1,4,51,0001-00-0005-55.png,0004-00-0005-05.png
00000014,540,0,1444834128796,1444834129441,366,415,0,0,0,5,4,1,54,0001-00-0007-82.png,0005-00-0008-23.png
00000014,541,0,1444834133000,1444834133463,362,398,0,0,0,4,3,1,43,0005-00-0009-81.png,0003-00-0002-85.png
00000014,542,1,1444834136367,1444834136794,401,384,0,0,0,1,3,2,13,0004-00-0009-82.png,0003-00-0009-81.png
00000014,543,1,1444834137730,1444834138315,900,386,0,0,0,2,1,1,21,0002-00-0006-31.png,0004-00-0002-96.png
00000014,544,0,1444834139390,1444834140380,913,397,0,0,0,2,3,1,23,0002-00-0004-46.png,0003-00-0000-41.png
00000014,545,1,1444834143307,1444834143756,879,480,0,0,0,4,2,2,42,0005-00-0000-31.png,0002-00-0004-77.png
00000014,546,1,1444834144707,1444834145302,900,417,0,0,0,5,1,4,51,0001-00-0003-19.png,0004-00-0005-76.png
00000014,547,1,1444834146267,1444834146801,915,412,0,0,0,3,1,2,31,0003-00-0009-84.png,0004-00-0002-02.png
00000014,548,1,1444834147878,1444834148316,401,436,0,0,0,1,4,3,14,0004-00-0008-83.png,0005-00-0005-06.png
00000014,549,1,1444834149439,1444834149981,903,416,0,0,0,4,1,3,41,0005-00-0003-04.png,0004-00-0004-82.png
00000014,550,1,1444834151028,1444834151578,370,415,0,0,0,1,5,4,15,0004-00-0003-76.png,0001-00-0006-31.png
00000014,551,1,1444834152539,1444834153002,401,410,0,0,0,2,4,2,24,0002-00-0000-03.png,0005-00-0009-36.png
00000014,552,0,1444834154216,1444834154723,870,446,0,0,0,3,5,2,35,0003-00-0004-37.png,0001-00-0005-25.png
00000014,553,1,1444834157715,1444834157751,504,462,0,0,0,3,4,1,34,0003-00-0003-59.png,0005-00-0001-83.png
00000014,554,0,1444834158811,1444834159325,401,436,0,0,0,5,3,2,53,0001-00-0003-18.png,0003-00-0000-66.png
00000014,555,1,1444834162210,1444834162671,913,398,0,0,0,5,4,1,54,0001-00-0002-66.png,0005-00-0002-05.png
00000014,556,1,1444834163641,1444834164123,376,460,0,0,0,2,5,3,25,0002-00-0009-00.png,0001-00-0005-25.png
00000014,557,0,1444834165061,1444834165746,930,401,0,0,0,1,2,1,12,0004-00-0006-63.png,0002-00-0004-38.png
00000014,558,1,1444834168825,1444834169272,903,415,0,0,0,5,2,3,52,0001-00-0006-33.png,0002-00-0003-05.png
00000014,559,1,1444834170189,1444834170702,913,424,0,0,0,3,2,1,32,0003-00-0006-43.png,0002-00-0003-98.png
00000014,560,0,1444834171740,1444834172254,905,427,0,0,0,4,5,1,45,0005-00-0007-51.png,0001-00-0002-06.png
00000014,561,1,1444834175247,1444834175283,498,446,0,0,0,2,4,2,24,0002-00-0000-54.png,0005-00-0008-92.png
00000014,562,0,1444834176360,1444834176803,906,418,0,0,0,1,2,1,12,0004-00-0000-28.png,0002-00-0003-99.png
00000014,563,0,1444834179897,1444834180349,870,498,0,0,0,4,5,1,45,0005-00-0002-59.png,0001-00-0004-89.png
00000014,564,1,1444834183322,1444834183829,306,414,0,0,0,1,4,3,14,0004-00-0005-42.png,0005-00-0002-31.png
00000014,565,1,1444834184827,1444834185310,925,412,0,0,0,3,1,2,31,0003-00-0008-53.png,0004-00-0004-88.png
00000014,566,0,1444834186369,1444834186870,888,475,0,0,0,3,5,2,35,0003-00-0002-27.png,0001-00-0005-83.png
00000014,567,1,1444834189743,1444834190637,901,462,0,0,0,5,1,4,51,0001-00-0006-05.png,0004-00-0003-17.png
00000014,568,0,1444834191634,1444834192219,365,436,0,0,0,4,3,1,43,0005-00-0009-14.png,0003-00-0008-02.png
00000014,569,1,1444834195154,1444834195586,925,410,0,0,0,4,2,2,42,0005-00-0001-18.png,0002-00-0006-27.png
00000014,570,1,1444834196484,1444834196995,922,394,0,0,0,5,2,3,52,0001-00-0002-47.png,0002-00-0002-97.png
00000014,571,1,1444834198126,1444834198642,400,411,0,0,0,1,5,4,15,0004-00-0009-46.png,0001-00-0008-23.png
00000014,572,1,1444834199675,1444834200157,902,390,0,0,0,5,3,2,53,0001-00-0009-60.png,0003-00-0005-72.png
00000014,573,1,1444834201147,1444834201687,904,413,0,0,0,5,4,1,54,0001-00-0000-16.png,0005-00-0004-27.png
00000014,574,1,1444834202627,1444834203097,427,424,0,0,0,1,3,2,13,0004-00-0003-93.png,0003-00-0008-96.png
00000014,575,1,1444834204208,1444834204690,869,498,0,0,0,3,2,1,32,0003-00-0006-12.png,0002-00-0000-18.png
00000014,576,1,1444834205775,1444834206243,344,420,0,0,0,2,3,1,23,0002-00-0009-61.png,0003-00-0002-61.png
00000014,577,0,1444834207347,1444834207854,887,398,0,0,0,3,4,1,34,0003-00-0005-12.png,0005-00-0005-63.png
00000014,578,0,1444834210967,1444834211465,382,514,0,0,0,2,1,1,21,0002-00-0007-23.png,0004-00-0008-63.png
00000014,579,0,1444834215294,1444834215701,901,384,0,0,0,2,5,3,25,0002-00-0009-24.png,0001-00-0003-40.png
00000014,580,1,1444834219857,1444834220329,891,482,0,0,0,4,1,3,41,0005-00-0002-63.png,0004-00-0003-62.png
00000014,581,0,1444834221290,1444834221821,875,517,0,0,0,1,5,4,15,0004-00-0006-53.png,0001-00-0005-39.png
00000014,582,0,1444834225356,1444834225826,305,401,0,0,0,5,4,1,54,0001-00-0005-70.png,0005-00-0000-05.png
00000014,583,1,1444834228945,1444834229344,925,405,0,0,0,5,2,3,52,0001-00-0002-46.png,0002-00-0008-03.png
00000014,584,1,1444834230266,1444834230736,429,444,0,0,0,1,4,3,14,0004-00-0007-72.png,0005-00-0009-09.png
00000014,585,0,1444834231666,1444834232189,903,417,0,0,0,3,4,1,34,0003-00-0009-90.png,0005-00-0004-65.png
00000014,586,0,1444834235263,1444834235689,907,383,0,0,0,3,5,2,35,0003-00-0008-86.png,0001-00-0006-07.png
00000014,587,1,1444834238663,1444834239121,870,498,0,0,0,5,3,2,53,0001-00-0006-26.png,0003-00-0001-01.png
00000014,588,1,1444834240076,1444834240578,337,448,0,0,0,2,4,2,24,0002-00-0006-67.png,0005-00-0001-43.png
00000014,589,1,1444834241554,1444834242068,899,465,0,0,0,4,2,2,42,0005-00-0002-96.png,0002-00-0008-18.png
00000014,590,1,1444834243167,1444834243670,906,435,0,0,0,5,1,4,51,0001-00-0009-78.png,0004-00-0008-68.png
00000014,591,1,1444834244625,1444834245270,339,398,0,0,0,4,5,1,45,0005-00-0001-02.png,0001-00-0006-35.png
00000014,592,1,1444834246277,1444834246772,350,410,0,0,0,1,2,1,12,0004-00-0002-88.png,0002-00-0007-53.png
00000014,593,1,1444834247746,1444834248254,905,427,0,0,0,4,1,3,41,0005-00-0006-53.png,0004-00-0008-07.png
00000014,594,0,1444834249248,1444834249736,349,429,0,0,0,2,1,1,21,0002-00-0004-16.png,0004-00-0005-95.png
00000014,595,1,1444834252837,1444834253338,341,415,0,0,0,1,3,2,13,0004-00-0009-35.png,0003-00-0003-26.png
00000014,596,1,1444834254347,1444834254819,341,443,0,0,0,2,3,1,23,0002-00-0000-56.png,0003-00-0006-25.png
00000014,597,1,1444834255815,1444834256307,876,410,0,0,0,4,3,1,43,0005-00-0007-63.png,0003-00-0005-98.png
00000014,598,1,1444834257478,1444834257981,904,418,0,0,0,3,1,2,31,0003-00-0009-31.png,0004-00-0007-71.png
00000014,599,1,1444834258959,1444834259474,901,410,0,0,0,3,2,1,32,0003-00-0007-93.png,0002-00-0007-06.png
00000014,600,1,1444834260499,1444834260990,401,410,0,0,0,2,5,3,25,0002-00-0001-38.png,0001-00-0003-13.png
00000014,601,0,1444834262120,1444834262656,878,443,0,0,0,4,5,1,45,0005-00-0002-93.png,0001-00-0007-11.png
00000014,602,0,1444834265748,1444834265756,499,462,0,0,0,3,2,1,32,0003-00-0004-52.png,0002-00-0008-25.png
00000014,603,1,1444834268900,1444834269362,376,371,0,0,0,1,5,4,15,0004-00-0004-75.png,0001-00-0006-53.png
00000014,604,1,1444834270410,1444834270895,899,412,0,0,0,5,2,3,52,0001-00-0009-05.png,0002-00-0000-54.png
00000014,605,1,1444834271867,1444834272435,325,422,0,0,0,2,5,3,25,0002-00-0007-47.png,0001-00-0004-40.png
00000014,606,0,1444834273408,1444834273932,318,468,0,0,0,5,3,2,53,0001-00-0001-75.png,0003-00-0003-92.png
00000014,607,0,1444834277097,1444834277541,929,413,0,0,0,3,5,2,35,0003-00-0003-14.png,0001-00-0005-00.png
00000014,608,1,1444834280555,1444834280970,927,396,0,0,0,4,1,3,41,0005-00-0007-39.png,0004-00-0003-72.png
00000014,609,1,1444834281936,1444834282380,318,437,0,0,0,2,4,2,24,0002-00-0000-14.png,0005-00-0000-79.png
00000014,610,1,1444834283367,1444834283854,338,452,0,0,0,1,3,2,13,0004-00-0001-43.png,0003-00-0009-54.png
00000014,611,0,1444834284888,1444834285941,901,399,0,0,0,3,4,1,34,0003-00-0009-49.png,0005-00-0001-24.png
00000014,612,0,1444834288983,1444834289491,401,427,0,0,0,5,4,1,54,0001-00-0009-30.png,0005-00-0009-77.png
00000014,613,1,1444834292382,1444834292843,933,411,0,0,0,5,1,4,51,0001-00-0004-68.png,0004-00-0009-71.png
00000014,614,1,1444834293722,1444834294269,925,430,0,0,0,3,1,2,31,0003-00-0002-37.png,0004-00-0007-81.png
00000014,615,1,1444834295294,1444834295805,922,420,0,0,0,4,2,2,42,0005-00-0004-57.png,0002-00-0000-73.png
00000014,616,0,1444834296795,1444834297289,906,427,0,0,0,1,2,1,12,0004-00-0007-61.png,0002-00-0001-49.png
00000014,617,0,1444834300313,1444834300814,325,358,0,0,0,2,1,1,21,0002-00-0005-98.png,0004-00-0005-71.png
00000014,618,1,1444834303896,1444834303908,490,474,0,0,0,1,4,3,14,0004-00-0004-95.png,0005-00-0007-71.png
00000014,619,1,1444834304913,1444834305400,312,413,0,0,0,2,3,1,23,0002-00-0003-42.png,0003-00-0008-36.png
00000014,620,1,1444834306425,1444834307014,930,375,0,0,0,4,3,1,43,0005-00-0009-02.png,0003-00-0008-32.png
00000014,621,0,1444834307984,1444834308476,412,430,0,0,0,5,2,3,52,0001-00-0000-66.png,0002-00-0007-71.png
00000014,622,0,1444834311513,1444834311991,903,415,0,0,0,2,4,2,24,0002-00-0009-24.png,0005-00-0002-16.png
00000014,623,0,1444834315057,1444834315508,902,496,0,0,0,1,2,1,12,0004-00-0004-01.png,0002-00-0007-70.png
00000014,624,1,1444834318368,1444834318812,299,371,0,0,0,2,5,3,25,0002-00-0000-08.png,0001-00-0007-96.png
00000014,625,1,1444834319801,1444834320291,897,393,0,0,0,4,2,2,42,0005-00-0000-06.png,0002-00-0001-95.png
00000014,626,1,1444834321354,1444834321858,357,448,0,0,0,1,4,3,14,0004-00-0006-18.png,0005-00-0002-15.png
00000014,627,0,1444834322863,1444834323485,881,387,0,0,0,1,3,2,13,0004-00-0003-70.png,0003-00-0008-46.png
00000014,628,0,1444834326812,1444834327228,912,399,0,0,0,3,5,2,35,0003-00-0005-47.png,0001-00-0005-10.png
00000014,629,1,1444834330388,1444834330824,930,420,0,0,0,3,1,2,31,0003-00-0008-22.png,0004-00-0008-56.png
00000014,630,0,1444834331797,1444834332285,395,417,0,0,0,5,4,1,54,0001-00-0008-03.png,0005-00-0003-00.png
00000014,631,1,1444834336052,1444834336520,928,439,0,0,0,4,3,1,43,0005-00-0006-34.png,0003-00-0007-37.png
00000014,632,1,1444834337649,1444834338128,937,398,0,0,0,3,2,1,32,0003-00-0001-37.png,0002-00-0009-52.png
00000014,633,1,1444834339093,1444834339609,901,436,0,0,0,4,1,3,41,0005-00-0000-44.png,0004-00-0007-19.png
00000014,634,0,1444834340744,1444834341244,379,420,0,0,0,5,3,2,53,0001-00-0000-54.png,0003-00-0000-07.png
00000014,635,1,1444834344389,1444834344813,359,423,0,0,0,2,3,1,23,0002-00-0005-73.png,0003-00-0004-64.png
00000014,636,0,1444834345722,1444834346218,910,408,0,0,0,4,5,1,45,0005-00-0004-05.png,0001-00-0003-01.png
00000014,637,1,1444834349350,1444834349766,900,476,0,0,0,5,1,4,51,0001-00-0000-26.png,0004-00-0006-16.png
00000014,638,0,1444834350681,1444834351159,905,402,0,0,0,3,4,1,34,0003-00-0000-99.png,0005-00-0005-44.png
00000014,639,0,1444834354089,1444834354580,376,398,0,0,0,2,1,1,21,0002-00-0001-35.png,0004-00-0009-65.png
00000014,640,1,1444834357517,1444834357521,443,436,0,0,0,1,5,4,15,0004-00-0002-31.png,0001-00-0001-17.png
00000014,641,0,1444834358560,1444834359048,314,458,0,0,0,4,3,1,43,0005-00-0003-65.png,0003-00-0000-36.png
00000014,642,1,1444834361977,1444834362477,328,407,0,0,0,2,4,2,24,0002-00-0009-95.png,0005-00-0001-60.png
00000014,643,0,1444834363411,1444834363953,361,424,0,0,0,5,3,2,53,0001-00-0009-37.png,0003-00-0004-15.png
00000014,644,0,1444834367735,1444834368199,316,428,0,0,0,5,1,4,51,0001-00-0001-71.png,0004-00-0006-36.png
00000014,645,0,1444834371332,1444834371781,874,488,0,0,0,4,5,1,45,0005-00-0004-64.png,0001-00-0005-05.png
00000014,646,0,1444834375546,1444834376022,903,415,0,0,0,3,5,2,35,0003-00-0009-70.png,0001-00-0004-06.png
00000014,647,1,1444834379093,1444834379610,347,392,0,0,0,1,3,2,13,0004-00-0004-54.png,0003-00-0009-91.png
00000014,648,0,1444834380655,1444834381126,353,446,0,0,0,4,1,3,41,0005-00-0001-66.png,0004-00-0003-47.png
00000014,649,1,1444834384151,1444834384563,875,476,0,0,0,4,2,2,42,0005-00-0001-91.png,0002-00-0003-16.png
00000014,650,0,1444834385494,1444834385962,876,492,0,0,0,1,4,3,14,0004-00-0003-96.png,0005-00-0000-73.png
00000014,651,0,1444834388983,1444834389419,929,414,0,0,0,1,5,4,15,0004-00-0000-78.png,0001-00-0006-88.png
00000014,652,1,1444834392450,1444834392927,926,403,0,0,0,3,1,2,31,0003-00-0008-00.png,0004-00-0000-07.png
00000014,653,0,1444834393842,1444834394388,904,414,0,0,0,3,4,1,34,0003-00-0005-14.png,0005-00-0006-92.png
00000014,654,0,1444834397530,1444834397956,875,502,0,0,0,2,5,3,25,0002-00-0000-32.png,0001-00-0004-59.png
00000014,655,1,1444834400869,1444834401330,956,376,0,0,0,3,2,1,32,0003-00-0007-31.png,0002-00-0006-83.png
00000014,656,1,1444834402230,1444834402731,363,441,0,0,0,2,3,1,23,0002-00-0009-87.png,0003-00-0007-65.png
00000014,657,1,1444834403701,1444834404156,870,497,0,0,0,5,2,3,52,0001-00-0008-03.png,0002-00-0003-98.png
00000014,658,1,1444834405212,1444834405702,913,397,0,0,0,5,4,1,54,0001-00-0006-56.png,0005-00-0002-33.png
00000014,659,0,1444834406802,1444834407294,888,513,0,0,0,1,2,1,12,0004-00-0005-06.png,0002-00-0000-93.png
00000014,660,1,1444834410379,1444834410822,926,383,0,0,0,2,1,1,21,0002-00-0006-65.png,0004-00-0009-72.png
00000014,661,1,1444834411721,1444834412276,891,414,0,0,0,5,3,2,53,0001-00-0008-47.png,0003-00-0007-68.png
00000014,662,0,1444834413402,1444834413898,894,439,0,0,0,1,5,4,15,0004-00-0001-78.png,0001-00-0007-13.png
00000014,663,1,1444834416967,1444834417425,911,489,0,0,0,3,2,1,32,0003-00-0002-59.png,0002-00-0006-95.png
00000014,664,0,1444834418409,1444834418884,876,502,0,0,0,3,5,2,35,0003-00-0007-11.png,0001-00-0001-33.png
00000014,665,0,1444834421735,1444834421811,510,448,0,0,0,2,1,1,21,0002-00-0009-25.png,0004-00-0009-05.png
00000014,666,1,1444834424819,1444834425282,327,408,0,0,0,2,4,2,24,0002-00-0006-72.png,0005-00-0005-01.png
00000014,667,0,1444834426180,1444834426724,427,462,0,0,0,4,3,1,43,0005-00-0007-04.png,0003-00-0005-52.png
00000014,668,0,1444834429638,1444834429674,504,474,0,0,0,5,1,4,51,0001-00-0003-09.png,0004-00-0004-43.png
00000014,669,1,1444834433048,1444834433515,887,507,0,0,0,5,2,3,52,0001-00-0006-60.png,0002-00-0008-83.png
00000014,670,1,1444834434430,1444834434933,365,467,0,0,0,4,5,1,45,0005-00-0005-46.png,0001-00-0006-23.png
00000014,671,1,1444834435895,1444834436481,372,458,0,0,0,1,3,2,13,0004-00-0006-76.png,0003-00-0005-19.png
00000014,672,1,1444834437488,1444834437973,358,472,0,0,0,2,5,3,25,0002-00-0007-71.png,0001-00-0006-43.png
00000014,673,1,1444834439010,1444834439562,903,415,0,0,0,4,1,3,41,0005-00-0007-05.png,0004-00-0001-37.png
00000014,674,0,1444834440641,1444834441097,419,445,0,0,0,5,4,1,54,0001-00-0008-27.png,0005-00-0000-64.png
00000014,675,1,1444834444108,1444834444571,411,482,0,0,0,1,2,1,12,0004-00-0007-96.png,0002-00-0009-55.png
00000014,676,0,1444834445539,1444834446591,874,410,0,0,0,3,4,1,34,0003-00-0006-12.png,0005-00-0006-33.png
00000014,677,1,1444834450370,1444834450780,389,502,0,0,0,2,3,1,23,0002-00-0005-46.png,0003-00-0004-15.png
00000014,678,0,1444834451782,1444834452353,915,443,0,0,0,1,4,3,14,0004-00-0005-75.png,0005-00-0008-10.png
00000014,679,1,1444834455477,1444834455936,879,483,0,0,0,4,2,2,42,0005-00-0003-88.png,0002-00-0002-88.png
00000014,680,1,1444834456880,1444834457428,874,423,0,0,0,3,1,2,31,0003-00-0005-39.png,0004-00-0001-00.png
00000014,681,0,1444834458507,1444834458984,879,428,0,0,0,1,2,1,12,0004-00-0009-15.png,0002-00-0001-97.png
00000014,682,1,1444834462079,1444834462530,375,436,0,0,0,2,5,3,25,0002-00-0006-77.png,0001-00-0006-57.png
00000014,683,1,1444834463394,1444834464010,350,387,0,0,0,3,4,1,34,0003-00-0000-26.png,0005-00-0003-87.png
00000014,684,0,1444834465007,1444834465505,376,424,0,0,0,2,1,1,21,0002-00-0006-04.png,0004-00-0005-48.png
00000014,685,1,1444834468646,1444834469086,907,421,0,0,0,3,1,2,31,0003-00-0000-43.png,0004-00-0008-57.png
00000014,686,1,1444834470065,1444834470541,878,494,0,0,0,3,2,1,32,0003-00-0008-05.png,0002-00-0000-83.png
00000014,687,0,1444834471507,1444834471950,391,459,0,0,0,5,3,2,53,0001-00-0002-73.png,0003-00-0005-80.png
00000014,688,0,1444834475114,1444834475659,401,440,0,0,0,5,4,1,54,0001-00-0009-41.png,0005-00-0002-29.png
00000014,689,1,1444834478510,1444834478551,504,395,0,0,0,2,3,1,23,0002-00-0003-63.png,0003-00-0008-77.png
00000014,690,1,1444834479578,1444834480121,344,478,0,0,0,3,5,2,35,0003-00-0003-18.png,0001-00-0009-00.png
00000014,691,0,1444834481117,1444834481607,901,437,0,0,0,4,5,1,45,0005-00-0006-03.png,0001-00-0008-81.png
00000014,692,1,1444834485163,1444834485635,871,472,0,0,0,5,2,3,52,0001-00-0008-76.png,0002-00-0000-16.png
00000014,693,1,1444834486723,1444834487269,904,402,0,0,0,4,3,1,43,0005-00-0005-36.png,0003-00-0006-43.png
00000014,694,0,1444834488204,1444834488719,875,436,0,0,0,1,3,2,13,0004-00-0008-53.png,0003-00-0001-79.png
00000014,695,1,1444834491751,1444834492175,361,427,0,0,0,1,5,4,15,0004-00-0007-87.png,0001-00-0009-48.png
00000014,696,1,1444834493162,1444834493676,409,446,0,0,0,2,4,2,24,0002-00-0008-29.png,0005-00-0008-91.png
00000014,697,1,1444834494654,1444834495188,887,450,0,0,0,4,1,3,41,0005-00-0005-86.png,0004-00-0007-54.png
00000014,698,1,1444834496134,1444834496636,876,461,0,0,0,5,1,4,51,0001-00-0008-46.png,0004-00-0000-51.png
00000014,699,0,1444834497635,1444834498170,881,471,0,0,0,1,4,3,14,0004-00-0005-25.png,0005-00-0004-38.png
00000014,700,0,1444834501162,1444834501598,324,443,0,0,0,4,2,2,42,0005-00-0000-89.png,0002-00-0007-16.png
00000014,701,1,1444834505157,1444834505644,381,522,0,0,0,2,3,1,23,0002-00-0000-37.png,0003-00-0004-58.png
00000014,702,1,1444834506560,1444834507072,899,509,0,0,0,2,1,1,21,0002-00-0004-89.png,0004-00-0004-63.png
00000014,703,1,1444834508080,1444834508608,862,501,0,0,0,5,1,4,51,0001-00-0003-28.png,0004-00-0006-11.png
00000014,704,1,1444834509601,1444834510111,375,385,0,0,0,1,5,4,15,0004-00-0002-07.png,0001-00-0006-27.png
00000014,705,1,1444834511172,1444834511674,376,410,0,0,0,1,4,3,14,0004-00-0002-52.png,0005-00-0001-44.png
00000014,706,1,1444834512681,1444834513206,917,416,0,0,0,4,2,2,42,0005-00-0000-10.png,0002-00-0002-57.png
00000014,707,0,1444834514321,1444834514818,427,462,0,0,0,5,3,2,53,0001-00-0000-58.png,0003-00-0009-47.png
00000014,708,1,1444834517878,1444834518315,920,415,0,0,0,5,2,3,52,0001-00-0002-57.png,0002-00-0001-89.png
00000014,709,1,1444834519300,1444834519965,408,493,0,0,0,3,5,2,35,0003-00-0001-47.png,0001-00-0008-53.png
00000014,710,1,1444834520970,1444834521596,365,465,0,0,0,4,5,1,45,0005-00-0002-90.png,0001-00-0005-29.png
00000014,711,1,1444834522789,1444834523300,891,418,0,0,0,3,2,1,32,0003-00-0003-82.png,0002-00-0002-94.png
00000014,712,1,1444834524378,1444834524862,344,406,0,0,0,2,4,2,24,0002-00-0007-32.png,0005-00-0001-69.png
00000014,713,0,1444834525939,1444834526425,873,412,0,0,0,1,3,2,13,0004-00-0006-97.png,0003-00-0009-07.png
00000014,714,1,1444834529378,1444834529835,901,382,0,0,0,4,1,3,41,0005-00-0008-24.png,0004-00-0004-32.png
00000014,715,0,1444834530769,1444834531278,894,403,0,0,0,2,5,3,25,0002-00-0007-77.png,0001-00-0001-44.png
00000014,716,1,1444834534406,1444834534861,891,483,0,0,0,4,3,1,43,0005-00-0000-40.png,0003-00-0002-42.png
00000014,717,1,1444834535749,1444834536249,880,427,0,0,0,3,1,2,31,0003-00-0005-68.png,0004-00-0000-06.png
00000014,718,0,1444834537149,1444834537760,391,393,0,0,0,5,4,1,54,0001-00-0001-88.png,0005-00-0004-95.png
00000014,719,0,1444834540786,1444834541754,920,465,0,0,0,1,2,1,12,0004-00-0005-73.png,0002-00-0007-20.png
00000014,720,0,1444834544609,1444834545084,937,399,0,0,0,3,4,1,34,0003-00-0000-81.png,0005-00-0008-62.png
00000014,721,1,1444834548202,1444834548598,927,409,0,0,0,4,2,2,42,0005-00-0000-52.png,0002-00-0003-50.png
00000014,722,1,1444834549499,1444834549997,887,476,0,0,0,3,1,2,31,0003-00-0006-74.png,0004-00-0005-40.png
00000014,723,0,1444834550973,1444834551476,874,515,0,0,0,2,3,1,23,0002-00-0002-18.png,0003-00-0009-30.png
00000014,724,1,1444834554480,1444834554901,376,410,0,0,0,3,5,2,35,0003-00-0001-68.png,0001-00-0006-20.png
00000014,725,1,1444834555854,1444834556400,897,407,0,0,0,4,3,1,43,0005-00-0001-37.png,0003-00-0004-83.png
00000014,726,1,1444834557373,1444834557932,366,439,0,0,0,3,4,1,34,0003-00-0009-91.png,0005-00-0008-44.png
00000014,727,1,1444834558913,1444834559412,925,413,0,0,0,2,1,1,21,0002-00-0007-37.png,0004-00-0008-73.png
00000014,728,0,1444834560463,1444834560980,916,418,0,0,0,1,2,1,12,0004-00-0003-08.png,0002-00-0006-75.png
00000014,729,1,1444834563930,1444834564375,901,435,0,0,0,4,1,3,41,0005-00-0005-85.png,0004-00-0002-73.png
00000014,730,1,1444834565319,1444834565785,905,408,0,0,0,5,2,3,52,0001-00-0004-06.png,0002-00-0000-16.png
00000014,731,0,1444834566745,1444834567302,862,450,0,0,0,4,5,1,45,0005-00-0002-71.png,0001-00-0002-94.png
00000014,732,1,1444834570342,1444834570836,402,540,0,0,0,1,3,2,13,0004-00-0009-45.png,0003-00-0004-23.png
00000014,733,1,1444834572069,1444834572505,323,433,0,0,0,1,5,4,15,0004-00-0001-22.png,0001-00-0000-74.png
00000014,734,1,1444834573604,1444834574078,900,411,0,0,0,3,2,1,32,0003-00-0009-45.png,0002-00-0002-51.png
00000014,735,0,1444834575082,1444834575596,375,464,0,0,0,5,4,1,54,0001-00-0000-39.png,0005-00-0001-51.png
00000014,736,0,1444834578560,1444834578596,486,466,0,0,0,5,1,4,51,0001-00-0001-71.png,0004-00-0001-39.png
00000014,737,1,1444834581628,1444834582075,376,410,0,0,0,2,4,2,24,0002-00-0000-09.png,0005-00-0003-67.png
00000014,738,0,1444834583042,1444834583544,875,502,0,0,0,2,5,3,25,0002-00-0009-59.png,0001-00-0009-23.png
00000014,739,0,1444834587037,1444834587427,928,415,0,0,0,1,4,3,14,0004-00-0009-41.png,0005-00-0001-68.png
00000014,740,0,1444834590476,1444834590927,349,429,0,0,0,5,3,2,53,0001-00-0008-94.png,0003-00-0006-21.png
00000014,741,1,1444834593818,1444834594351,977,386,0,0,0,5,1,4,51,0001-00-0005-91.png,0004-00-0002-90.png
00000014,742,1,1444834595298,1444834595838,401,410,0,0,0,2,3,1,23,0002-00-0001-09.png,0003-00-0008-37.png
00000014,743,1,1444834596844,1444834597276,905,402,0,0,0,3,1,2,31,0003-00-0000-43.png,0004-00-0008-16.png
00000014,744,1,1444834598279,1444834599204,900,391,0,0,0,5,2,3,52,0001-00-0007-95.png,0002-00-0005-22.png
00000014,745,0,1444834600138,1444834600798,423,439,0,0,0,3,2,1,32,0003-00-0008-06.png,0002-00-0008-60.png
00000014,746,1,1444834603873,1444834604342,418,429,0,0,0,1,3,2,13,0004-00-0007-67.png,0003-00-0000-61.png
00000014,747,0,1444834605394,1444834605850,901,409,0,0,0,2,4,2,24,0002-00-0002-46.png,0005-00-0008-36.png
00000014,748,1,1444834608878,1444834608918,504,536,0,0,0,3,4,1,34,0003-00-0002-93.png,0005-00-0006-52.png
00000014,749,1,1444834609974,1444834610462,888,502,0,0,0,4,2,2,42,0005-00-0005-03.png,0002-00-0007-33.png
00000014,750,0,1444834611395,1444834611873,899,413,0,0,0,1,2,1,12,0004-00-0000-10.png,0002-00-0007-39.png
00000014,751,1,1444834614784,1444834614804,506,427,0,0,0,3,5,2,35,0003-00-0006-36.png,0001-00-0008-37.png
00000014,752,0,1444834615808,1444834616288,905,427,0,0,0,4,5,1,45,0005-00-0006-07.png,0001-00-0008-36.png
00000014,753,1,1444834619387,1444834619890,339,439,0,0,0,1,5,4,15,0004-00-0003-10.png,0001-00-0006-22.png
00000014,754,1,1444834620837,1444834621351,901,435,0,0,0,2,1,1,21,0002-00-0009-63.png,0004-00-0003-46.png
00000014,755,1,1444834622408,1444834622912,370,472,0,0,0,2,5,3,25,0002-00-0009-76.png,0001-00-0008-64.png
00000014,756,1,1444834624067,1444834624658,886,424,0,0,0,5,4,1,54,0001-00-0002-62.png,0005-00-0007-68.png
00000014,757,0,1444834625649,1444834626138,401,397,0,0,0,5,3,2,53,0001-00-0009-72.png,0003-00-0000-65.png
00000014,758,0,1444834629087,1444834629521,338,398,0,0,0,4,3,1,43,0005-00-0006-79.png,0003-00-0000-07.png
00000014,759,1,1444834632662,1444834633459,401,358,0,0,0,1,4,3,14,0004-00-0002-46.png,0005-00-0003-65.png
00000014,760,1,1444834634404,1444834634902,875,488,0,0,0,4,1,3,41,0005-00-0009-19.png,0004-00-0005-47.png
00000014,761,0,1444834635758,1444834636299,901,409,0,0,0,1,2,1,12,0004-00-0000-66.png,0002-00-0001-60.png
00000014,762,1,1444834639404,1444834639924,324,412,0,0,0,2,5,3,25,0002-00-0001-76.png,0001-00-0001-37.png
00000014,763,0,1444834640863,1444834641402,896,435,0,0,0,3,5,2,35,0003-00-0001-55.png,0001-00-0005-25.png
00000014,764,1,1444834644337,1444834644349,504,488,0,0,0,1,5,4,15,0004-00-0009-19.png,0001-00-0006-73.png
00000014,765,1,1444834645476,1444834645939,906,428,0,0,0,5,1,4,51,0001-00-0002-12.png,0004-00-0005-97.png
00000014,766,1,1444834646955,1444834647609,893,480,0,0,0,2,1,1,21,0002-00-0006-70.png,0004-00-0000-42.png
00000014,767,0,1444834648545,1444834649089,347,444,0,0,0,4,2,2,42,0005-00-0007-81.png,0002-00-0003-20.png
00000014,768,0,1444834652134,1444834652612,892,482,0,0,0,4,5,1,45,0005-00-0005-82.png,0001-00-0001-69.png
00000014,769,1,1444834655720,1444834656149,318,408,0,0,0,2,3,1,23,0002-00-0004-76.png,0003-00-0001-37.png
00000014,770,0,1444834657022,1444834657564,904,415,0,0,0,2,4,2,24,0002-00-0003-64.png,0005-00-0003-25.png
00000014,771,1,1444834660588,1444834661014,376,422,0,0,0,1,3,2,13,0004-00-0001-43.png,0003-00-0002-81.png
00000014,772,1,1444834661972,1444834662466,311,439,0,0,0,1,4,3,14,0004-00-0003-60.png,0005-00-0008-65.png
00000014,773,0,1444834663440,1444834663982,347,450,0,0,0,5,2,3,52,0001-00-0008-26.png,0002-00-0008-45.png
00000014,774,1,1444834667716,1444834668151,915,412,0,0,0,3,1,2,31,0003-00-0007-21.png,0004-00-0005-58.png
00000014,775,1,1444834669088,1444834669546,938,398,0,0,0,4,1,3,41,0005-00-0001-51.png,0004-00-0006-71.png
00000014,776,0,1444834670528,1444834670992,862,501,0,0,0,3,4,1,34,0003-00-0008-78.png,0005-00-0009-99.png
00000014,777,1,1444834674074,1444834674491,885,425,0,0,0,5,4,1,54,0001-00-0006-44.png,0005-00-0006-28.png
00000014,778,0,1444834675457,1444834676010,370,455,0,0,0,5,3,2,53,0001-00-0000-97.png,0003-00-0002-54.png
00000014,779,1,1444834679162,1444834679601,903,410,0,0,0,3,2,1,32,0003-00-0000-64.png,0002-00-0000-17.png
00000014,780,1,1444834680525,1444834681050,901,409,0,0,0,4,3,1,43,0005-00-0007-03.png,0003-00-0006-59.png
00000014,781,1,1444834681993,1444834682511,904,445,0,0,0,4,1,3,41,0005-00-0000-21.png,0004-00-0005-25.png
00000014,782,1,1444834683575,1444834684093,898,430,0,0,0,3,1,2,31,0003-00-0006-39.png,0004-00-0001-18.png
00000014,783,1,1444834685107,1444834685544,401,423,0,0,0,1,3,2,13,0004-00-0005-69.png,0003-00-0002-19.png
00000014,784,1,1444834686598,1444834687089,908,394,0,0,0,4,3,1,43,0005-00-0004-04.png,0003-00-0009-56.png
00000014,785,1,1444834688089,1444834688595,868,402,0,0,0,5,3,2,53,0001-00-0005-73.png,0003-00-0000-55.png
00000014,786,1,1444834689879,1444834690303,408,549,0,0,0,2,3,1,23,0002-00-0009-16.png,0003-00-0001-68.png
00000014,787,1,1444834691320,1444834691844,869,524,0,0,0,5,4,1,54,0001-00-0004-21.png,0005-00-0002-68.png
00000014,788,1,1444834692842,1444834693330,330,445,0,0,0,4,5,1,45,0005-00-0002-67.png,0001-00-0001-20.png
00000014,789,1,1444834694362,1444834694884,325,435,0,0,0,3,5,2,35,0003-00-0000-59.png,0001-00-0001-75.png
00000014,790,0,1444834696042,1444834696481,875,508,0,0,0,1,2,1,12,0004-00-0005-43.png,0002-00-0007-82.png
00000014,791,1,1444834699549,1444834699976,899,489,0,0,0,2,1,1,21,0002-00-0007-42.png,0004-00-0003-30.png
00000014,792,1,1444834701001,1444834701508,930,401,0,0,0,5,2,3,52,0001-00-0000-10.png,0002-00-0002-37.png
00000014,793,0,1444834702482,1444834703058,879,427,0,0,0,3,4,1,34,0003-00-0006-47.png,0005-00-0002-28.png
00000014,794,0,1444834706130,1444834706643,350,384,0,0,0,5,1,4,51,0001-00-0002-45.png,0004-00-0007-92.png
00000014,795,1,1444834709648,1444834710101,363,424,0,0,0,2,5,3,25,0002-00-0001-02.png,0001-00-0006-00.png
00000014,796,1,1444834711009,1444834711535,875,502,0,0,0,3,2,1,32,0003-00-0009-10.png,0002-00-0007-18.png
00000014,797,1,1444834712462,1444834712932,314,424,0,0,0,2,4,2,24,0002-00-0002-00.png,0005-00-0008-24.png
00000014,798,1,1444834714012,1444834714515,325,475,0,0,0,1,5,4,15,0004-00-0004-06.png,0001-00-0008-16.png
00000014,799,1,1444834715587,1444834716052,313,447,0,0,0,1,4,3,14,0004-00-0007-22.png,0005-00-0008-43.png
00000014,800,0,1444834717113,1444834717565,385,443,0,0,0,4,2,2,42,0005-00-0005-35.png,0002-00-0005-61.png
00000014,801,0,1444834720430,1444834720901,882,512,0,0,0,1,2,1,12,0004-00-0000-97.png,0002-00-0001-11.png
00000014,802,0,1444834723807,1444834724248,403,515,0,0,0,5,3,2,53,0001-00-0005-80.png,0003-00-0006-25.png
00000014,803,0,1444834727287,1444834727749,927,400,0,0,0,1,4,3,14,0004-00-0009-03.png,0005-00-0005-38.png
00000014,804,1,1444834730723,1444834731170,875,488,0,0,0,4,2,2,42,0005-00-0004-77.png,0002-00-0008-96.png
00000014,805,1,1444834732088,1444834732760,878,364,0,0,0,5,4,1,54,0001-00-0004-19.png,0005-00-0001-05.png
00000014,806,1,1444834733746,1444834734236,273,530,0,0,0,2,3,1,23,0002-00-0001-74.png,0003-00-0005-47.png
00000014,807,1,1444834735268,1444834735768,876,512,0,0,0,2,1,1,21,0002-00-0005-48.png,0004-00-0001-87.png
00000014,808,1,1444834736769,1444834737267,880,506,0,0,0,3,2,1,32,0003-00-0007-04.png,0002-00-0005-45.png
00000014,809,1,1444834738212,1444834738717,926,417,0,0,0,3,1,2,31,0003-00-0006-09.png,0004-00-0002-17.png
00000014,810,1,1444834739741,1444834740287,904,401,0,0,0,5,2,3,52,0001-00-0000-34.png,0002-00-0001-79.png
00000014,811,0,1444834741362,1444834741914,333,448,0,0,0,4,3,1,43,0005-00-0007-70.png,0003-00-0007-82.png
00000014,812,1,1444834746291,1444834746699,392,402,0,0,0,2,4,2,24,0002-00-0004-00.png,0005-00-0003-16.png
00000014,813,0,1444834747802,1444834748326,869,445,0,0,0,3,4,1,34,0003-00-0004-82.png,0005-00-0007-22.png
00000014,814,0,1444834751460,1444834751873,928,416,0,0,0,3,5,2,35,0003-00-0007-41.png,0001-00-0007-14.png
00000014,815,1,1444834766976,1444834767437,337,410,0,0,0,1,5,4,15,0004-00-0002-21.png,0001-00-0006-52.png
00000014,816,0,1444834768407,1444834768901,913,398,0,0,0,2,5,3,25,0002-00-0009-92.png,0001-00-0007-37.png
00000014,817,1,1444834771752,1444834772133,926,475,0,0,0,4,1,3,41,0005-00-0006-33.png,0004-00-0002-03.png
00000014,818,0,1444834773077,1444834773560,861,502,0,0,0,4,5,1,45,0005-00-0005-77.png,0001-00-0007-70.png
00000014,819,1,1444834776506,1444834776981,951,385,0,0,0,5,1,4,51,0001-00-0008-62.png,0004-00-0008-60.png
00000014,820,0,1444834777845,1444834778376,873,464,0,0,0,1,3,2,13,0004-00-0001-92.png,0003-00-0003-70.png
00000014,821,1,1444834781396,1444834781897,350,371,0,0,0,1,2,1,12,0004-00-0003-72.png,0002-00-0009-77.png
00000014,822,1,1444834782877,1444834783352,305,414,0,0,0,4,5,1,45,0005-00-0002-13.png,0001-00-0001-68.png
00000014,823,1,1444834784297,1444834784803,925,386,0,0,0,4,1,3,41,0005-00-0007-24.png,0004-00-0007-14.png
00000014,824,0,1444834785769,1444834786360,359,418,0,0,0,3,1,2,31,0003-00-0009-16.png,0004-00-0005-75.png
00000014,825,1,1444834793175,1444834793611,337,375,0,0,0,2,3,1,23,0002-00-0008-27.png,0003-00-0006-93.png
00000014,826,0,1444834794641,1444834795156,418,480,0,0,0,5,4,1,54,0001-00-0009-99.png,0005-00-0002-35.png
00000014,827,1,1444834798365,1444834798825,340,415,0,0,0,1,3,2,13,0004-00-0003-28.png,0003-00-0003-55.png
00000014,828,1,1444834799786,1444834800284,880,523,0,0,0,3,2,1,32,0003-00-0006-25.png,0002-00-0004-65.png
00000014,829,0,1444834801179,1444834801638,369,460,0,0,0,5,1,4,51,0001-00-0003-34.png,0004-00-0002-85.png
00000014,830,1,1444834807321,1444834807725,870,367,0,0,0,4,2,2,42,0005-00-0000-20.png,0002-00-0006-15.png
00000014,831,1,1444834808701,1444834809191,874,515,0,0,0,2,1,1,21,0002-00-0001-62.png,0004-00-0009-94.png
00000014,832,0,1444834810156,1444834810779,878,494,0,0,0,2,4,2,24,0002-00-0006-49.png,0005-00-0009-42.png
00000014,833,1,1444834813654,1444834814054,376,384,0,0,0,2,5,3,25,0002-00-0001-52.png,0001-00-0004-55.png
00000014,834,0,1444834814924,1444834815463,399,438,0,0,0,4,3,1,43,0005-00-0000-90.png,0003-00-0009-49.png
00000014,835,1,1444834818392,1444834818828,952,397,0,0,0,5,2,3,52,0001-00-0001-48.png,0002-00-0005-25.png
00000014,836,0,1444834819746,1444834820237,416,470,0,0,0,5,3,2,53,0001-00-0006-70.png,0003-00-0004-45.png
00000014,837,1,1444834824549,1444834824991,319,399,0,0,0,1,5,4,15,0004-00-0008-44.png,0001-00-0001-61.png
00000014,838,0,1444834825894,1444834826461,866,454,0,0,0,3,5,2,35,0003-00-0005-23.png,0001-00-0007-12.png
00000014,839,1,1444834829495,1444834829934,323,423,0,0,0,1,4,3,14,0004-00-0001-27.png,0005-00-0006-53.png
00000014,840,1,1444834830869,1444834831351,339,467,0,0,0,3,4,1,34,0003-00-0007-42.png,0005-00-0001-97.png
00000014,841,1,1444834832366,1444834832899,409,472,0,0,0,4,5,1,45,0005-00-0003-74.png,0001-00-0006-64.png
00000014,842,1,1444834833876,1444834834380,888,424,0,0,0,3,1,2,31,0003-00-0000-33.png,0004-00-0002-95.png
00000014,843,0,1444834835355,1444834835880,870,524,0,0,0,2,3,1,23,0002-00-0001-86.png,0003-00-0003-33.png
00000014,844,1,1444834838934,1444834839401,886,384,0,0,0,5,4,1,54,0001-00-0008-55.png,0005-00-0008-12.png
00000014,845,1,1444834840367,1444834841360,901,492,0,0,0,5,1,4,51,0001-00-0008-41.png,0004-00-0009-39.png
00000014,846,1,1444834842300,1444834842816,376,449,0,0,0,1,4,3,14,0004-00-0003-69.png,0005-00-0000-60.png
00000014,847,0,1444834843806,1444834844265,331,440,0,0,0,2,1,1,21,0002-00-0000-97.png,0004-00-0009-77.png
00000014,848,0,1444834847241,1444834847693,867,510,0,0,0,1,5,4,15,0004-00-0005-09.png,0001-00-0003-72.png
00000014,849,0,1444834850547,1444834850971,954,410,0,0,0,3,4,1,34,0003-00-0001-26.png,0005-00-0009-78.png
00000014,850,1,1444834853900,1444834854357,250,383,0,0,0,2,4,2,24,0002-00-0002-47.png,0005-00-0007-45.png
00000014,851,1,1444834855229,1444834855704,386,431,0,0,0,2,5,3,25,0002-00-0006-59.png,0001-00-0008-44.png
00000014,852,0,1444834856633,1444834857635,915,414,0,0,0,1,3,2,13,0004-00-0008-92.png,0003-00-0002-10.png
00000014,853,0,1444834860765,1444834861202,383,427,0,0,0,4,3,1,43,0005-00-0007-50.png,0003-00-0008-02.png
00000014,854,1,1444834864247,1444834864712,893,485,0,0,0,4,1,3,41,0005-00-0008-33.png,0004-00-0001-94.png
00000014,855,0,1444834865634,1444834866141,876,486,0,0,0,3,5,2,35,0003-00-0004-30.png,0001-00-0000-73.png
00000014,856,1,1444834869212,1444834869663,933,382,0,0,0,3,2,1,32,0003-00-0007-63.png,0002-00-0001-05.png
00000014,857,1,1444834870677,1444834871162,917,412,0,0,0,4,2,2,42,0005-00-0008-04.png,0002-00-0007-57.png
00000014,858,1,1444834872102,1444834872624,877,492,0,0,0,5,2,3,52,0001-00-0008-60.png,0002-00-0007-65.png
00000014,859,0,1444834873574,1444834874108,899,437,0,0,0,1,2,1,12,0004-00-0001-13.png,0002-00-0003-52.png
00000014,860,0,1444834877043,1444834877075,504,426,0,0,0,5,3,2,53,0001-00-0006-48.png,0003-00-0000-51.png
00000014,861,1,1444834880911,1444834881358,922,418,0,0,0,5,4,1,54,0001-00-0003-31.png,0005-00-0003-73.png
00000014,862,1,1444834882254,1444834882807,342,445,0,0,0,2,4,2,24,0002-00-0009-93.png,0005-00-0005-78.png
00000014,863,1,1444834883724,1444834884237,883,473,0,0,0,5,3,2,53,0001-00-0009-32.png,0003-00-0002-70.png
00000014,864,1,1444834885215,1444834885737,914,397,0,0,0,3,1,2,31,0003-00-0003-42.png,0004-00-0007-82.png
00000014,865,1,1444834886694,1444834887161,376,410,0,0,0,1,5,4,15,0004-00-0006-69.png,0001-00-0004-98.png
00000014,866,1,1444834888128,1444834889104,926,378,0,0,0,4,1,3,41,0005-00-0009-65.png,0004-00-0007-34.png
00000014,867,1,1444834890094,1444834890547,376,410,0,0,0,1,4,3,14,0004-00-0004-92.png,0005-00-0009-47.png
00000014,868,0,1444834891591,1444834892506,891,401,0,0,0,3,5,2,35,0003-00-0002-81.png,0001-00-0002-42.png
00000014,869,0,1444834895540,1444834896006,286,436,0,0,0,2,1,1,21,0002-00-0006-80.png,0004-00-0004-29.png
00000014,870,1,1444834899545,1444834899988,369,384,0,0,0,2,5,3,25,0002-00-0002-84.png,0001-00-0004-73.png
00000014,871,1,1444834900906,1444834901416,900,410,0,0,0,3,2,1,32,0003-00-0000-87.png,0002-00-0000-49.png
00000014,872,0,1444834902841,1444834903256,900,383,0,0,0,4,5,1,45,0005-00-0007-26.png,0001-00-0002-55.png
00000014,873,1,1444834906282,1444834906720,927,390,0,0,0,5,1,4,51,0001-00-0001-19.png,0004-00-0003-23.png
00000014,874,0,1444834907611,1444834908108,348,450,0,0,0,4,3,1,43,0005-00-0008-36.png,0003-00-0000-01.png
00000014,875,1,1444834911419,1444834912072,403,541,0,0,0,1,2,1,12,0004-00-0001-74.png,0002-00-0001-29.png
00000014,876,1,1444834913104,1444834913593,359,495,0,0,0,3,4,1,34,0003-00-0009-90.png,0005-00-0000-61.png
00000014,877,1,1444834914632,1444834915172,350,475,0,0,0,1,3,2,13,0004-00-0003-59.png,0003-00-0006-88.png
00000014,878,1,1444834916112,1444834917022,907,496,0,0,0,4,2,2,42,0005-00-0003-71.png,0002-00-0007-32.png
00000014,879,1,1444834917983,1444834918447,350,444,0,0,0,2,3,1,23,0002-00-0006-05.png,0003-00-0008-35.png
00000014,880,0,1444834919403,1444834919960,427,439,0,0,0,5,2,3,52,0001-00-0007-48.png,0002-00-0009-98.png
00000014,881,1,1444834923091,1444834923987,928,414,0,0,0,4,2,2,42,0005-00-0003-45.png,0002-00-0008-31.png
00000014,882,0,1444834925026,1444834925513,401,449,0,0,0,3,1,2,31,0003-00-0003-51.png,0004-00-0005-04.png
00000014,883,1,1444834928701,1444834929230,877,434,0,0,0,5,4,1,54,0001-00-0005-07.png,0005-00-0004-37.png
00000014,884,1,1444834930164,1444834930659,900,411,0,0,0,5,2,3,52,0001-00-0000-16.png,0002-00-0007-79.png
00000014,885,0,1444834931635,1444834932111,376,541,0,0,0,5,1,4,51,0001-00-0009-26.png,0004-00-0000-64.png
00000014,886,1,1444834935164,1444834935584,388,398,0,0,0,1,3,2,13,0004-00-0009-83.png,0003-00-0002-55.png
00000014,887,1,1444834936566,1444834937029,931,419,0,0,0,3,2,1,32,0003-00-0005-22.png,0002-00-0000-94.png
00000014,888,1,1444834938016,1444834938480,418,454,0,0,0,2,4,2,24,0002-00-0005-51.png,0005-00-0002-08.png
00000014,889,0,1444834939527,1444834939960,356,410,0,0,0,4,3,1,43,0005-00-0003-72.png,0003-00-0009-69.png
00000014,890,1,1444834943054,1444834943569,882,506,0,0,0,5,3,2,53,0001-00-0003-49.png,0003-00-0001-66.png
00000014,891,0,1444834944607,1444834945109,904,428,0,0,0,3,4,1,34,0003-00-0001-47.png,0005-00-0005-96.png
00000014,892,1,1444834948034,1444834948082,500,445,0,0,0,2,3,1,23,0002-00-0007-19.png,0003-00-0000-26.png
00000014,893,0,1444834949049,1444834949573,903,417,0,0,0,1,2,1,12,0004-00-0000-08.png,0002-00-0008-31.png
00000014,894,1,1444834952555,1444834952567,514,415,0,0,0,2,5,3,25,0002-00-0003-45.png,0001-00-0008-54.png
00000014,895,0,1444834953520,1444834954027,325,462,0,0,0,2,1,1,21,0002-00-0002-96.png,0004-00-0003-68.png
00000014,896,1,1444834957253,1444834957724,401,412,0,0,0,3,5,2,35,0003-00-0008-89.png,0001-00-0007-66.png
00000014,897,0,1444834958760,1444834959282,902,415,0,0,0,4,5,1,45,0005-00-0002-51.png,0001-00-0007-45.png
00000014,898,0,1444834962114,1444834962546,914,423,0,0,0,1,4,3,14,0004-00-0009-52.png,0005-00-0005-19.png
00000014,899,1,1444834965673,1444834966095,905,416,0,0,0,4,1,3,41,0005-00-0004-14.png,0004-00-0003-74.png
00000014,900,1,1444834967013,1444834967653,369,435,0,0,0,1,5,4,15,0004-00-0004-99.png,0001-00-0004-15.png
00000014,901,1,1444834968627,1444834969110,891,483,0,0,0,5,1,4,51,0001-00-0008-40.png,0004-00-0000-03.png
00000014,902,0,1444834970187,1444834970892,448,551,0,0,0,5,4,1,54,0001-00-0003-64.png,0005-00-0005-41.png
00000014,903,1,1444834973944,1444834974418,311,435,0,0,0,2,3,1,23,0002-00-0004-23.png,0003-00-0001-84.png
00000014,904,1,1444834975373,1444834975877,314,439,0,0,0,1,4,3,14,0004-00-0001-48.png,0005-00-0007-36.png
00000014,905,1,1444834976845,1444834977363,907,364,0,0,0,2,1,1,21,0002-00-0008-27.png,0004-00-0008-30.png
00000014,906,0,1444834978317,1444834978884,388,492,0,0,0,5,2,3,52,0001-00-0000-99.png,0002-00-0009-95.png
00000014,907,0,1444834982010,1444834982474,915,371,0,0,0,2,5,3,25,0002-00-0001-42.png,0001-00-0001-89.png
00000014,908,1,1444834985599,1444834986411,358,393,0,0,0,3,5,2,35,0003-00-0006-83.png,0001-00-0007-20.png
00000014,909,1,1444834987492,1444834987965,902,442,0,0,0,3,1,2,31,0003-00-0003-36.png,0004-00-0008-96.png
00000014,910,0,1444834988941,1444834989447,865,511,0,0,0,3,4,1,34,0003-00-0006-26.png,0005-00-0003-43.png
00000014,911,1,1444834992316,1444834992762,313,373,0,0,0,2,4,2,24,0002-00-0004-57.png,0005-00-0007-32.png
00000014,912,1,1444834993670,1444834994187,949,443,0,0,0,4,1,3,41,0005-00-0005-27.png,0004-00-0004-06.png
00000014,913,1,1444834995182,1444834995692,875,436,0,0,0,3,2,1,32,0003-00-0004-00.png,0002-00-0004-45.png
00000014,914,0,1444834996742,1444834997269,862,420,0,0,0,4,5,1,45,0005-00-0004-73.png,0001-00-0000-36.png
00000014,915,0,1444835000167,1444835000594,401,410,0,0,0,5,3,2,53,0001-00-0002-63.png,0003-00-0005-47.png
00000014,916,1,1444835003591,1444835003991,337,402,0,0,0,1,3,2,13,0004-00-0003-26.png,0003-00-0006-32.png
00000014,917,1,1444835004962,1444835005432,344,460,0,0,0,1,5,4,15,0004-00-0007-42.png,0001-00-0009-10.png
00000014,918,1,1444835006402,1444835006868,902,415,0,0,0,4,2,2,42,0005-00-0001-60.png,0002-00-0003-21.png
00000014,919,0,1444835007874,1444835008469,901,436,0,0,0,1,2,1,12,0004-00-0006-10.png,0002-00-0004-91.png
00000014,920,0,1444835011319,1444835011343,412,423,0,0,0,4,3,1,43,0005-00-0001-69.png,0003-00-0001-89.png
00000014,921,1,1444835014244,1444835014280,504,501,0,0,0,2,3,1,23,0002-00-0003-12.png,0003-00-0002-32.png
00000014,922,0,1444835015316,1444835015802,910,419,0,0,0,4,5,1,45,0005-00-0007-91.png,0001-00-0006-30.png
00000014,923,1,1444835018832,1444835019295,325,397,0,0,0,2,5,3,25,0002-00-0002-14.png,0001-00-0000-37.png
00000014,924,1,1444835020265,1444835020853,876,424,0,0,0,5,3,2,53,0001-00-0004-69.png,0003-00-0006-48.png
00000014,925,0,1444835021777,1444835022367,312,397,0,0,0,5,4,1,54,0001-00-0005-55.png,0005-00-0005-15.png
00000014,926,1,1444835025272,1444835025312,499,487,0,0,0,2,4,2,24,0002-00-0008-20.png,0005-00-0009-00.png
00000014,927,1,1444835026686,1444835027212,400,468,0,0,0,3,4,1,34,0003-00-0009-05.png,0005-00-0006-82.png
00000014,928,1,1444835028198,1444835028704,915,399,0,0,0,3,1,2,31,0003-00-0004-10.png,0004-00-0009-43.png
00000014,929,1,1444835029719,1444835030601,918,417,0,0,0,4,1,3,41,0005-00-0005-24.png,0004-00-0000-19.png
00000014,930,1,1444835031815,1444835032271,293,433,0,0,0,1,3,2,13,0004-00-0008-04.png,0003-00-0008-48.png
00000014,931,1,1444835033315,1444835033849,917,468,0,0,0,5,1,4,51,0001-00-0003-60.png,0004-00-0005-80.png
00000014,932,1,1444835034973,1444835035400,325,462,0,0,0,1,5,4,15,0004-00-0007-65.png,0001-00-0009-48.png
00000014,933,1,1444835036487,1444835036950,927,417,0,0,0,4,2,2,42,0005-00-0002-29.png,0002-00-0006-10.png
00000014,934,1,1444835037988,1444835038462,858,420,0,0,0,5,2,3,52,0001-00-0003-50.png,0002-00-0000-58.png
00000014,935,0,1444835039658,1444835040176,929,449,0,0,0,1,2,1,12,0004-00-0000-45.png,0002-00-0003-02.png
00000014,936,1,1444835043196,1444835043648,877,521,0,0,0,4,3,1,43,0005-00-0001-06.png,0003-00-0002-58.png
00000014,937,1,1444835044617,1444835045218,360,426,0,0,0,3,5,2,35,0003-00-0002-09.png,0001-00-0002-24.png
00000014,938,0,1444835046178,1444835046672,344,472,0,0,0,2,1,1,21,0002-00-0002-41.png,0004-00-0003-98.png
00000014,939,1,1444835050074,1444835050483,904,401,0,0,0,3,2,1,32,0003-00-0009-71.png,0002-00-0004-48.png
00000014,940,1,1444835051404,1444835051920,320,441,0,0,0,1,4,3,14,0004-00-0005-44.png,0005-00-0005-02.png
00000014,941,0,1444835052865,1444835053329,412,449,0,0,0,2,1,1,21,0002-00-0008-89.png,0004-00-0002-35.png
00000014,942,1,1444835056244,1444835056320,518,496,0,0,0,1,4,3,14,0004-00-0009-59.png,0005-00-0008-01.png
