subject_id,trial,correct_response,stim_time,response_time,x_coord,y_coord,trial_timeout,timeout_time,interTrial_timeout,left_rank,right_rank,distance,joint_rank,left_image,right_image
00000009,1,1,1450198768577,1450198769468,922,376,0,0,0,1,0,1,1,0004-00-0001-34.png,0005-00-0000-18.png
00000009,2,1,1450198770571,1450198770679,990,436,0,0,0,4,0,4,4,0001-00-0001-28.png,0005-00-0000-49.png
00000009,3,0,1450198772037,1450198772651,939,401,0,0,0,0,4,4,4,0005-00-0000-05.png,0001-00-0001-07.png
00000009,4,0,1450198775843,1450198775847,862,306,0,0,0,1,4,3,5,0004-00-0000-68.png,0001-00-0000-90.png
00000009,5,1,1450198778993,1450198779001,874,317,0,0,0,4,3,1,7,0001-00-0000-62.png,0002-00-0000-83.png
00000009,6,0,1450198780105,1450198781041,939,518,0,0,0,1,2,1,3,0004-00-0001-12.png,0003-00-0001-50.png
00000009,7,0,1450198784180,1450198784196,859,328,0,0,0,1,3,2,4,0004-00-0000-88.png,0002-00-0000-89.png
00000009,8,0,1450198787093,1450198787271,888,424,0,0,0,0,2,2,2,0005-00-0001-23.png,0003-00-0001-99.png
00000009,9,1,1450198790253,1450198790281,1066,365,0,0,0,3,0,3,3,0002-00-0000-61.png,0005-00-0000-80.png
00000009,10,0,1450198791333,1450198791347,862,426,0,0,0,0,1,1,1,0005-00-0001-97.png,0004-00-0000-57.png
00000009,11,1,1450198794205,1450198794367,1104,410,0,0,0,2,1,1,3,0003-00-0001-90.png,0004-00-0000-69.png
00000009,12,1,1450198795371,1450198796548,468,300,0,0,0,2,4,2,6,0003-00-0000-44.png,0001-00-0000-98.png
00000009,13,0,1450198797479,1450198798508,364,365,0,0,0,3,2,1,5,0002-00-0000-43.png,0003-00-0001-29.png
00000009,14,0,1450198801698,1450198801734,953,302,0,0,0,2,3,1,5,0003-00-0001-95.png,0002-00-0000-65.png
00000009,15,1,1450198804884,1450198805430,929,320,0,0,0,4,2,2,6,0001-00-0001-36.png,0003-00-0001-83.png
00000009,16,1,1450198806322,1450198807326,925,322,0,0,0,2,0,2,2,0003-00-0001-61.png,0005-00-0001-47.png
00000009,17,1,1450198808278,1450198808996,913,324,0,0,0,4,1,3,5,0001-00-0000-72.png,0004-00-0001-49.png
00000009,18,1,1450198809916,1450198809965,862,384,0,0,0,3,1,2,4,0002-00-0001-26.png,0004-00-0001-54.png
00000009,19,0,1450198811000,1450198811253,862,530,0,0,0,0,3,3,3,0005-00-0000-64.png,0002-00-0001-52.png
00000009,20,0,1450198814221,1450198814736,947,360,0,0,0,3,4,1,7,0002-00-0001-90.png,0001-00-0001-98.png
00000009,21,1,1450198834404,1450198834820,1058,266,0,0,0,2,1,1,3,0003-00-0001-90.png,0004-00-0001-36.png
00000009,22,1,1450198835816,1450198836591,905,370,0,0,0,4,3,1,7,0001-00-0001-58.png,0002-00-0000-68.png
00000009,23,1,1450198837655,1450198837703,873,407,0,0,0,4,2,2,6,0001-00-0000-41.png,0003-00-0000-95.png
00000009,24,1,1450198838758,1450198839514,395,361,0,0,0,0,4,4,4,0005-00-0001-24.png,0001-00-0001-57.png
00000009,25,1,1450198840439,1450198841091,990,263,0,0,0,4,0,4,4,0001-00-0000-84.png,0005-00-0000-00.png
00000009,26,0,1450198841976,1450198842038,875,409,0,0,0,0,2,2,2,0005-00-0000-73.png,0003-00-0000-37.png
00000009,27,1,1450198845147,1450198845349,888,358,0,0,0,1,0,1,1,0004-00-0000-84.png,0005-00-0001-40.png
00000009,28,0,1450198846230,1450198847168,911,306,0,0,0,1,3,2,4,0004-00-0000-80.png,0002-00-0001-29.png
00000009,29,0,1450198850293,1450198850361,861,297,0,0,0,2,3,1,5,0003-00-0000-43.png,0002-00-0001-75.png
00000009,30,1,1450198853345,1450198853891,924,342,0,0,0,3,2,1,5,0002-00-0000-20.png,0003-00-0001-97.png
00000009,31,1,1450198854713,1450198855632,441,265,0,0,0,3,4,1,7,0002-00-0000-10.png,0001-00-0000-23.png
00000009,32,1,1450198856481,1450198857097,932,339,0,0,0,2,0,2,2,0003-00-0000-74.png,0005-00-0000-75.png
00000009,33,1,1450198857935,1450198858804,413,293,0,0,0,0,3,3,3,0005-00-0000-04.png,0002-00-0001-45.png
00000009,34,1,1450198859724,1450198860529,990,242,0,0,0,3,1,2,4,0002-00-0000-76.png,0004-00-0000-93.png
00000009,35,1,1450198861374,1450198862253,454,238,0,0,0,1,4,3,5,0004-00-0001-55.png,0001-00-0000-25.png
00000009,36,0,1450198863143,1450198863788,990,240,0,0,0,2,4,2,6,0003-00-0000-23.png,0001-00-0000-24.png
00000009,37,0,1450198866666,1450198866748,964,358,0,0,0,1,2,1,3,0004-00-0000-93.png,0003-00-0001-18.png
00000009,38,1,1450198869786,1450198870424,398,379,0,0,0,0,1,1,1,0005-00-0000-86.png,0004-00-0001-24.png
00000009,39,1,1450198871846,1450198872399,1053,253,0,0,0,3,0,3,3,0002-00-0000-08.png,0005-00-0001-87.png
00000009,40,1,1450198873775,1450198876370,1064,371,0,0,0,4,1,3,5,0001-00-0001-64.png,0004-00-0000-75.png
00000009,41,0,1450198877254,1450198877935,482,248,0,0,0,3,2,1,5,0002-00-0000-49.png,0003-00-0000-86.png
00000009,42,0,1450198880873,1450198881410,1016,264,0,0,0,3,4,1,7,0002-00-0001-03.png,0001-00-0001-82.png
00000009,43,0,1450198884489,1450198884627,904,307,0,0,0,0,4,4,4,0005-00-0001-45.png,0001-00-0000-49.png
00000009,44,0,1450198887918,1450198888542,430,291,0,0,0,3,1,2,4,0002-00-0000-27.png,0004-00-0001-29.png
00000009,45,1,1450198891533,1450198892041,934,328,0,0,0,1,0,1,1,0004-00-0000-95.png,0005-00-0001-01.png
00000009,46,1,1450198892916,1450198893625,913,303,0,0,0,2,1,1,3,0003-00-0000-26.png,0004-00-0001-49.png
00000009,47,1,1450198894493,1450198895347,402,350,0,0,0,1,4,3,5,0004-00-0001-32.png,0001-00-0000-79.png
00000009,48,0,1450198896277,1450198897066,939,291,0,0,0,1,3,2,4,0004-00-0000-78.png,0002-00-0001-46.png
00000009,49,1,1450198900109,1450198900703,442,436,0,0,0,0,1,1,1,0005-00-0000-97.png,0004-00-0000-81.png
00000009,50,1,1450198901613,1450198902662,431,252,0,0,0,2,3,1,5,0003-00-0000-80.png,0002-00-0000-86.png
00000009,51,1,1450198903518,1450198904283,460,234,0,0,0,1,2,1,3,0004-00-0000-33.png,0003-00-0000-65.png
00000009,52,1,1450198905148,1450198905981,913,294,0,0,0,4,1,3,5,0001-00-0001-39.png,0004-00-0001-96.png
00000009,53,1,1450198906878,1450198907519,369,349,0,0,0,0,2,2,2,0005-00-0001-19.png,0003-00-0001-40.png
00000009,54,1,1450198908368,1450198909141,913,368,0,0,0,4,3,1,7,0001-00-0000-37.png,0002-00-0001-68.png
00000009,55,0,1450198910047,1450198910864,450,408,0,0,0,4,2,2,6,0001-00-0001-01.png,0003-00-0000-51.png
00000009,56,1,1450198914303,1450198914869,454,305,0,0,0,0,3,3,3,0005-00-0001-19.png,0002-00-0000-63.png
00000009,57,0,1450198916210,1450198916822,1010,271,0,0,0,2,4,2,6,0003-00-0000-21.png,0001-00-0001-72.png
00000009,58,1,1450198919945,1450198919973,872,325,0,0,0,4,0,4,4,0001-00-0001-17.png,0005-00-0001-51.png
00000009,59,1,1450198920891,1450198921529,875,329,0,0,0,3,0,3,3,0002-00-0001-54.png,0005-00-0000-32.png
00000009,60,1,1450198922392,1450198922628,892,497,0,0,0,2,0,2,2,0003-00-0001-07.png,0005-00-0000-02.png
00000009,61,0,1450198923733,1450198924541,413,333,0,0,0,2,1,1,3,0003-00-0000-21.png,0004-00-0001-43.png
00000009,62,1,1450198927581,1450198928629,458,269,0,0,0,2,4,2,6,0003-00-0001-71.png,0001-00-0001-83.png
00000009,63,1,1450198929473,1450198930300,953,410,0,0,0,4,1,3,5,0001-00-0001-25.png,0004-00-0000-68.png
00000009,64,1,1450198931692,1450198932285,1006,227,0,0,0,1,0,1,1,0004-00-0001-33.png,0005-00-0001-33.png
00000009,65,0,1450198933151,1450198933964,916,381,0,0,0,3,4,1,7,0002-00-0000-89.png,0001-00-0000-77.png
00000009,66,1,1450198937008,1450198937560,1035,246,0,0,0,4,0,4,4,0001-00-0000-61.png,0005-00-0001-16.png
00000009,67,0,1450198938449,1450198939395,1022,271,0,0,0,2,3,1,5,0003-00-0001-02.png,0002-00-0001-90.png
00000009,68,0,1450198942483,1450198943141,1040,275,0,0,0,1,2,1,3,0004-00-0000-56.png,0003-00-0001-29.png
00000009,69,1,1450198946213,1450198946221,888,332,0,0,0,2,0,2,2,0003-00-0001-55.png,0005-00-0000-04.png
00000009,70,1,1450198947102,1450198948011,913,317,0,0,0,4,2,2,6,0001-00-0000-70.png,0003-00-0000-69.png
00000009,71,1,1450198948871,1450198949561,945,408,0,0,0,3,1,2,4,0002-00-0001-05.png,0004-00-0001-22.png
00000009,72,1,1450198950461,1450198951108,485,222,0,0,0,0,2,2,2,0005-00-0000-28.png,0003-00-0000-66.png
00000009,73,1,1450198951966,1450198952754,436,403,0,0,0,1,4,3,5,0004-00-0001-96.png,0001-00-0001-85.png
00000009,74,1,1450198953644,1450198954319,909,354,0,0,0,3,0,3,3,0002-00-0000-04.png,0005-00-0001-69.png
00000009,75,1,1450198955161,1450198955948,423,404,0,0,0,0,3,3,3,0005-00-0000-92.png,0002-00-0000-07.png
00000009,76,1,1450198956777,1450198957877,1032,246,0,0,0,3,2,1,5,0002-00-0001-48.png,0003-00-0000-55.png
00000009,77,1,1450198958760,1450198959439,469,240,0,0,0,0,4,4,4,0005-00-0001-73.png,0001-00-0001-34.png
00000009,78,0,1450198960323,1450198961093,1031,227,0,0,0,0,1,1,1,0005-00-0001-06.png,0004-00-0001-79.png
00000009,79,1,1450198963935,1450198964683,986,255,0,0,0,4,3,1,7,0001-00-0000-28.png,0002-00-0001-22.png
00000009,80,1,1450198965569,1450198966383,453,243,0,0,0,1,3,2,4,0004-00-0001-68.png,0002-00-0000-38.png
00000009,81,0,1450198967257,1450198967265,515,536,0,0,0,2,0,2,2,0003-00-0001-44.png,0005-00-0000-10.png
00000009,82,0,1450198970488,1450198970508,904,309,0,0,0,2,4,2,6,0003-00-0001-13.png,0001-00-0000-67.png
00000009,83,1,1450198973525,1450198974223,473,460,0,0,0,0,4,4,4,0005-00-0001-06.png,0001-00-0000-94.png
00000009,84,1,1450198976104,1450198976720,990,265,0,0,0,4,2,2,6,0001-00-0001-42.png,0003-00-0000-84.png
00000009,85,1,1450198977584,1450198978316,890,313,0,0,0,4,1,3,5,0001-00-0000-94.png,0004-00-0001-75.png
00000009,86,0,1450198979193,1450198979851,439,241,0,0,0,4,3,1,7,0001-00-0001-98.png,0002-00-0000-66.png
00000009,87,1,1450198982927,1450198982977,872,321,0,0,0,1,0,1,1,0004-00-0001-45.png,0005-00-0000-62.png
00000009,88,1,1450198983987,1450198984750,465,248,0,0,0,0,2,2,2,0005-00-0000-99.png,0003-00-0001-09.png
00000009,89,0,1450198985644,1450198985704,514,509,0,0,0,3,2,1,5,0002-00-0001-70.png,0003-00-0000-52.png
00000009,90,1,1450198988788,1450198989297,913,268,0,0,0,4,0,4,4,0001-00-0001-34.png,0005-00-0001-51.png
00000009,91,0,1450198990124,1450198990852,913,296,0,0,0,3,4,1,7,0002-00-0001-68.png,0001-00-0001-30.png
00000009,92,1,1450198994001,1450198994624,1025,253,0,0,0,2,1,1,3,0003-00-0001-21.png,0004-00-0000-38.png
00000009,93,1,1450198995458,1450198996465,463,244,0,0,0,1,2,1,3,0004-00-0001-65.png,0003-00-0001-67.png
00000009,94,1,1450198997369,1450198997983,1010,244,0,0,0,3,0,3,3,0002-00-0001-54.png,0005-00-0000-84.png
00000009,95,1,1450198998829,1450198999927,478,238,0,0,0,0,1,1,1,0005-00-0001-95.png,0004-00-0000-00.png
00000009,96,1,1450199000785,1450199001746,453,237,0,0,0,1,3,2,4,0004-00-0000-06.png,0002-00-0000-17.png
00000009,97,0,1450199002619,1450199003604,940,333,0,0,0,2,3,1,5,0003-00-0000-17.png,0002-00-0001-34.png
00000009,98,1,1450199006503,1450199006581,888,347,0,0,0,3,1,2,4,0002-00-0001-66.png,0004-00-0001-25.png
00000009,99,0,1450199007466,1450199008175,1005,253,0,0,0,1,4,3,5,0004-00-0000-08.png,0001-00-0000-43.png
00000009,100,1,1450199011042,1450199011611,449,433,0,0,0,0,3,3,3,0005-00-0000-27.png,0002-00-0000-12.png
00000009,101,0,1450199012451,1450199012459,518,514,0,0,0,4,2,2,6,0001-00-0000-89.png,0003-00-0001-77.png
00000009,102,0,1450199015567,1450199015583,932,340,0,0,0,1,2,1,3,0004-00-0001-07.png,0003-00-0000-85.png
00000009,103,1,1450199018715,1450199019358,478,291,0,0,0,3,4,1,7,0002-00-0000-24.png,0001-00-0000-17.png
00000009,104,1,1450199020195,1450199021109,471,248,0,0,0,1,3,2,4,0004-00-0000-96.png,0002-00-0001-88.png
00000009,105,1,1450199022038,1450199022912,1006,253,0,0,0,3,2,1,5,0002-00-0001-40.png,0003-00-0000-55.png
00000009,106,1,1450199023786,1450199024654,911,296,0,0,0,4,0,4,4,0001-00-0000-81.png,0005-00-0001-31.png
00000009,107,1,1450199025553,1450199026317,452,271,0,0,0,2,4,2,6,0003-00-0000-26.png,0001-00-0000-91.png
00000009,108,0,1450199027223,1450199028314,444,265,0,0,0,3,0,3,3,0002-00-0001-15.png,0005-00-0000-82.png
00000009,109,0,1450199031457,1450199031497,884,315,0,0,0,0,1,1,1,0005-00-0000-32.png,0004-00-0001-74.png
00000009,110,1,1450199034366,1450199034951,1016,289,0,0,0,2,1,1,3,0003-00-0000-49.png,0004-00-0000-68.png
00000009,111,1,1450199035765,1450199036532,400,352,0,0,0,0,3,3,3,0005-00-0000-15.png,0002-00-0000-40.png
00000009,112,1,1450199037418,1450199038609,488,229,0,0,0,1,4,3,5,0004-00-0001-49.png,0001-00-0001-46.png
00000009,113,1,1450199039557,1450199040487,484,244,0,0,0,2,3,1,5,0003-00-0000-77.png,0002-00-0000-45.png
00000009,114,1,1450199041453,1450199042205,939,296,0,0,0,4,3,1,7,0001-00-0001-73.png,0002-00-0001-46.png
00000009,115,0,1450199043110,1450199044175,384,326,0,0,0,3,1,2,4,0002-00-0001-14.png,0004-00-0001-88.png
00000009,116,0,1450199047691,1450199047733,991,277,0,0,0,0,4,4,4,0005-00-0000-72.png,0001-00-0001-03.png
00000009,117,0,1450199050901,1450199050939,862,332,0,0,0,0,2,2,2,0005-00-0000-05.png,0003-00-0001-71.png
00000009,118,1,1450199053795,1450199054529,913,296,0,0,0,2,0,2,2,0003-00-0001-59.png,0005-00-0000-69.png
00000009,119,1,1450199055398,1450199056327,964,368,0,0,0,1,0,1,1,0004-00-0001-84.png,0005-00-0001-15.png
00000009,120,1,1450199057223,1450199058107,1057,253,0,0,0,4,1,3,5,0001-00-0000-19.png,0004-00-0000-87.png
00000009,121,1,1450199059013,1450199059081,862,399,0,0,0,3,1,2,4,0002-00-0000-58.png,0004-00-0000-22.png
00000009,122,1,1450199060235,1450199061124,913,306,0,0,0,4,0,4,4,0001-00-0001-64.png,0005-00-0000-08.png
00000009,123,1,1450199062025,1450199062720,454,254,0,0,0,0,2,2,2,0005-00-0000-75.png,0003-00-0000-42.png
00000009,124,1,1450199063601,1450199064464,463,266,0,0,0,0,4,4,4,0005-00-0000-73.png,0001-00-0000-92.png
00000009,125,1,1450199065383,1450199066365,892,400,0,0,0,4,1,3,5,0001-00-0000-22.png,0004-00-0000-59.png
00000009,126,0,1450199067390,1450199068273,975,253,0,0,0,3,4,1,7,0002-00-0001-48.png,0001-00-0001-07.png
00000009,127,1,1450199071174,1450199071653,939,340,0,0,0,2,0,2,2,0003-00-0001-61.png,0005-00-0001-23.png
00000009,128,0,1450199072527,1450199073385,371,365,0,0,0,3,2,1,5,0002-00-0000-53.png,0003-00-0000-80.png
00000009,129,0,1450199076838,1450199077396,1016,279,0,0,0,1,4,3,5,0004-00-0000-52.png,0001-00-0000-32.png
00000009,130,1,1450199080365,1450199080423,857,347,0,0,0,4,2,2,6,0001-00-0000-46.png,0003-00-0000-82.png
00000009,131,0,1450199081351,1450199082280,919,322,0,0,0,2,3,1,5,0003-00-0000-10.png,0002-00-0001-19.png
00000009,132,0,1450199085417,1450199086141,372,373,0,0,0,4,3,1,7,0001-00-0001-02.png,0002-00-0000-14.png
00000009,133,1,1450199089262,1450199089752,990,265,0,0,0,1,0,1,1,0004-00-0000-56.png,0005-00-0000-88.png
00000009,134,1,1450199091189,1450199091766,462,245,0,0,0,0,1,1,1,0005-00-0000-55.png,0004-00-0001-17.png
00000009,135,0,1450199092629,1450199093558,911,330,0,0,0,2,4,2,6,0003-00-0001-77.png,0001-00-0000-21.png
00000009,136,1,1450199096711,1450199097298,459,270,0,0,0,1,2,1,3,0004-00-0001-54.png,0003-00-0000-21.png
00000009,137,1,1450199098233,1450199099195,953,304,0,0,0,3,0,3,3,0002-00-0000-84.png,0005-00-0000-19.png
00000009,138,1,1450199100083,1450199100731,449,407,0,0,0,1,3,2,4,0004-00-0000-62.png,0002-00-0000-10.png
00000009,139,0,1450199101695,1450199102671,489,245,0,0,0,2,1,1,3,0003-00-0001-32.png,0004-00-0000-19.png
00000009,140,0,1450199105727,1450199105950,993,307,0,0,0,0,3,3,3,0005-00-0001-52.png,0002-00-0000-65.png
00000009,141,1,1450199109138,1450199109787,478,320,0,0,0,0,2,2,2,0005-00-0001-83.png,0003-00-0000-49.png
00000009,142,1,1450199110643,1450199110718,519,510,0,0,0,1,2,1,3,0004-00-0000-29.png,0003-00-0001-75.png
00000009,143,1,1450199111838,1450199112526,948,332,0,0,0,1,0,1,1,0004-00-0001-65.png,0005-00-0001-93.png
00000009,144,0,1450199113365,1450199114495,920,375,0,0,0,2,3,1,5,0003-00-0000-03.png,0002-00-0001-57.png
00000009,145,1,1450199117622,1450199118106,1031,238,0,0,0,4,1,3,5,0001-00-0001-23.png,0004-00-0000-08.png
00000009,146,0,1450199118974,1450199119694,1002,227,0,0,0,2,4,2,6,0003-00-0000-30.png,0001-00-0001-04.png
00000009,147,1,1450199122660,1450199123138,1015,264,0,0,0,2,0,2,2,0003-00-0000-16.png,0005-00-0001-16.png
00000009,148,1,1450199123991,1450199124719,913,360,0,0,0,3,1,2,4,0002-00-0001-24.png,0004-00-0000-08.png
00000009,149,1,1450199125601,1450199126573,913,331,0,0,0,4,0,4,4,0001-00-0000-16.png,0005-00-0000-34.png
00000009,150,0,1450199127449,1450199128127,470,260,0,0,0,3,2,1,5,0002-00-0001-97.png,0003-00-0001-69.png
00000009,151,1,1450199131176,1450199131382,959,319,0,0,0,4,2,2,6,0001-00-0000-00.png,0003-00-0000-58.png
00000009,152,1,1450199132359,1450199133016,913,309,0,0,0,3,0,3,3,0002-00-0000-52.png,0005-00-0001-61.png
00000009,153,1,1450199133909,1450199134833,473,237,0,0,0,1,3,2,4,0004-00-0000-80.png,0002-00-0000-36.png
00000009,154,1,1450199135758,1450199136742,469,253,0,0,0,0,3,3,3,0005-00-0000-86.png,0002-00-0001-57.png
00000009,155,1,1450199137625,1450199138639,937,348,0,0,0,4,3,1,7,0001-00-0001-98.png,0002-00-0001-41.png
00000009,156,1,1450199139504,1450199140346,471,233,0,0,0,0,4,4,4,0005-00-0000-32.png,0001-00-0001-52.png
00000009,157,0,1450199141531,1450199142362,939,367,0,0,0,0,1,1,1,0005-00-0000-23.png,0004-00-0001-96.png
00000009,158,0,1450199145476,1450199145492,863,330,0,0,0,3,4,1,7,0002-00-0001-11.png,0001-00-0000-05.png
00000009,159,1,1450199148627,1450199149152,913,335,0,0,0,2,1,1,3,0003-00-0000-46.png,0004-00-0001-56.png
00000009,160,1,1450199150084,1450199150915,478,238,0,0,0,1,4,3,5,0004-00-0001-90.png,0001-00-0001-30.png
00000009,161,0,1450199151754,1450199152492,919,279,0,0,0,1,4,3,5,0004-00-0001-32.png,0001-00-0000-02.png
00000009,162,0,1450199155631,1450199155791,859,385,0,0,0,0,4,4,4,0005-00-0000-52.png,0001-00-0001-74.png
00000009,163,0,1450199158672,1450199158756,887,344,0,0,0,1,3,2,4,0004-00-0001-97.png,0002-00-0001-23.png
00000009,164,0,1450199161713,1450199162276,913,274,0,0,0,2,4,2,6,0003-00-0001-91.png,0001-00-0001-52.png
00000009,165,1,1450199165366,1450199165873,1036,251,0,0,0,4,0,4,4,0001-00-0001-02.png,0005-00-0001-57.png
00000009,166,1,1450199166740,1450199167768,913,292,0,0,0,4,2,2,6,0001-00-0001-25.png,0003-00-0000-54.png
00000009,167,1,1450199168610,1450199169496,459,260,0,0,0,0,3,3,3,0005-00-0000-71.png,0002-00-0000-32.png
00000009,168,1,1450199170401,1450199171121,930,324,0,0,0,3,0,3,3,0002-00-0001-16.png,0005-00-0000-16.png
00000009,169,0,1450199172019,1450199172962,453,238,0,0,0,2,0,2,2,0003-00-0001-28.png,0005-00-0001-18.png
00000009,170,0,1450199176043,1450199176572,918,312,0,0,0,2,3,1,5,0003-00-0001-98.png,0002-00-0001-43.png
00000009,171,1,1450199179631,1450199180279,478,266,0,0,0,3,4,1,7,0002-00-0001-71.png,0001-00-0000-04.png
00000009,172,1,1450199181132,1450199182100,913,384,0,0,0,4,3,1,7,0001-00-0000-48.png,0002-00-0000-87.png
00000009,173,1,1450199182953,1450199183864,1025,279,0,0,0,1,0,1,1,0004-00-0001-53.png,0005-00-0000-69.png
00000009,174,1,1450199184776,1450199184906,861,502,0,0,0,3,1,2,4,0002-00-0000-54.png,0004-00-0001-20.png
00000009,175,1,1450199186000,1450199186697,418,407,0,0,0,0,2,2,2,0005-00-0000-62.png,0003-00-0000-77.png
00000009,176,1,1450199187538,1450199188424,490,243,0,0,0,1,2,1,3,0004-00-0001-19.png,0003-00-0000-78.png
00000009,177,1,1450199189343,1450199190170,496,222,0,0,0,0,1,1,1,0005-00-0000-11.png,0004-00-0001-09.png
00000009,178,1,1450199191050,1450199192640,913,306,0,0,0,4,1,3,5,0001-00-0000-23.png,0004-00-0000-36.png
00000009,179,1,1450199193600,1450199194736,913,316,0,0,0,3,2,1,5,0002-00-0000-49.png,0003-00-0000-22.png
00000009,180,1,1450199195642,1450199196443,932,315,0,0,0,2,1,1,3,0003-00-0001-89.png,0004-00-0001-58.png
00000009,181,1,1450199197351,1450199198339,1041,279,0,0,0,3,2,1,5,0002-00-0001-11.png,0003-00-0000-72.png
00000009,182,0,1450199199280,1450199200127,449,407,0,0,0,3,1,2,4,0002-00-0001-53.png,0004-00-0001-01.png
00000009,183,1,1450199203222,1450199203739,1021,257,0,0,0,4,0,4,4,0001-00-0001-30.png,0005-00-0001-25.png
00000009,184,1,1450199204626,1450199205319,497,220,0,0,0,0,4,4,4,0005-00-0000-58.png,0001-00-0001-88.png
00000009,185,1,1450199206206,1450199207046,489,275,0,0,0,1,4,3,5,0004-00-0001-44.png,0001-00-0001-65.png
00000009,186,0,1450199207945,1450199209204,1042,238,0,0,0,1,3,2,4,0004-00-0000-40.png,0002-00-0000-64.png
00000009,187,1,1450199212236,1450199212750,939,295,0,0,0,3,0,3,3,0002-00-0001-62.png,0005-00-0001-55.png
00000009,188,0,1450199213615,1450199214618,953,344,0,0,0,2,3,1,5,0003-00-0001-66.png,0002-00-0000-22.png
00000009,189,1,1450199217742,1450199218666,417,348,0,0,0,1,2,1,3,0004-00-0000-02.png,0003-00-0000-05.png
00000009,190,1,1450199219559,1450199220822,508,275,0,0,0,0,3,3,3,0005-00-0001-95.png,0002-00-0000-66.png
00000009,191,0,1450199221717,1450199222542,1016,253,0,0,0,3,4,1,7,0002-00-0001-74.png,0001-00-0000-49.png
00000009,192,1,1450199225474,1450199226009,1016,290,0,0,0,4,2,2,6,0001-00-0001-73.png,0003-00-0000-22.png
00000009,193,1,1450199226904,1450199228447,924,380,0,0,0,4,3,1,7,0001-00-0000-88.png,0002-00-0000-56.png
00000009,194,1,1450199229447,1450199230460,453,264,0,0,0,2,4,2,6,0003-00-0001-13.png,0001-00-0001-18.png
00000009,195,1,1450199231369,1450199232235,469,252,0,0,0,0,2,2,2,0005-00-0001-90.png,0003-00-0001-25.png
00000009,196,0,1450199233112,1450199234338,482,254,0,0,0,2,1,1,3,0003-00-0001-56.png,0004-00-0001-60.png
00000009,197,1,1450199237490,1450199238094,939,290,0,0,0,4,1,3,5,0001-00-0000-77.png,0004-00-0000-98.png
00000009,198,0,1450199238946,1450199239754,939,369,0,0,0,0,1,1,1,0005-00-0001-65.png,0004-00-0000-85.png
00000009,199,1,1450199242951,1450199243868,1077,306,0,0,0,1,0,1,1,0004-00-0000-32.png,0005-00-0000-48.png
00000009,200,1,1450199244802,1450199245673,1034,316,0,0,0,2,0,2,2,0003-00-0000-21.png,0005-00-0001-04.png
00000009,201,1,1450199246559,1450199246615,863,414,0,0,0,4,3,1,7,0001-00-0001-29.png,0002-00-0000-27.png
00000009,202,1,1450199247735,1450199248904,943,423,0,0,0,2,1,1,3,0003-00-0000-33.png,0004-00-0001-21.png
00000009,203,1,1450199249909,1450199250648,939,385,0,0,0,2,0,2,2,0003-00-0001-68.png,0005-00-0000-39.png
00000009,204,1,1450199251648,1450199251739,877,436,0,0,0,1,0,1,1,0004-00-0001-53.png,0005-00-0000-32.png
00000009,205,1,1450199252987,1450199253881,483,277,0,0,0,0,1,1,1,0005-00-0001-72.png,0004-00-0001-45.png
00000009,206,1,1450199254758,1450199255705,482,280,0,0,0,2,4,2,6,0003-00-0001-16.png,0001-00-0001-86.png
00000009,207,1,1450199256648,1450199257302,472,279,0,0,0,0,3,3,3,0005-00-0001-57.png,0002-00-0001-01.png
00000009,208,0,1450199258218,1450199259708,938,351,0,0,0,1,3,2,4,0004-00-0000-99.png,0002-00-0000-03.png
00000009,209,1,1450199262535,1450199263185,496,284,0,0,0,1,2,1,3,0004-00-0001-08.png,0003-00-0000-34.png
00000009,210,1,1450199264030,1450199264752,1006,253,0,0,0,4,1,3,5,0001-00-0000-84.png,0004-00-0001-85.png
00000009,211,1,1450199265672,1450199265708,859,444,0,0,0,4,2,2,6,0001-00-0001-48.png,0003-00-0000-63.png
00000009,212,0,1450199266882,1450199267658,499,256,0,0,0,4,0,4,4,0001-00-0001-32.png,0005-00-0001-62.png
00000009,213,1,1450199270557,1450199271147,479,284,0,0,0,0,4,4,4,0005-00-0000-79.png,0001-00-0000-96.png
00000009,214,1,1450199271985,1450199272655,939,292,0,0,0,3,0,3,3,0002-00-0001-42.png,0005-00-0001-01.png
00000009,215,1,1450199273577,1450199274429,470,260,0,0,0,1,4,3,5,0004-00-0001-47.png,0001-00-0000-82.png
00000009,216,1,1450199276354,1450199276966,473,266,0,0,0,0,2,2,2,0005-00-0001-72.png,0003-00-0000-99.png
00000009,217,1,1450199277831,1450199278538,1049,268,0,0,0,3,1,2,4,0002-00-0001-05.png,0004-00-0001-70.png
00000009,218,0,1450199279519,1450199280513,453,262,0,0,0,3,2,1,5,0002-00-0000-48.png,0003-00-0000-49.png
00000009,219,0,1450199283637,1450199283771,862,410,0,0,0,3,4,1,7,0002-00-0001-35.png,0001-00-0000-66.png
00000009,220,1,1450199287258,1450199287911,476,281,0,0,0,2,3,1,5,0003-00-0001-96.png,0002-00-0001-21.png
00000009,221,0,1450199288753,1450199289414,913,346,0,0,0,2,3,1,5,0003-00-0001-98.png,0002-00-0001-84.png
00000009,222,1,1450199292271,1450199292947,1041,268,0,0,0,3,2,1,5,0002-00-0000-04.png,0003-00-0000-39.png
00000009,223,1,1450199293887,1450199294528,939,279,0,0,0,1,0,1,1,0004-00-0000-96.png,0005-00-0001-93.png
00000009,224,0,1450199295403,1450199295468,862,410,0,0,0,3,4,1,7,0002-00-0001-37.png,0001-00-0000-28.png
00000009,225,1,1450199298672,1450199298913,878,385,0,0,0,4,2,2,6,0001-00-0001-11.png,0003-00-0000-54.png
00000009,226,1,1450199299895,1450199300616,392,340,0,0,0,0,1,1,1,0005-00-0000-27.png,0004-00-0001-87.png
00000009,227,1,1450199301512,1450199302412,1016,264,0,0,0,3,0,3,3,0002-00-0000-31.png,0005-00-0001-39.png
00000009,228,1,1450199303274,1450199304105,909,387,0,0,0,4,1,3,5,0001-00-0001-88.png,0004-00-0001-66.png
00000009,229,0,1450199305050,1450199305189,863,498,0,0,0,1,3,2,4,0004-00-0001-39.png,0002-00-0000-96.png
00000009,230,0,1450199308271,1450199308355,863,283,0,0,0,0,2,2,2,0005-00-0001-60.png,0003-00-0000-03.png
00000009,231,1,1450199311791,1450199312057,907,343,0,0,0,4,3,1,7,0001-00-0000-04.png,0002-00-0000-17.png
00000009,232,1,1450199313004,1450199314190,486,246,0,0,0,2,4,2,6,0003-00-0000-33.png,0001-00-0000-36.png
00000009,233,1,1450199315026,1450199315724,479,238,0,0,0,0,3,3,3,0005-00-0001-79.png,0002-00-0001-58.png
00000009,234,1,1450199316556,1450199317316,1016,263,0,0,0,2,1,1,3,0003-00-0001-31.png,0004-00-0001-48.png
00000009,235,0,1450199318257,1450199318353,872,441,0,0,0,1,4,3,5,0004-00-0001-14.png,0001-00-0000-24.png
00000009,236,1,1450199321508,1450199322134,486,295,0,0,0,0,4,4,4,0005-00-0001-86.png,0001-00-0001-85.png
00000009,237,1,1450199323516,1450199324068,913,323,0,0,0,3,1,2,4,0002-00-0000-07.png,0004-00-0000-88.png
00000009,238,1,1450199324985,1450199325576,394,324,0,0,0,1,2,1,3,0004-00-0000-10.png,0003-00-0001-25.png
00000009,239,1,1450199327202,1450199327717,964,375,0,0,0,2,0,2,2,0003-00-0001-23.png,0005-00-0001-96.png
00000009,240,1,1450199328672,1450199329271,1041,245,0,0,0,4,0,4,4,0001-00-0001-74.png,0005-00-0000-33.png
00000009,241,1,1450199330243,1450199331310,504,241,0,0,0,1,4,3,5,0004-00-0000-64.png,0001-00-0000-10.png
00000009,242,1,1450199332259,1450199333476,1041,253,0,0,0,2,0,2,2,0003-00-0001-95.png,0005-00-0001-95.png
00000009,243,1,1450199334407,1450199335506,489,254,0,0,0,0,2,2,2,0005-00-0000-01.png,0003-00-0001-93.png
00000009,244,1,1450199336371,1450199337346,939,266,0,0,0,2,1,1,3,0003-00-0001-53.png,0004-00-0001-44.png
00000009,245,0,1450199338349,1450199338417,888,541,0,0,0,0,4,4,4,0005-00-0001-20.png,0001-00-0001-98.png
00000009,246,1,1450199341559,1450199342041,913,314,0,0,0,1,0,1,1,0004-00-0001-08.png,0005-00-0000-68.png
00000009,247,1,1450199342952,1450199343817,1016,253,0,0,0,3,2,1,5,0002-00-0000-88.png,0003-00-0001-06.png
00000009,248,1,1450199344665,1450199344721,863,415,0,0,0,4,2,2,6,0001-00-0000-60.png,0003-00-0001-68.png
00000009,249,1,1450199345830,1450199346574,910,309,0,0,0,3,0,3,3,0002-00-0000-88.png,0005-00-0000-89.png
00000009,250,0,1450199348001,1450199348813,491,250,0,0,0,4,3,1,7,0001-00-0000-52.png,0002-00-0000-72.png
00000009,251,0,1450199351747,1450199352236,1016,253,0,0,0,3,4,1,7,0002-00-0000-89.png,0001-00-0000-39.png
00000009,252,1,1450199355252,1450199355767,949,377,0,0,0,4,0,4,4,0001-00-0001-00.png,0005-00-0000-51.png
00000009,253,1,1450199356643,1450199357379,449,403,0,0,0,0,3,3,3,0005-00-0001-72.png,0002-00-0000-51.png
00000009,254,1,1450199358252,1450199358946,1000,227,0,0,0,3,1,2,4,0002-00-0000-50.png,0004-00-0001-49.png
00000009,255,1,1450199359813,1450199360476,432,405,0,0,0,1,2,1,3,0004-00-0000-40.png,0003-00-0001-93.png
00000009,256,1,1450199361461,1450199362374,504,243,0,0,0,2,3,1,5,0003-00-0001-22.png,0002-00-0000-20.png
00000009,257,1,1450199363254,1450199364009,997,262,0,0,0,4,1,3,5,0001-00-0000-91.png,0004-00-0000-62.png
00000009,258,0,1450199365003,1450199365108,862,525,0,0,0,0,1,1,1,0005-00-0000-39.png,0004-00-0000-52.png
00000009,259,0,1450199368233,1450199368281,876,316,0,0,0,1,3,2,4,0004-00-0001-23.png,0002-00-0001-13.png
00000009,260,1,1450199371253,1450199372018,412,404,0,0,0,2,4,2,6,0003-00-0001-30.png,0001-00-0001-14.png
00000009,261,1,1450199372881,1450199373956,909,380,0,0,0,3,0,3,3,0002-00-0000-98.png,0005-00-0001-11.png
00000009,262,1,1450199374806,1450199375687,496,244,0,0,0,0,2,2,2,0005-00-0001-93.png,0003-00-0000-34.png
00000009,263,1,1450199376597,1450199377429,494,267,0,0,0,1,3,2,4,0004-00-0001-15.png,0002-00-0000-27.png
00000009,264,0,1450199378382,1450199379061,899,316,0,0,0,1,4,3,5,0004-00-0001-85.png,0001-00-0001-61.png
00000009,265,1,1450199382178,1450199382724,453,290,0,0,0,0,1,1,1,0005-00-0000-74.png,0004-00-0000-73.png
00000009,266,1,1450199383549,1450199384223,927,346,0,0,0,1,0,1,1,0004-00-0000-41.png,0005-00-0001-46.png
00000009,267,1,1450199385205,1450199385849,400,433,0,0,0,0,4,4,4,0005-00-0000-86.png,0001-00-0001-52.png
00000009,268,1,1450199386774,1450199387822,939,384,0,0,0,3,1,2,4,0002-00-0001-19.png,0004-00-0001-56.png
00000009,269,1,1450199388890,1450199389529,1025,287,0,0,0,2,1,1,3,0003-00-0001-25.png,0004-00-0000-41.png
00000009,270,1,1450199390482,1450199390539,859,460,0,0,0,4,1,3,5,0001-00-0000-39.png,0004-00-0001-07.png
00000009,271,1,1450199391661,1450199392751,996,309,0,0,0,4,0,4,4,0001-00-0000-88.png,0005-00-0000-20.png
00000009,272,0,1450199393710,1450199394725,913,306,0,0,0,2,3,1,5,0003-00-0000-83.png,0002-00-0001-10.png
00000009,273,1,1450199397915,1450199398549,519,288,0,0,0,2,4,2,6,0003-00-0000-67.png,0001-00-0000-97.png
00000009,274,1,1450199399953,1450199400589,920,377,0,0,0,4,3,1,7,0001-00-0001-92.png,0002-00-0001-02.png
00000009,275,1,1450199401510,1450199402551,939,358,0,0,0,3,2,1,5,0002-00-0000-18.png,0003-00-0001-39.png
00000009,276,0,1450199403467,1450199404678,939,358,0,0,0,3,4,1,7,0002-00-0001-50.png,0001-00-0001-36.png
00000009,277,1,1450199407640,1450199408231,494,285,0,0,0,1,2,1,3,0004-00-0001-82.png,0003-00-0001-52.png
00000009,278,1,1450199409079,1450199409669,1032,249,0,0,0,2,0,2,2,0003-00-0000-78.png,0005-00-0000-88.png
00000009,279,1,1450199410590,1450199411555,925,332,0,0,0,4,2,2,6,0001-00-0000-53.png,0003-00-0000-37.png
00000009,280,0,1450199412447,1450199412519,871,458,0,0,0,0,3,3,3,0005-00-0000-32.png,0002-00-0001-45.png
00000009,281,0,1450199415731,1450199416326,1016,264,0,0,0,0,1,1,1,0005-00-0001-95.png,0004-00-0000-80.png
00000009,282,1,1450199419336,1450199419917,939,319,0,0,0,1,0,1,1,0004-00-0000-83.png,0005-00-0000-98.png
00000009,283,1,1450199420734,1450199421562,448,244,0,0,0,2,4,2,6,0003-00-0001-41.png,0001-00-0001-40.png
00000009,284,1,1450199422436,1450199423266,484,251,0,0,0,3,4,1,7,0002-00-0001-11.png,0001-00-0000-55.png
00000009,285,1,1450199424165,1450199425019,903,384,0,0,0,4,3,1,7,0001-00-0000-17.png,0002-00-0001-32.png
00000009,286,0,1450199425986,1450199426941,495,234,0,0,0,3,2,1,5,0002-00-0001-96.png,0003-00-0001-73.png
00000009,287,0,1450199429937,1450199430087,888,306,0,0,0,0,4,4,4,0005-00-0001-79.png,0001-00-0000-01.png
00000009,288,1,1450199433023,1450199433098,857,394,0,0,0,4,2,2,6,0001-00-0000-95.png,0003-00-0000-17.png
00000009,289,1,1450199434023,1450199434847,934,305,0,0,0,3,1,2,4,0002-00-0000-03.png,0004-00-0001-92.png
00000009,290,1,1450199435776,1450199436449,1021,244,0,0,0,4,1,3,5,0001-00-0000-92.png,0004-00-0001-01.png
00000009,291,0,1450199437288,1450199438124,484,261,0,0,0,2,1,1,3,0003-00-0000-92.png,0004-00-0000-85.png
00000009,292,1,1450199440990,1450199441623,475,283,0,0,0,1,2,1,3,0004-00-0001-15.png,0003-00-0000-53.png
00000009,293,1,1450199442520,1450199443223,502,237,0,0,0,0,2,2,2,0005-00-0001-67.png,0003-00-0001-69.png
00000009,294,0,1450199444738,1450199445398,983,260,0,0,0,2,3,1,5,0003-00-0000-42.png,0002-00-0000-98.png
00000009,295,1,1450199448363,1450199448904,496,292,0,0,0,1,4,3,5,0004-00-0001-58.png,0001-00-0000-65.png
00000009,296,1,1450199449767,1450199450527,953,393,0,0,0,3,0,3,3,0002-00-0001-33.png,0005-00-0001-42.png
00000009,297,1,1450199451472,1450199452187,913,367,0,0,0,2,0,2,2,0003-00-0001-05.png,0005-00-0000-26.png
00000009,298,0,1450199453184,1450199453220,864,438,0,0,0,0,3,3,3,0005-00-0001-68.png,0002-00-0000-31.png
00000009,299,0,1450199456042,1450199456050,937,355,0,0,0,1,3,2,4,0004-00-0001-20.png,0002-00-0001-74.png
00000009,300,1,1450199459185,1450199459221,872,331,0,0,0,4,0,4,4,0001-00-0000-96.png,0005-00-0000-10.png
00000009,301,0,1450199460148,1450199461339,913,367,0,0,0,3,4,1,7,0002-00-0001-82.png,0001-00-0000-67.png
00000009,302,1,1450199464471,1450199465023,939,359,0,0,0,3,0,3,3,0002-00-0000-08.png,0005-00-0001-45.png
00000009,303,1,1450199465934,1450199466609,494,242,0,0,0,1,2,1,3,0004-00-0000-36.png,0003-00-0001-51.png
00000009,304,1,1450199467513,1450199468204,930,358,0,0,0,2,1,1,3,0003-00-0000-19.png,0004-00-0001-49.png
00000009,305,1,1450199469092,1450199469858,486,245,0,0,0,1,3,2,4,0004-00-0001-08.png,0002-00-0000-41.png
00000009,306,1,1450199470823,1450199471756,939,291,0,0,0,3,2,1,5,0002-00-0000-65.png,0003-00-0001-11.png
00000009,307,1,1450199472576,1450199473442,931,369,0,0,0,4,0,4,4,0001-00-0000-55.png,0005-00-0000-69.png
00000009,308,0,1450199474486,1450199474561,888,448,0,0,0,2,3,1,5,0003-00-0001-83.png,0002-00-0001-76.png
00000009,309,0,1450199477675,1450199478224,1023,262,0,0,0,2,4,2,6,0003-00-0001-20.png,0001-00-0000-21.png
00000009,310,1,1450199481384,1450199481879,999,253,0,0,0,1,0,1,1,0004-00-0000-84.png,0005-00-0001-78.png
00000009,311,1,1450199482789,1450199483766,964,384,0,0,0,3,1,2,4,0002-00-0001-30.png,0004-00-0000-52.png
00000009,312,1,1450199484723,1450199484779,861,463,0,0,0,2,0,2,2,0003-00-0001-31.png,0005-00-0000-83.png
00000009,313,0,1450199485785,1450199486543,494,222,0,0,0,4,2,2,6,0001-00-0000-07.png,0003-00-0000-22.png
00000009,314,1,1450199489759,1450199489844,858,282,0,0,0,4,1,3,5,0001-00-0001-79.png,0004-00-0000-78.png
00000009,315,1,1450199490806,1450199491781,497,246,0,0,0,1,4,3,5,0004-00-0000-80.png,0001-00-0000-10.png
00000009,316,1,1450199492704,1450199493382,504,266,0,0,0,0,4,4,4,0005-00-0000-58.png,0001-00-0001-61.png
00000009,317,1,1450199494318,1450199495111,511,244,0,0,0,0,1,1,1,0005-00-0001-01.png,0004-00-0001-36.png
00000009,318,1,1450199496012,1450199496894,488,267,0,0,0,0,2,2,2,0005-00-0000-28.png,0003-00-0000-92.png
00000009,319,1,1450199497724,1450199498711,504,240,0,0,0,0,3,3,3,0005-00-0000-59.png,0002-00-0000-05.png
00000009,320,1,1450199499719,1450199500782,923,424,0,0,0,4,3,1,7,0001-00-0001-33.png,0002-00-0001-57.png
00000009,321,1,1450199501795,1450199502637,998,253,0,0,0,3,1,2,4,0002-00-0001-74.png,0004-00-0001-53.png
00000009,322,0,1450199503565,1450199503660,857,468,0,0,0,0,1,1,1,0005-00-0001-23.png,0004-00-0000-89.png
00000009,323,1,1450199506753,1450199506805,894,364,0,0,0,4,3,1,7,0001-00-0000-97.png,0002-00-0000-41.png
00000009,324,0,1450199507729,1450199508463,490,240,0,0,0,4,2,2,6,0001-00-0000-37.png,0003-00-0001-02.png
00000009,325,0,1450199511592,1450199511640,888,332,0,0,0,0,3,3,3,0005-00-0001-35.png,0002-00-0001-72.png
00000009,326,1,1450199514471,1450199515085,425,387,0,0,0,0,4,4,4,0005-00-0001-82.png,0001-00-0001-41.png
00000009,327,1,1450199515933,1450199516781,484,242,0,0,0,1,4,3,5,0004-00-0000-87.png,0001-00-0000-64.png
00000009,328,1,1450199517744,1450199518546,392,313,0,0,0,0,2,2,2,0005-00-0001-66.png,0003-00-0001-39.png
00000009,329,1,1450199519504,1450199520187,921,298,0,0,0,2,1,1,3,0003-00-0001-13.png,0004-00-0001-94.png
00000009,330,1,1450199521134,1450199521962,490,218,0,0,0,1,2,1,3,0004-00-0001-13.png,0003-00-0001-28.png
00000009,331,0,1450199522885,1450199523971,919,299,0,0,0,1,3,2,4,0004-00-0001-31.png,0002-00-0001-64.png
00000009,332,1,1450199526876,1450199527404,922,310,0,0,0,2,0,2,2,0003-00-0000-87.png,0005-00-0001-63.png
00000009,333,1,1450199528280,1450199529097,921,299,0,0,0,1,0,1,1,0004-00-0000-93.png,0005-00-0001-80.png
00000009,334,1,1450199530049,1450199530673,1050,251,0,0,0,4,1,3,5,0001-00-0000-41.png,0004-00-0001-37.png
00000009,335,1,1450199531597,1450199533427,497,256,0,0,0,3,4,1,7,0002-00-0001-89.png,0001-00-0001-17.png
00000009,336,1,1450199534391,1450199535279,971,261,0,0,0,3,2,1,5,0002-00-0000-06.png,0003-00-0000-10.png
00000009,337,1,1450199536222,1450199537101,479,266,0,0,0,2,4,2,6,0003-00-0001-97.png,0001-00-0001-57.png
00000009,338,0,1450199538006,1450199538755,1027,272,0,0,0,2,3,1,5,0003-00-0001-95.png,0002-00-0001-45.png
00000009,339,1,1450199541871,1450199542107,894,399,0,0,0,3,0,3,3,0002-00-0000-87.png,0005-00-0001-19.png
00000009,340,1,1450199543044,1450199543751,1050,284,0,0,0,4,0,4,4,0001-00-0001-98.png,0005-00-0001-49.png
00000009,341,0,1450199544643,1450199544832,913,514,0,0,0,1,4,3,5,0004-00-0001-36.png,0001-00-0001-54.png
00000009,342,0,1450199547859,1450199548556,391,378,0,0,0,4,3,1,7,0001-00-0001-02.png,0002-00-0001-29.png
00000009,343,0,1450199551668,1450199551931,1082,317,0,0,0,0,1,1,1,0005-00-0000-70.png,0004-00-0001-66.png
00000009,344,1,1450199554765,1450199555308,936,305,0,0,0,3,0,3,3,0002-00-0001-72.png,0005-00-0000-53.png
00000009,345,1,1450199556201,1450199556302,863,445,0,0,0,2,1,1,3,0003-00-0001-20.png,0004-00-0000-77.png
00000009,346,1,1450199557295,1450199558317,489,247,0,0,0,0,3,3,3,0005-00-0001-05.png,0002-00-0001-21.png
00000009,347,1,1450199559213,1450199560074,888,316,0,0,0,3,2,1,5,0002-00-0000-29.png,0003-00-0000-42.png
00000009,348,1,1450199560960,1450199562038,934,391,0,0,0,3,1,2,4,0002-00-0000-72.png,0004-00-0000-08.png
00000009,349,1,1450199563036,1450199563813,470,247,0,0,0,1,3,2,4,0004-00-0001-99.png,0002-00-0001-57.png
00000009,350,1,1450199564705,1450199565382,939,293,0,0,0,1,0,1,1,0004-00-0000-04.png,0005-00-0001-76.png
00000009,351,1,1450199566357,1450199566465,859,467,0,0,0,2,0,2,2,0003-00-0001-08.png,0005-00-0000-56.png
00000009,352,0,1450199567658,1450199568603,1092,349,0,0,0,2,3,1,5,0003-00-0000-45.png,0002-00-0000-65.png
00000009,353,0,1450199571754,1450199572462,913,414,0,0,0,2,4,2,6,0003-00-0000-25.png,0001-00-0000-56.png
00000009,354,1,1450199575596,1450199575628,866,326,0,0,0,4,1,3,5,0001-00-0001-84.png,0004-00-0001-46.png
00000009,355,1,1450199576605,1450199577422,918,323,0,0,0,4,0,4,4,0001-00-0000-50.png,0005-00-0001-10.png
00000009,356,0,1450199578329,1450199578377,888,400,0,0,0,0,2,2,2,0005-00-0000-06.png,0003-00-0000-03.png
00000009,357,0,1450199581477,1450199581512,862,358,0,0,0,1,2,1,3,0004-00-0001-33.png,0003-00-0001-51.png
00000009,358,1,1450199584653,1450199585515,477,304,0,0,0,3,4,1,7,0002-00-0001-67.png,0001-00-0000-27.png
00000009,359,0,1450199586470,1450199587282,453,410,0,0,0,4,2,2,6,0001-00-0001-68.png,0003-00-0001-29.png
00000009,360,0,1450199590186,1450199590286,1007,386,0,0,0,0,4,4,4,0005-00-0000-41.png,0001-00-0001-37.png
00000009,361,1,1450199593495,1450199594008,1043,249,0,0,0,2,0,2,2,0003-00-0000-48.png,0005-00-0000-05.png
00000009,362,0,1450199594979,1450199595939,492,241,0,0,0,3,2,1,5,0002-00-0001-35.png,0003-00-0000-04.png
00000009,363,1,1450199598990,1450199599555,1041,271,0,0,0,4,0,4,4,0001-00-0000-32.png,0005-00-0000-18.png
00000009,364,1,1450199600470,1450199601175,943,368,0,0,0,4,1,3,5,0001-00-0001-91.png,0004-00-0001-19.png
00000009,365,1,1450199602150,1450199602179,863,438,0,0,0,1,0,1,1,0004-00-0001-79.png,0005-00-0000-72.png
00000009,366,1,1450199603424,1450199604252,445,267,0,0,0,0,3,3,3,0005-00-0000-87.png,0002-00-0001-43.png
00000009,367,1,1450199605214,1450199605967,921,343,0,0,0,3,0,3,3,0002-00-0000-46.png,0005-00-0000-90.png
00000009,368,0,1450199606899,1450199607673,509,252,0,0,0,4,3,1,7,0001-00-0001-71.png,0002-00-0001-16.png
00000009,369,1,1450199610806,1450199611639,913,320,0,0,0,3,1,2,4,0002-00-0001-94.png,0004-00-0000-73.png
00000009,370,0,1450199612627,1450199612692,859,464,0,0,0,1,4,3,5,0004-00-0001-94.png,0001-00-0000-29.png
00000009,371,0,1450199615865,1450199615885,932,324,0,0,0,1,2,1,3,0004-00-0000-33.png,0003-00-0001-91.png
00000009,372,1,1450199618855,1450199619641,476,278,0,0,0,2,4,2,6,0003-00-0000-30.png,0001-00-0000-09.png
00000009,373,1,1450199620535,1450199621539,990,271,0,0,0,2,1,1,3,0003-00-0001-50.png,0004-00-0000-70.png
00000009,374,1,1450199622431,1450199623576,451,406,0,0,0,2,3,1,5,0003-00-0001-73.png,0002-00-0001-28.png
00000009,375,1,1450199624479,1450199625151,452,246,0,0,0,1,3,2,4,0004-00-0000-31.png,0002-00-0000-45.png
00000009,376,1,1450199626107,1450199627133,919,296,0,0,0,4,2,2,6,0001-00-0000-05.png,0003-00-0000-96.png
00000009,377,1,1450199628065,1450199629054,476,250,0,0,0,0,1,1,1,0005-00-0001-92.png,0004-00-0000-77.png
00000009,378,1,1450199630652,1450199631634,478,271,0,0,0,3,4,1,7,0002-00-0000-57.png,0001-00-0001-85.png
00000009,379,1,1450199632528,1450199633343,449,251,0,0,0,0,4,4,4,0005-00-0001-59.png,0001-00-0000-55.png
00000009,380,0,1450199634297,1450199635655,990,262,0,0,0,0,2,2,2,0005-00-0000-69.png,0003-00-0000-30.png
00000009,381,0,1450199638911,1450199639542,440,410,0,0,0,3,2,1,5,0002-00-0001-69.png,0003-00-0000-45.png
00000009,382,0,1450199642547,1450199643158,489,278,0,0,0,2,1,1,3,0003-00-0001-44.png,0004-00-0001-04.png
00000009,383,1,1450199646123,1450199646331,891,335,0,0,0,4,0,4,4,0001-00-0001-28.png,0005-00-0001-28.png
00000009,384,1,1450199647316,1450199648499,495,247,0,0,0,1,4,3,5,0004-00-0000-96.png,0001-00-0001-90.png
00000009,385,0,1450199649382,1450199650046,472,248,0,0,0,1,0,1,1,0004-00-0001-01.png,0005-00-0001-85.png
00000009,386,1,1450199653126,1450199653776,453,410,0,0,0,1,2,1,3,0004-00-0001-32.png,0003-00-0001-61.png
00000009,387,1,1450199654648,1450199655418,410,324,0,0,0,0,4,4,4,0005-00-0000-55.png,0001-00-0000-74.png
00000009,388,1,1450199656401,1450199657407,489,240,0,0,0,3,4,1,7,0002-00-0000-02.png,0001-00-0001-05.png
00000009,389,1,1450199658410,1450199659436,939,265,0,0,0,4,3,1,7,0001-00-0001-24.png,0002-00-0000-34.png
00000009,390,1,1450199660351,1450199661494,1041,279,0,0,0,4,1,3,5,0001-00-0000-66.png,0004-00-0001-70.png
00000009,391,1,1450199662449,1450199663511,494,259,0,0,0,0,3,3,3,0005-00-0001-20.png,0002-00-0000-90.png
00000009,392,1,1450199664357,1450199665327,1000,253,0,0,0,4,2,2,6,0001-00-0000-86.png,0003-00-0000-18.png
00000009,393,1,1450199666386,1450199667157,1041,264,0,0,0,3,0,3,3,0002-00-0001-93.png,0005-00-0000-40.png
00000009,394,1,1450199668014,1450199668054,862,384,0,0,0,2,0,2,2,0003-00-0000-61.png,0005-00-0000-37.png
00000009,395,0,1450199669257,1450199670392,939,394,0,0,0,2,3,1,5,0003-00-0000-10.png,0002-00-0000-24.png
00000009,396,1,1450199673518,1450199674066,469,288,0,0,0,0,1,1,1,0005-00-0000-48.png,0004-00-0000-07.png
00000009,397,1,1450199674952,1450199676012,1016,237,0,0,0,3,1,2,4,0002-00-0000-67.png,0004-00-0000-48.png
00000009,398,1,1450199676887,1450199677932,438,384,0,0,0,1,3,2,4,0004-00-0001-15.png,0002-00-0000-93.png
00000009,399,1,1450199678847,1450199679888,486,267,0,0,0,2,4,2,6,0003-00-0000-54.png,0001-00-0000-04.png
00000009,400,1,1450199680815,1450199682271,421,431,0,0,0,0,2,2,2,0005-00-0000-32.png,0003-00-0001-95.png
00000009,401,1,1450199683126,1450199684013,498,257,0,0,0,0,2,2,2,0005-00-0000-33.png,0003-00-0001-02.png
00000009,402,1,1450199684938,1450199685800,913,373,0,0,0,4,1,3,5,0001-00-0000-92.png,0004-00-0001-54.png
00000009,403,1,1450199686779,1450199687566,924,319,0,0,0,1,0,1,1,0004-00-0000-18.png,0005-00-0001-64.png
00000009,404,0,1450199688514,1450199688577,865,465,0,0,0,2,3,1,5,0003-00-0001-75.png,0002-00-0000-93.png
00000009,405,1,1450199691412,1450199692161,987,479,0,0,0,4,3,1,7,0001-00-0000-43.png,0002-00-0000-31.png
00000009,406,1,1450199693158,1450199693894,1041,290,0,0,0,4,0,4,4,0001-00-0000-79.png,0005-00-0000-83.png
00000009,407,1,1450199694722,1450199694762,882,413,0,0,0,2,1,1,3,0003-00-0000-63.png,0004-00-0000-84.png
00000009,408,0,1450199695968,1450199696911,921,303,0,0,0,1,4,3,5,0004-00-0000-52.png,0001-00-0001-97.png
00000009,409,1,1450199699904,1450199700436,939,267,0,0,0,4,2,2,6,0001-00-0001-59.png,0003-00-0001-50.png
00000009,410,0,1450199701397,1450199701481,876,535,0,0,0,0,3,3,3,0005-00-0000-35.png,0002-00-0000-32.png
00000009,411,0,1450199704585,1450199704633,862,306,0,0,0,1,2,1,3,0004-00-0000-86.png,0003-00-0001-57.png
00000009,412,1,1450199707498,1450199708115,942,252,0,0,0,3,1,2,4,0002-00-0001-08.png,0004-00-0001-38.png
00000009,413,0,1450199709016,1450199709032,861,427,0,0,0,3,4,1,7,0002-00-0000-75.png,0001-00-0001-33.png
00000009,414,1,1450199712018,1450199712612,1006,253,0,0,0,3,2,1,5,0002-00-0000-83.png,0003-00-0000-73.png
00000009,415,0,1450199713455,1450199714363,928,306,0,0,0,1,3,2,4,0004-00-0000-63.png,0002-00-0000-97.png
00000009,416,1,1450199717584,1450199718107,435,297,0,0,0,0,1,1,1,0005-00-0000-15.png,0004-00-0000-89.png
00000009,417,1,1450199718994,1450199719046,517,527,0,0,0,0,4,4,4,0005-00-0001-78.png,0001-00-0000-34.png
00000009,418,1,1450199720095,1450199720911,913,306,0,0,0,2,0,2,2,0003-00-0001-86.png,0005-00-0001-76.png
00000009,419,1,1450199722402,1450199723027,473,242,0,0,0,2,4,2,6,0003-00-0001-11.png,0001-00-0001-34.png
00000009,420,1,1450199723925,1450199724542,913,293,0,0,0,3,0,3,3,0002-00-0000-08.png,0005-00-0000-75.png
00000009,421,1,1450199725434,1450199726204,511,246,0,0,0,0,2,2,2,0005-00-0001-34.png,0003-00-0000-10.png
00000009,422,1,1450199727696,1450199728225,1027,279,0,0,0,3,0,3,3,0002-00-0000-85.png,0005-00-0001-19.png
00000009,423,1,1450199729119,1450199730287,490,384,0,0,0,2,4,2,6,0003-00-0001-46.png,0001-00-0001-04.png
00000009,424,1,1450199731226,1450199731948,491,254,0,0,0,1,4,3,5,0004-00-0001-24.png,0001-00-0000-16.png
00000009,425,1,1450199733473,1450199733481,857,343,0,0,0,2,0,2,2,0003-00-0000-68.png,0005-00-0001-98.png
00000009,426,1,1450199734525,1450199735381,391,329,0,0,0,0,1,1,1,0005-00-0000-39.png,0004-00-0000-97.png
00000009,427,0,1450199736383,1450199736459,893,477,0,0,0,0,3,3,3,0005-00-0000-47.png,0002-00-0001-39.png
00000009,428,1,1450199739631,1450199740196,947,298,0,0,0,4,3,1,7,0001-00-0000-24.png,0002-00-0001-95.png
00000009,429,1,1450199741082,1450199741752,496,247,0,0,0,0,4,4,4,0005-00-0000-91.png,0001-00-0000-27.png
00000009,430,1,1450199742690,1450199743567,902,337,0,0,0,4,2,2,6,0001-00-0000-58.png,0003-00-0000-85.png
00000009,431,1,1450199744599,1450199744619,893,413,0,0,0,1,0,1,1,0004-00-0001-26.png,0005-00-0000-85.png
00000009,432,1,1450199745679,1450199746649,939,375,0,0,0,4,0,4,4,0001-00-0001-78.png,0005-00-0001-03.png
00000009,433,1,1450199747601,1450199748634,924,316,0,0,0,3,2,1,5,0002-00-0000-80.png,0003-00-0000-82.png
00000009,434,1,1450199749610,1450199749662,900,455,0,0,0,3,1,2,4,0002-00-0001-64.png,0004-00-0001-46.png
00000009,435,0,1450199750830,1450199750885,888,501,0,0,0,3,4,1,7,0002-00-0001-02.png,0001-00-0000-91.png
00000009,436,1,1450199754025,1450199754539,1033,279,0,0,0,4,1,3,5,0001-00-0000-29.png,0004-00-0000-64.png
00000009,437,1,1450199755433,1450199756223,493,265,0,0,0,1,2,1,3,0004-00-0001-38.png,0003-00-0000-38.png
00000009,438,1,1450199757787,1450199758430,518,252,0,0,0,1,3,2,4,0004-00-0001-87.png,0002-00-0001-44.png
00000009,439,1,1450199759385,1450199760471,485,249,0,0,0,2,3,1,5,0003-00-0001-26.png,0002-00-0000-62.png
00000009,440,1,1450199761385,1450199762077,1061,244,0,0,0,2,1,1,3,0003-00-0000-86.png,0004-00-0000-21.png
00000009,441,1,1450199763036,1450199763802,448,388,0,0,0,0,2,2,2,0005-00-0000-85.png,0003-00-0001-03.png
00000009,442,1,1450199765201,1450199765820,964,367,0,0,0,3,0,3,3,0002-00-0001-24.png,0005-00-0000-33.png
00000009,443,0,1450199766852,1450199767739,915,315,0,0,0,3,4,1,7,0002-00-0001-30.png,0001-00-0000-13.png
00000009,444,1,1450199770596,1450199770706,875,430,0,0,0,2,1,1,3,0003-00-0001-67.png,0004-00-0000-28.png
00000009,445,0,1450199771710,1450199772806,482,264,0,0,0,3,2,1,5,0002-00-0000-44.png,0003-00-0000-73.png
00000009,446,0,1450199775938,1450199776159,862,358,0,0,0,2,4,2,6,0003-00-0000-62.png,0001-00-0001-96.png
00000009,447,1,1450199779059,1450199779642,899,306,0,0,0,3,1,2,4,0002-00-0001-55.png,0004-00-0001-92.png
00000009,448,1,1450199780563,1450199781204,486,229,0,0,0,1,2,1,3,0004-00-0000-82.png,0003-00-0001-30.png
00000009,449,1,1450199782038,1450199782766,927,376,0,0,0,2,0,2,2,0003-00-0000-44.png,0005-00-0001-00.png
00000009,450,0,1450199783653,1450199783701,858,369,0,0,0,1,3,2,4,0004-00-0000-43.png,0002-00-0000-88.png
00000009,451,1,1450199786815,1450199787522,985,262,0,0,0,1,0,1,1,0004-00-0001-55.png,0005-00-0000-19.png
00000009,452,1,1450199788449,1450199789357,939,295,0,0,0,4,1,3,5,0001-00-0001-97.png,0004-00-0001-15.png
00000009,453,1,1450199790245,1450199791201,484,242,0,0,0,0,3,3,3,0005-00-0001-13.png,0002-00-0000-67.png
00000009,454,1,1450199792143,1450199793283,465,384,0,0,0,2,3,1,5,0003-00-0001-56.png,0002-00-0001-05.png
00000009,455,0,1450199794228,1450199795318,939,291,0,0,0,0,1,1,1,0005-00-0001-37.png,0004-00-0001-31.png
00000009,456,0,1450199798336,1450199799286,478,244,0,0,0,4,3,1,7,0001-00-0000-02.png,0002-00-0001-54.png
00000009,457,0,1450199802309,1450199802875,992,255,0,0,0,1,4,3,5,0004-00-0000-36.png,0001-00-0000-94.png
00000009,458,1,1450199805749,1450199806301,1039,285,0,0,0,4,2,2,6,0001-00-0001-69.png,0003-00-0001-62.png
00000009,459,1,1450199807187,1450199808030,494,247,0,0,0,0,4,4,4,0005-00-0000-99.png,0001-00-0000-00.png
00000009,460,1,1450199808871,1450199809621,923,358,0,0,0,4,0,4,4,0001-00-0000-63.png,0005-00-0001-38.png
00000009,461,1,1450199810776,1450199811477,438,400,0,0,0,1,4,3,5,0004-00-0000-91.png,0001-00-0000-49.png
00000009,462,1,1450199812441,1450199813356,466,239,0,0,0,0,1,1,1,0005-00-0000-94.png,0004-00-0001-65.png
00000009,463,1,1450199814243,1450199815038,1031,247,0,0,0,3,1,2,4,0002-00-0000-59.png,0004-00-0000-09.png
00000009,464,0,1450199816002,1450199816078,863,454,0,0,0,0,3,3,3,0005-00-0000-18.png,0002-00-0000-25.png
00000009,465,1,1450199819180,1450199819795,500,260,0,0,0,0,2,2,2,0005-00-0001-56.png,0003-00-0001-79.png
00000009,466,0,1450199820657,1450199821744,1016,264,0,0,0,2,3,1,5,0003-00-0001-46.png,0002-00-0001-54.png
00000009,467,1,1450199824660,1450199824679,946,316,0,0,0,4,1,3,5,0001-00-0001-05.png,0004-00-0001-95.png
00000009,468,1,1450199825631,1450199826558,484,264,0,0,0,2,4,2,6,0003-00-0000-01.png,0001-00-0000-85.png
00000009,469,1,1450199827408,1450199828356,946,400,0,0,0,4,3,1,7,0001-00-0000-06.png,0002-00-0001-53.png
00000009,470,0,1450199829257,1450199830278,939,320,0,0,0,1,2,1,3,0004-00-0000-70.png,0003-00-0000-14.png
00000009,471,1,1450199833450,1450199834054,1016,253,0,0,0,3,2,1,5,0002-00-0000-71.png,0003-00-0001-19.png
00000009,472,1,1450199834994,1450199835744,935,374,0,0,0,2,0,2,2,0003-00-0000-06.png,0005-00-0000-07.png
00000009,473,1,1450199836689,1450199837495,496,235,0,0,0,0,4,4,4,0005-00-0000-84.png,0001-00-0001-58.png
00000009,474,1,1450199838412,1450199839363,1016,267,0,0,0,3,0,3,3,0002-00-0001-56.png,0005-00-0001-70.png
00000009,475,1,1450199840300,1450199841055,939,360,0,0,0,4,0,4,4,0001-00-0001-36.png,0005-00-0001-70.png
00000009,476,1,1450199842026,1450199842067,862,410,0,0,0,2,1,1,3,0003-00-0000-43.png,0004-00-0001-69.png
00000009,477,1,1450199843217,1450199844217,1016,263,0,0,0,4,2,2,6,0001-00-0001-10.png,0003-00-0000-74.png
00000009,478,0,1450199845239,1450199845291,897,443,0,0,0,3,4,1,7,0002-00-0000-16.png,0001-00-0000-49.png
00000009,479,0,1450199848473,1450199848999,939,316,0,0,0,1,3,2,4,0004-00-0000-24.png,0002-00-0000-24.png
00000009,480,1,1450199852131,1450199852636,1036,276,0,0,0,1,0,1,1,0004-00-0001-52.png,0005-00-0000-47.png
00000009,481,0,1450199853514,1450199853589,888,410,0,0,0,1,3,2,4,0004-00-0000-62.png,0002-00-0001-47.png
00000009,482,1,1450199856674,1450199857513,955,332,0,0,0,2,1,1,3,0003-00-0000-68.png,0004-00-0001-74.png
00000009,483,0,1450199858465,1450199858591,868,558,0,0,0,0,2,2,2,0005-00-0001-05.png,0003-00-0000-83.png
00000009,484,1,1450199861785,1450199862496,498,265,0,0,0,2,3,1,5,0003-00-0000-50.png,0002-00-0001-06.png
00000009,485,1,1450199863443,1450199864073,464,357,0,0,0,1,4,3,5,0004-00-0001-60.png,0001-00-0000-41.png
00000009,486,1,1450199864982,1450199865558,1025,267,0,0,0,2,0,2,2,0003-00-0000-99.png,0005-00-0000-85.png
00000009,487,0,1450199866482,1450199867237,449,419,0,0,0,1,0,1,1,0004-00-0000-05.png,0005-00-0000-35.png
00000009,488,1,1450199870408,1450199870416,862,345,0,0,0,4,3,1,7,0001-00-0000-00.png,0002-00-0001-25.png
00000009,489,1,1450199871399,1450199872166,519,226,0,0,0,0,4,4,4,0005-00-0000-92.png,0001-00-0001-54.png
00000009,490,0,1450199873026,1450199873763,413,332,0,0,0,4,2,2,6,0001-00-0001-08.png,0003-00-0000-50.png
00000009,491,1,1450199876884,1450199877446,1016,243,0,0,0,3,0,3,3,0002-00-0001-80.png,0005-00-0000-45.png
00000009,492,1,1450199878368,1450199879172,485,224,0,0,0,1,2,1,3,0004-00-0001-54.png,0003-00-0000-39.png
00000009,493,1,1450199880092,1450199880783,936,393,0,0,0,4,0,4,4,0001-00-0000-10.png,0005-00-0000-31.png
00000009,494,1,1450199881863,1450199882700,485,255,0,0,0,0,1,1,1,0005-00-0000-21.png,0004-00-0000-45.png
00000009,495,0,1450199883637,1450199884371,922,357,0,0,0,3,4,1,7,0002-00-0000-01.png,0001-00-0000-33.png
00000009,496,0,1450199887589,1450199888167,491,253,0,0,0,3,1,2,4,0002-00-0001-47.png,0004-00-0000-19.png
00000009,497,1,1450199891155,1450199891691,479,291,0,0,0,0,3,3,3,0005-00-0000-62.png,0002-00-0001-86.png
00000009,498,1,1450199892557,1450199893392,1015,282,0,0,0,4,1,3,5,0001-00-0001-99.png,0004-00-0000-44.png
00000009,499,1,1450199894278,1450199894333,862,436,0,0,0,3,2,1,5,0002-00-0001-82.png,0003-00-0001-42.png
00000009,500,1,1450199895351,1450199896352,409,348,0,0,0,2,4,2,6,0003-00-0001-82.png,0001-00-0001-93.png
00000009,501,0,1450199897325,1450199898103,988,254,0,0,0,0,1,1,1,0005-00-0000-73.png,0004-00-0000-95.png
00000009,502,1,1450199906260,1450199906492,993,283,0,0,0,1,0,1,1,0004-00-0000-42.png,0005-00-0000-77.png
00000009,503,1,1450199907851,1450199908446,984,271,0,0,0,2,0,2,2,0003-00-0001-26.png,0005-00-0000-21.png
00000009,504,1,1450199909500,1450199909516,893,466,0,0,0,4,0,4,4,0001-00-0001-12.png,0005-00-0001-41.png
00000009,505,1,1450199910614,1450199911675,913,405,0,0,0,4,2,2,6,0001-00-0000-24.png,0003-00-0000-72.png
00000009,506,1,1450199912958,1450199913585,472,264,0,0,0,1,4,3,5,0004-00-0001-07.png,0001-00-0000-69.png
00000009,507,1,1450199914469,1450199915581,488,253,0,0,0,2,3,1,5,0003-00-0001-51.png,0002-00-0000-86.png
00000009,508,1,1450199916490,1450199917541,901,317,0,0,0,3,2,1,5,0002-00-0001-97.png,0003-00-0001-04.png
00000009,509,1,1450199918478,1450199919336,478,276,0,0,0,2,4,2,6,0003-00-0001-96.png,0001-00-0000-34.png
00000009,510,1,1450199920316,1450199920974,1010,246,0,0,0,3,0,3,3,0002-00-0000-33.png,0005-00-0001-93.png
00000009,511,1,1450199921803,1450199921831,899,384,0,0,0,4,1,3,5,0001-00-0000-03.png,0004-00-0001-63.png
00000009,512,1,1450199923024,1450199923091,862,529,0,0,0,4,3,1,7,0001-00-0001-90.png,0002-00-0000-84.png
00000009,513,1,1450199924211,1450199924271,943,441,0,0,0,3,1,2,4,0002-00-0001-51.png,0004-00-0001-68.png
00000009,514,1,1450199926601,1450199927129,990,279,0,0,0,2,1,1,3,0003-00-0000-01.png,0004-00-0000-30.png
00000009,515,0,1450199928015,1450199928027,891,373,0,0,0,1,3,2,4,0004-00-0001-51.png,0002-00-0000-90.png
00000009,516,0,1450199930974,1450199931006,878,413,0,0,0,0,3,3,3,0005-00-0000-47.png,0002-00-0001-65.png
00000009,517,0,1450199934085,1450199934759,922,349,0,0,0,0,2,2,2,0005-00-0001-28.png,0003-00-0001-82.png
00000009,518,0,1450199937692,1450199938215,939,292,0,0,0,3,4,1,7,0002-00-0000-84.png,0001-00-0000-67.png
00000009,519,0,1450199941478,1450199942107,1004,279,0,0,0,1,2,1,3,0004-00-0000-46.png,0003-00-0000-51.png
00000009,520,1,1450199945104,1450199945684,467,279,0,0,0,0,4,4,4,0005-00-0000-00.png,0001-00-0000-49.png
00000009,521,0,1450199946636,1450199947413,913,384,0,0,0,1,4,3,5,0004-00-0000-45.png,0001-00-0001-77.png
00000009,522,1,1450199950263,1450199950860,1038,325,0,0,0,4,0,4,4,0001-00-0001-36.png,0005-00-0001-63.png
00000009,523,1,1450199951770,1450199952621,503,227,0,0,0,0,1,1,1,0005-00-0001-98.png,0004-00-0000-92.png
00000009,524,1,1450199953536,1450199954235,943,394,0,0,0,1,0,1,1,0004-00-0001-87.png,0005-00-0000-72.png
00000009,525,1,1450199955090,1450199956039,911,304,0,0,0,3,0,3,3,0002-00-0001-48.png,0005-00-0001-41.png
00000009,526,1,1450199957151,1450199958166,916,277,0,0,0,4,1,3,5,0001-00-0000-48.png,0004-00-0000-00.png
00000009,527,0,1450199959167,1450199959946,450,376,0,0,0,3,1,2,4,0002-00-0000-85.png,0004-00-0001-63.png
00000009,528,1,1450199963120,1450199963711,490,266,0,0,0,1,3,2,4,0004-00-0001-32.png,0002-00-0000-59.png
00000009,529,1,1450199964601,1450199965350,913,292,0,0,0,4,3,1,7,0001-00-0001-61.png,0002-00-0001-64.png
00000009,530,0,1450199966361,1450199967198,999,273,0,0,0,2,3,1,5,0003-00-0000-44.png,0002-00-0001-63.png
00000009,531,1,1450199970140,1450199970642,939,293,0,0,0,2,1,1,3,0003-00-0001-40.png,0004-00-0001-92.png
00000009,532,1,1450199971606,1450199972330,928,374,0,0,0,4,2,2,6,0001-00-0000-72.png,0003-00-0001-97.png
00000009,533,0,1450199973257,1450199973289,865,415,0,0,0,0,2,2,2,0005-00-0000-17.png,0003-00-0000-20.png
00000009,534,0,1450199976138,1450199976162,876,279,0,0,0,1,2,1,3,0004-00-0000-98.png,0003-00-0001-20.png
00000009,535,1,1450199979091,1450199979924,492,293,0,0,0,0,4,4,4,0005-00-0001-58.png,0001-00-0000-48.png
00000009,536,1,1450199980800,1450199981845,484,251,0,0,0,0,3,3,3,0005-00-0001-85.png,0002-00-0001-56.png
00000009,537,1,1450199982760,1450199983550,939,350,0,0,0,2,0,2,2,0003-00-0001-60.png,0005-00-0001-57.png
00000009,538,1,1450199984430,1450199985584,503,233,0,0,0,3,4,1,7,0002-00-0001-13.png,0001-00-0001-17.png
00000009,539,1,1450199986577,1450199987620,420,390,0,0,0,2,4,2,6,0003-00-0000-00.png,0001-00-0001-46.png
00000009,540,1,1450199988703,1450199989442,913,399,0,0,0,3,2,1,5,0002-00-0000-63.png,0003-00-0000-40.png
00000009,541,1,1450199990369,1450199991493,438,343,0,0,0,1,3,2,4,0004-00-0000-15.png,0002-00-0001-52.png
00000009,542,0,1450199992367,1450199992375,513,525,0,0,0,3,0,3,3,0002-00-0000-22.png,0005-00-0001-66.png
00000009,543,0,1450200008074,1450200008270,515,399,0,0,0,4,1,3,5,0001-00-0000-87.png,0004-00-0000-57.png
00000009,544,1,1450200011456,1450200012232,994,284,0,0,0,4,3,1,7,0001-00-0001-26.png,0002-00-0000-86.png
00000009,545,0,1450200013246,1450200014334,939,332,0,0,0,2,3,1,5,0003-00-0001-60.png,0002-00-0000-71.png
00000009,546,1,1450200017522,1450200018087,1015,312,0,0,0,2,0,2,2,0003-00-0001-07.png,0005-00-0000-55.png
00000009,547,1,1450200019032,1450200019904,939,395,0,0,0,4,2,2,6,0001-00-0001-36.png,0003-00-0001-65.png
00000009,548,1,1450200020808,1450200021476,1017,228,0,0,0,1,0,1,1,0004-00-0001-17.png,0005-00-0001-61.png
00000009,549,0,1450200022447,1450200023186,905,307,0,0,0,2,4,2,6,0003-00-0000-79.png,0001-00-0001-25.png
00000009,550,1,1450200026346,1450200026900,392,396,0,0,0,0,4,4,4,0005-00-0001-06.png,0001-00-0001-56.png
00000009,551,1,1450200027753,1450200027773,492,496,0,0,0,1,4,3,5,0004-00-0000-56.png,0001-00-0001-98.png
00000009,552,1,1450200028796,1450200029603,881,339,0,0,0,4,0,4,4,0001-00-0001-61.png,0005-00-0001-14.png
00000009,553,1,1450200030586,1450200031255,415,380,0,0,0,0,2,2,2,0005-00-0001-91.png,0003-00-0001-70.png
00000009,554,0,1450200032184,1450200033381,926,345,0,0,0,1,2,1,3,0004-00-0001-11.png,0003-00-0000-77.png
00000009,555,0,1450200043820,1450200044304,1027,266,0,0,0,0,1,1,1,0005-00-0000-35.png,0004-00-0001-22.png
00000009,556,1,1450200047363,1450200047413,927,334,0,0,0,2,1,1,3,0003-00-0001-08.png,0004-00-0001-80.png
00000009,557,1,1450200048460,1450200049185,488,240,0,0,0,3,4,1,7,0002-00-0000-95.png,0001-00-0001-69.png
00000009,558,1,1450200050266,1450200051057,907,313,0,0,0,3,2,1,5,0002-00-0000-27.png,0003-00-0000-54.png
00000009,559,1,1450200052054,1450200052835,479,249,0,0,0,0,3,3,3,0005-00-0001-52.png,0002-00-0000-20.png
00000009,560,0,1450200053743,1450200054632,492,250,0,0,0,3,1,2,4,0002-00-0001-70.png,0004-00-0001-42.png
00000009,561,0,1450200057473,1450200058171,978,319,0,0,0,0,2,2,2,0005-00-0001-62.png,0003-00-0000-27.png
00000009,562,1,1450200062423,1450200062942,907,361,0,0,0,4,0,4,4,0001-00-0001-74.png,0005-00-0001-10.png
00000009,563,1,1450200063905,1450200064639,482,277,0,0,0,1,4,3,5,0004-00-0000-67.png,0001-00-0000-33.png
00000009,564,1,1450200065562,1450200066566,944,401,0,0,0,3,1,2,4,0002-00-0000-05.png,0004-00-0000-19.png
00000009,565,1,1450200067561,1450200068472,493,248,0,0,0,2,4,2,6,0003-00-0000-79.png,0001-00-0000-65.png
00000009,566,1,1450200069429,1450200070638,488,238,0,0,0,2,3,1,5,0003-00-0001-30.png,0002-00-0001-25.png
00000009,567,1,1450200071684,1450200072397,394,391,0,0,0,0,1,1,1,0005-00-0001-50.png,0004-00-0001-36.png
00000009,568,1,1450200073340,1450200074076,1008,246,0,0,0,2,0,2,2,0003-00-0000-34.png,0005-00-0001-53.png
00000009,569,1,1450200075128,1450200076179,489,264,0,0,0,3,4,1,7,0002-00-0000-96.png,0001-00-0000-94.png
00000009,570,1,1450200077148,1450200077865,1032,253,0,0,0,4,1,3,5,0001-00-0000-38.png,0004-00-0000-30.png
00000009,571,1,1450200078829,1450200079670,1030,266,0,0,0,3,0,3,3,0002-00-0001-01.png,0005-00-0001-16.png
00000009,572,1,1450200080750,1450200081548,431,340,0,0,0,0,4,4,4,0005-00-0000-07.png,0001-00-0000-70.png
00000009,573,1,1450200082402,1450200083640,931,333,0,0,0,4,3,1,7,0001-00-0000-77.png,0002-00-0000-55.png
00000009,574,1,1450200084810,1450200085529,510,252,0,0,0,1,2,1,3,0004-00-0001-19.png,0003-00-0000-18.png
00000009,575,0,1450200086589,1450200087249,518,243,0,0,0,4,2,2,6,0001-00-0001-71.png,0003-00-0001-31.png
00000009,576,1,1450200090377,1450200090640,909,288,0,0,0,2,1,1,3,0003-00-0001-73.png,0004-00-0000-53.png
00000009,577,0,1450200091637,1450200092540,514,257,0,0,0,1,0,1,1,0004-00-0000-70.png,0005-00-0001-04.png
00000009,578,0,1450200095390,1450200095951,939,271,0,0,0,1,3,2,4,0004-00-0001-42.png,0002-00-0000-39.png
00000009,579,1,1450200098915,1450200099507,1015,292,0,0,0,3,2,1,5,0002-00-0001-62.png,0003-00-0001-04.png
00000009,580,1,1450200100478,1450200101610,486,270,0,0,0,0,3,3,3,0005-00-0000-75.png,0002-00-0000-16.png
00000009,581,1,1450200102575,1450200103284,1004,227,0,0,0,1,0,1,1,0004-00-0000-24.png,0005-00-0001-74.png
00000009,582,1,1450200104294,1450200105610,484,268,0,0,0,1,4,3,5,0004-00-0000-47.png,0001-00-0001-30.png
00000009,583,0,1450200106647,1450200107612,913,291,0,0,0,2,4,2,6,0003-00-0000-73.png,0001-00-0000-90.png
00000009,584,1,1450200110698,1450200110734,881,341,0,0,0,3,1,2,4,0002-00-0001-65.png,0004-00-0001-78.png
00000009,585,1,1450200111709,1450200112357,990,267,0,0,0,4,1,3,5,0001-00-0000-07.png,0004-00-0000-41.png
00000009,586,1,1450200113417,1450200114107,414,366,0,0,0,0,3,3,3,0005-00-0000-31.png,0002-00-0001-17.png
00000009,587,1,1450200115189,1450200115878,921,351,0,0,0,4,0,4,4,0001-00-0001-14.png,0005-00-0001-42.png
00000009,588,1,1450200116936,1450200117605,498,224,0,0,0,0,1,1,1,0005-00-0001-59.png,0004-00-0000-87.png
00000009,589,1,1450200118597,1450200119637,489,248,0,0,0,3,4,1,7,0002-00-0001-13.png,0001-00-0001-02.png
00000009,590,1,1450200120717,1450200121791,919,376,0,0,0,4,2,2,6,0001-00-0001-04.png,0003-00-0000-63.png
00000009,591,0,1450200122812,1450200123741,481,248,0,0,0,2,1,1,3,0003-00-0000-00.png,0004-00-0000-37.png
00000009,592,1,1450200126924,1450200126960,934,327,0,0,0,4,3,1,7,0001-00-0000-76.png,0002-00-0000-71.png
00000009,593,0,1450200127964,1450200128870,491,251,0,0,0,3,2,1,5,0002-00-0001-13.png,0003-00-0000-75.png
00000009,594,1,1450200131784,1450200132372,504,278,0,0,0,0,4,4,4,0005-00-0001-10.png,0001-00-0000-19.png
00000009,595,1,1450200133294,1450200134204,1009,286,0,0,0,3,0,3,3,0002-00-0000-13.png,0005-00-0001-16.png
00000009,596,1,1450200135238,1450200136052,456,403,0,0,0,1,3,2,4,0004-00-0001-35.png,0002-00-0000-50.png
00000009,597,0,1450200137043,1450200137925,913,316,0,0,0,2,3,1,5,0003-00-0001-90.png,0002-00-0001-91.png
00000009,598,1,1450200140845,1450200141399,430,384,0,0,0,1,2,1,3,0004-00-0001-72.png,0003-00-0001-22.png
00000009,599,1,1450200142346,1450200142362,510,511,0,0,0,0,2,2,2,0005-00-0000-24.png,0003-00-0001-57.png
00000009,600,1,1450200143465,1450200144332,932,368,0,0,0,2,0,2,2,0003-00-0000-56.png,0005-00-0001-01.png
00000009,601,1,1450200145284,1450200145943,517,241,0,0,0,0,3,3,3,0005-00-0001-88.png,0002-00-0000-44.png
00000009,602,1,1450200146933,1450200147732,913,306,0,0,0,3,0,3,3,0002-00-0001-43.png,0005-00-0001-30.png
00000009,603,1,1450200148707,1450200149367,944,295,0,0,0,2,0,2,2,0003-00-0001-10.png,0005-00-0001-68.png
00000009,604,1,1450200150382,1450200151196,519,246,0,0,0,2,3,1,5,0003-00-0001-78.png,0002-00-0000-45.png
00000009,605,1,1450200152199,1450200152975,518,304,0,0,0,0,4,4,4,0005-00-0000-82.png,0001-00-0001-74.png
00000009,606,1,1450200154069,1450200155026,513,247,0,0,0,2,4,2,6,0003-00-0000-58.png,0001-00-0001-51.png
00000009,607,1,1450200155969,1450200156833,921,305,0,0,0,4,0,4,4,0001-00-0000-90.png,0005-00-0001-85.png
00000009,608,1,1450200157845,1450200158836,907,340,0,0,0,4,3,1,7,0001-00-0001-61.png,0002-00-0000-88.png
00000009,609,1,1450200159891,1450200160864,509,289,0,0,0,1,4,3,5,0004-00-0001-72.png,0001-00-0000-81.png
00000009,610,1,1450200161814,1450200163015,490,236,0,0,0,1,3,2,4,0004-00-0001-13.png,0002-00-0000-58.png
00000009,611,0,1450200163957,1450200165193,916,313,0,0,0,3,4,1,7,0002-00-0001-14.png,0001-00-0000-81.png
00000009,612,1,1450200168361,1450200169622,957,339,0,0,0,4,1,3,5,0001-00-0000-16.png,0004-00-0001-98.png
00000009,613,1,1450200170638,1450200171425,427,353,0,0,0,1,2,1,3,0004-00-0000-47.png,0003-00-0001-58.png
00000009,614,0,1450200172414,1450200173136,493,241,0,0,0,1,0,1,1,0004-00-0000-55.png,0005-00-0001-54.png
00000009,615,1,1450200188860,1450200189104,873,417,0,0,0,2,1,1,3,0003-00-0000-70.png,0004-00-0001-97.png
00000009,616,1,1450200190225,1450200191138,492,251,0,0,0,0,2,2,2,0005-00-0000-83.png,0003-00-0001-27.png
00000009,617,0,1450200192117,1450200193205,486,231,0,0,0,4,2,2,6,0001-00-0001-03.png,0003-00-0000-18.png
00000009,618,1,1450200196332,1450200196893,892,346,0,0,0,3,1,2,4,0002-00-0001-80.png,0004-00-0000-18.png
00000009,619,1,1450200197819,1450200198799,484,241,0,0,0,0,1,1,1,0005-00-0000-29.png,0004-00-0000-87.png
00000009,620,0,1450200199689,1450200199749,520,546,0,0,0,3,2,1,5,0002-00-0000-71.png,0003-00-0001-92.png
00000009,621,1,1450200203188,1450200203838,435,387,0,0,0,0,4,4,4,0005-00-0001-07.png,0001-00-0000-66.png
00000009,622,0,1450200204787,1450200204811,497,565,0,0,0,4,3,1,7,0001-00-0001-95.png,0002-00-0000-65.png
00000009,623,1,1450200207765,1450200208458,481,260,0,0,0,3,4,1,7,0002-00-0001-70.png,0001-00-0000-51.png
00000009,624,1,1450200209395,1450200210196,981,237,0,0,0,4,1,3,5,0001-00-0001-69.png,0004-00-0001-32.png
00000009,625,1,1450200211093,1450200211944,493,236,0,0,0,2,3,1,5,0003-00-0000-93.png,0002-00-0000-07.png
00000009,626,1,1450200212940,1450200213788,1021,240,0,0,0,3,2,1,5,0002-00-0000-79.png,0003-00-0000-67.png
00000009,627,0,1450200214741,1450200215591,922,389,0,0,0,0,1,1,1,0005-00-0001-85.png,0004-00-0000-90.png
00000009,628,0,1450200218754,1450200219368,1016,273,0,0,0,2,4,2,6,0003-00-0000-11.png,0001-00-0001-49.png
00000009,629,1,1450200271087,1450200271696,440,261,0,0,0,0,3,3,3,0005-00-0001-24.png,0002-00-0001-47.png
00000009,630,0,1450200272608,1450200272624,505,520,0,0,0,3,1,2,4,0002-00-0000-41.png,0004-00-0001-16.png
00000009,631,1,1450200275817,1450200276449,913,345,0,0,0,2,0,2,2,0003-00-0001-05.png,0005-00-0000-13.png
00000009,632,0,1450200277325,1450200278181,923,337,0,0,0,1,2,1,3,0004-00-0000-74.png,0003-00-0000-33.png
00000009,633,1,1450200281305,1450200281955,503,269,0,0,0,1,3,2,4,0004-00-0000-08.png,0002-00-0001-90.png
00000009,634,1,1450200282923,1450200282955,497,509,0,0,0,0,2,2,2,0005-00-0001-02.png,0003-00-0000-43.png
00000009,635,1,1450200284025,1450200285146,900,316,0,0,0,4,0,4,4,0001-00-0000-41.png,0005-00-0001-08.png
00000009,636,0,1450200286123,1450200286925,993,241,0,0,0,1,4,3,5,0004-00-0000-77.png,0001-00-0001-32.png
00000009,637,1,1450200290060,1450200290565,913,358,0,0,0,1,0,1,1,0004-00-0001-38.png,0005-00-0000-73.png
00000009,638,1,1450200291462,1450200292285,908,298,0,0,0,3,0,3,3,0002-00-0001-19.png,0005-00-0001-53.png
00000009,639,1,1450200293267,1450200294327,944,382,0,0,0,4,2,2,6,0001-00-0000-24.png,0003-00-0000-69.png
00000009,640,1,1450200295254,1450200295959,913,316,0,0,0,2,1,1,3,0003-00-0000-04.png,0004-00-0000-84.png
00000009,641,1,1450200297103,1450200298585,1006,279,0,0,0,3,1,2,4,0002-00-0000-37.png,0004-00-0000-36.png
00000009,642,1,1450200299520,1450200300360,505,279,0,0,0,0,2,2,2,0005-00-0000-84.png,0003-00-0000-64.png
00000009,643,1,1450200301386,1450200302405,1023,253,0,0,0,4,2,2,6,0001-00-0001-17.png,0003-00-0001-66.png
00000009,644,1,1450200303437,1450200303465,891,388,0,0,0,1,0,1,1,0004-00-0000-94.png,0005-00-0000-45.png
00000009,645,1,1450200304700,1450200305396,516,276,0,0,0,0,4,4,4,0005-00-0000-13.png,0001-00-0001-00.png
00000009,646,1,1450200306383,1450200307583,510,261,0,0,0,3,4,1,7,0002-00-0001-87.png,0001-00-0000-45.png
00000009,647,1,1450200308531,1450200309373,929,384,0,0,0,4,3,1,7,0001-00-0001-80.png,0002-00-0000-58.png
00000009,648,1,1450200310408,1450200311490,492,240,0,0,0,2,4,2,6,0003-00-0001-86.png,0001-00-0001-98.png
00000009,649,1,1450200312488,1450200313443,502,266,0,0,0,1,2,1,3,0004-00-0000-17.png,0003-00-0001-29.png
00000009,650,1,1450200314402,1450200315200,945,374,0,0,0,4,1,3,5,0001-00-0000-07.png,0004-00-0000-21.png
00000009,651,1,1450200316106,1450200316928,990,348,0,0,0,4,0,4,4,0001-00-0001-05.png,0005-00-0000-73.png
00000009,652,1,1450200318529,1450200319054,497,282,0,0,0,1,3,2,4,0004-00-0001-70.png,0002-00-0000-87.png
00000009,653,1,1450200320048,1450200320889,924,315,0,0,0,3,0,3,3,0002-00-0000-55.png,0005-00-0001-85.png
00000009,654,1,1450200321978,1450200322735,499,247,0,0,0,0,1,1,1,0005-00-0000-08.png,0004-00-0000-64.png
00000009,655,1,1450200325964,1450200326137,953,245,0,0,0,2,1,1,3,0003-00-0000-79.png,0004-00-0001-94.png
00000009,656,1,1450200327172,1450200328037,913,306,0,0,0,2,0,2,2,0003-00-0000-85.png,0005-00-0000-08.png
00000009,657,0,1450200329003,1450200329031,863,424,0,0,0,2,3,1,5,0003-00-0001-50.png,0002-00-0001-41.png
00000009,658,1,1450200356254,1450200356799,1012,298,0,0,0,3,2,1,5,0002-00-0001-38.png,0003-00-0000-84.png
00000009,659,1,1450200357892,1450200357912,522,552,0,0,0,0,3,3,3,0005-00-0000-87.png,0002-00-0001-60.png
00000009,660,1,1450200358847,1450200359560,405,281,0,0,0,1,4,3,5,0004-00-0000-41.png,0001-00-0001-46.png
00000009,661,1,1450200360488,1450200361283,897,384,0,0,0,2,0,2,2,0003-00-0001-71.png,0005-00-0001-63.png
00000009,662,1,1450200362764,1450200363476,365,355,0,0,0,2,3,1,5,0003-00-0001-58.png,0002-00-0001-61.png
00000009,663,1,1450200364397,1450200365044,415,239,0,0,0,0,2,2,2,0005-00-0001-23.png,0003-00-0001-16.png
00000009,664,1,1450200365951,1450200366922,1016,242,0,0,0,1,0,1,1,0004-00-0001-91.png,0005-00-0000-26.png
00000009,665,1,1450200367798,1450200368553,390,325,0,0,0,1,2,1,3,0004-00-0001-77.png,0003-00-0000-85.png
00000009,666,1,1450200369720,1450200370410,459,233,0,0,0,0,3,3,3,0005-00-0000-01.png,0002-00-0000-75.png
00000009,667,0,1450200371318,1450200371338,507,531,0,0,0,4,2,2,6,0001-00-0001-99.png,0003-00-0001-40.png
00000009,668,1,1450200374537,1450200374557,858,300,0,0,0,4,0,4,4,0001-00-0001-00.png,0005-00-0000-92.png
00000009,669,1,1450200375524,1450200376190,495,235,0,0,0,1,4,3,5,0004-00-0000-99.png,0001-00-0000-41.png
00000009,670,1,1450200377183,1450200377956,982,273,0,0,0,4,3,1,7,0001-00-0001-67.png,0002-00-0001-31.png
00000009,671,1,1450200378913,1450200380224,480,240,0,0,0,3,4,1,7,0002-00-0001-16.png,0001-00-0000-49.png
00000009,672,1,1450200381164,1450200381896,494,260,0,0,0,0,1,1,1,0005-00-0000-32.png,0004-00-0001-10.png
00000009,673,1,1450200382846,1450200383702,931,331,0,0,0,3,0,3,3,0002-00-0000-01.png,0005-00-0001-11.png
00000009,674,0,1450200384616,1450200385456,924,421,0,0,0,1,3,2,4,0004-00-0001-33.png,0002-00-0000-00.png
00000009,675,1,1450200388607,1450200389165,1004,269,0,0,0,4,1,3,5,0001-00-0000-52.png,0004-00-0000-09.png
00000009,676,1,1450200390090,1450200390892,988,257,0,0,0,3,1,2,4,0002-00-0001-11.png,0004-00-0001-74.png
00000009,677,0,1450200391859,1450200393053,510,297,0,0,0,3,2,1,5,0002-00-0000-73.png,0003-00-0000-09.png
00000009,678,1,1450200396051,1450200396793,478,293,0,0,0,0,4,4,4,0005-00-0001-45.png,0001-00-0000-15.png
00000009,679,1,1450200397704,1450200398791,475,250,0,0,0,2,4,2,6,0003-00-0001-75.png,0001-00-0001-72.png
00000009,680,0,1450200399750,1450200400762,484,261,0,0,0,2,1,1,3,0003-00-0001-47.png,0004-00-0001-46.png
00000009,681,1,1450200404011,1450200404577,999,252,0,0,0,2,1,1,3,0003-00-0001-18.png,0004-00-0000-20.png
00000009,682,1,1450200405532,1450200406285,520,224,0,0,0,1,3,2,4,0004-00-0001-70.png,0002-00-0001-92.png
00000009,683,1,1450200407214,1450200408257,990,237,0,0,0,4,2,2,6,0001-00-0001-81.png,0003-00-0001-52.png
00000009,684,1,1450200409239,1450200410226,909,297,0,0,0,4,3,1,7,0001-00-0001-09.png,0002-00-0001-14.png
00000009,685,1,1450200411318,1450200412042,430,348,0,0,0,0,3,3,3,0005-00-0001-99.png,0002-00-0001-61.png
00000009,686,1,1450200412973,1450200413882,495,233,0,0,0,2,4,2,6,0003-00-0001-28.png,0001-00-0000-23.png
00000009,687,1,1450200414862,1450200415636,922,313,0,0,0,4,0,4,4,0001-00-0001-93.png,0005-00-0001-81.png
00000009,688,1,1450200416634,1450200417366,939,344,0,0,0,2,0,2,2,0003-00-0001-46.png,0005-00-0001-43.png
00000009,689,1,1450200418323,1450200419575,476,271,0,0,0,0,4,4,4,0005-00-0000-06.png,0001-00-0001-53.png
00000009,690,1,1450200420519,1450200421311,920,271,0,0,0,3,2,1,5,0002-00-0000-28.png,0003-00-0000-43.png
00000009,691,0,1450200422157,1450200423088,1029,244,0,0,0,1,2,1,3,0004-00-0000-24.png,0003-00-0000-40.png
00000009,692,1,1450200432703,1450200433215,944,428,0,0,0,3,0,3,3,0002-00-0001-30.png,0005-00-0000-73.png
00000009,693,1,1450200434182,1450200435118,933,380,0,0,0,1,0,1,1,0004-00-0001-08.png,0005-00-0000-02.png
00000009,694,1,1450200436088,1450200436785,488,240,0,0,0,3,4,1,7,0002-00-0001-72.png,0001-00-0000-65.png
00000009,695,1,1450200437796,1450200438621,944,372,0,0,0,4,1,3,5,0001-00-0001-87.png,0004-00-0000-71.png
00000009,696,0,1450200439698,1450200440835,990,272,0,0,0,2,3,1,5,0003-00-0000-85.png,0002-00-0001-36.png
00000009,697,0,1450200443921,1450200444057,899,279,0,0,0,1,4,3,5,0004-00-0000-76.png,0001-00-0000-17.png
00000009,698,1,1450200446948,1450200447106,865,465,0,0,0,3,1,2,4,0002-00-0000-86.png,0004-00-0001-73.png
00000009,699,1,1450200448114,1450200448866,490,248,0,0,0,0,1,1,1,0005-00-0001-81.png,0004-00-0000-69.png
00000009,700,0,1450200449819,1450200450813,935,329,0,0,0,0,2,2,2,0005-00-0000-24.png,0003-00-0000-34.png
00000009,701,1,1450200453992,1450200454533,478,410,0,0,0,0,3,3,3,0005-00-0000-87.png,0002-00-0000-95.png
00000009,702,1,1450200455442,1450200456249,514,244,0,0,0,1,3,2,4,0004-00-0001-12.png,0002-00-0001-75.png
00000009,703,1,1450200457189,1450200458244,891,321,0,0,0,4,3,1,7,0001-00-0001-21.png,0002-00-0000-47.png
00000009,704,1,1450200459119,1450200459844,919,323,0,0,0,4,0,4,4,0001-00-0001-75.png,0005-00-0001-73.png
00000009,705,1,1450200460811,1450200461699,892,283,0,0,0,1,0,1,1,0004-00-0001-58.png,0005-00-0000-92.png
00000009,706,0,1450200462681,1450200463510,510,259,0,0,0,4,2,2,6,0001-00-0000-65.png,0003-00-0001-29.png
00000009,707,0,1450200466633,1450200466693,862,292,0,0,0,0,2,2,2,0005-00-0001-08.png,0003-00-0001-49.png
00000009,708,1,1450200469867,1450200470521,913,410,0,0,0,3,0,3,3,0002-00-0001-69.png,0005-00-0000-54.png
00000009,709,1,1450200471444,1450200472452,1012,261,0,0,0,2,1,1,3,0003-00-0001-12.png,0004-00-0001-85.png
00000009,710,1,1450200473383,1450200474275,507,242,0,0,0,1,2,1,3,0004-00-0000-72.png,0003-00-0001-50.png
00000009,711,0,1450200475333,1450200476183,501,263,0,0,0,3,2,1,5,0002-00-0000-60.png,0003-00-0001-46.png
00000009,712,0,1450200479159,1450200479759,969,297,0,0,0,0,1,1,1,0005-00-0001-02.png,0004-00-0001-65.png
00000009,713,1,1450200482696,1450200482800,951,287,0,0,0,4,1,3,5,0001-00-0001-87.png,0004-00-0000-66.png
00000009,714,1,1450200483808,1450200484638,498,261,0,0,0,2,3,1,5,0003-00-0000-67.png,0002-00-0001-46.png
00000009,715,1,1450200485584,1450200486405,494,245,0,0,0,1,4,3,5,0004-00-0000-25.png,0001-00-0001-39.png
00000009,716,1,1450200488082,1450200488738,510,233,0,0,0,0,4,4,4,0005-00-0000-79.png,0001-00-0000-78.png
00000009,717,0,1450200489740,1450200489792,506,520,0,0,0,3,1,2,4,0002-00-0001-27.png,0004-00-0001-17.png
00000009,718,1,1450200493037,1450200493663,1035,269,0,0,0,2,0,2,2,0003-00-0001-30.png,0005-00-0001-72.png
00000009,719,0,1450200494547,1450200495476,925,280,0,0,0,3,4,1,7,0002-00-0001-45.png,0001-00-0001-23.png
00000009,720,1,1450200498624,1450200499529,501,300,0,0,0,2,4,2,6,0003-00-0001-99.png,0001-00-0001-19.png
00000009,721,1,1450200500409,1450200500417,511,508,0,0,0,0,3,3,3,0005-00-0000-21.png,0002-00-0000-09.png
00000009,722,1,1450200501456,1450200501544,512,518,0,0,0,1,4,3,5,0004-00-0001-06.png,0001-00-0001-95.png
00000009,723,1,1450200502618,1450200503620,508,238,0,0,0,2,3,1,5,0003-00-0001-99.png,0002-00-0000-66.png
00000009,724,0,1450200504597,1450200505602,880,314,0,0,0,3,4,1,7,0002-00-0001-28.png,0001-00-0000-99.png
00000009,725,0,1450200508745,1450200508879,864,291,0,0,0,1,3,2,4,0004-00-0000-37.png,0002-00-0001-97.png
00000009,726,1,1450200517729,1450200517755,874,364,0,0,0,2,1,1,3,0003-00-0001-17.png,0004-00-0000-01.png
00000009,727,1,1450200518954,1450200519767,456,265,0,0,0,2,4,2,6,0003-00-0001-27.png,0001-00-0000-89.png
00000009,728,1,1450200520733,1450200521685,979,279,0,0,0,4,1,3,5,0001-00-0001-93.png,0004-00-0000-74.png
00000009,729,1,1450200522740,1450200523473,478,261,0,0,0,0,2,2,2,0005-00-0001-22.png,0003-00-0000-17.png
00000009,730,1,1450200524320,1450200525312,984,272,0,0,0,3,0,3,3,0002-00-0001-81.png,0005-00-0000-33.png
00000009,731,1,1450200526266,1450200526958,468,226,0,0,0,1,2,1,3,0004-00-0000-24.png,0003-00-0000-73.png
00000009,732,1,1450200527985,1450200528881,1004,253,0,0,0,3,2,1,5,0002-00-0000-50.png,0003-00-0001-75.png
00000009,733,1,1450200529763,1450200530857,919,296,0,0,0,3,1,2,4,0002-00-0001-86.png,0004-00-0000-61.png
00000009,734,1,1450200531888,1450200533106,453,279,0,0,0,0,4,4,4,0005-00-0001-15.png,0001-00-0000-07.png
00000009,735,1,1450200538094,1450200538220,957,248,0,0,0,1,0,1,1,0004-00-0000-45.png,0005-00-0001-89.png
00000009,736,1,1450200539216,1450200540085,909,325,0,0,0,4,2,2,6,0001-00-0000-33.png,0003-00-0000-88.png
00000009,737,0,1450200541024,1450200541720,410,322,0,0,0,4,3,1,7,0001-00-0000-21.png,0002-00-0000-05.png
00000009,738,1,1450200556121,1450200556624,990,306,0,0,0,2,0,2,2,0003-00-0001-49.png,0005-00-0001-98.png
00000009,739,1,1450200557708,1450200558413,466,222,0,0,0,0,1,1,1,0005-00-0000-22.png,0004-00-0001-79.png
00000009,740,1,1450200559370,1450200560133,922,358,0,0,0,4,0,4,4,0001-00-0000-31.png,0005-00-0001-20.png
00000009,741,1,1450200561078,1450200561876,939,367,0,0,0,4,2,2,6,0001-00-0000-34.png,0003-00-0001-27.png
00000009,742,0,1450200562715,1450200563527,435,373,0,0,0,2,0,2,2,0003-00-0000-65.png,0005-00-0000-54.png
00000009,743,1,1450200566700,1450200567360,481,255,0,0,0,0,3,3,3,0005-00-0000-02.png,0002-00-0001-65.png
00000009,744,1,1450200568321,1450200569042,916,385,0,0,0,2,1,1,3,0003-00-0000-80.png,0004-00-0001-00.png
00000009,745,1,1450200569871,1450200570829,466,358,0,0,0,2,4,2,6,0003-00-0001-86.png,0001-00-0000-63.png
00000009,746,1,1450200571709,1450200573059,350,353,0,0,0,0,1,1,1,0005-00-0000-12.png,0004-00-0001-33.png
00000009,747,0,1450200574027,1450200574749,916,365,0,0,0,1,4,3,5,0004-00-0000-08.png,0001-00-0001-46.png
00000009,748,0,1450200577601,1450200578353,904,329,0,0,0,3,4,1,7,0002-00-0001-96.png,0001-00-0000-17.png
00000009,749,0,1450200581465,1450200582005,396,378,0,0,0,3,2,1,5,0002-00-0001-32.png,0003-00-0000-03.png
00000009,750,1,1450200584959,1450200585449,913,323,0,0,0,3,0,3,3,0002-00-0000-81.png,0005-00-0001-65.png
00000009,751,1,1450200586328,1450200587095,477,239,0,0,0,0,2,2,2,0005-00-0000-80.png,0003-00-0001-25.png
00000009,752,0,1450200587977,1450200588921,913,345,0,0,0,1,2,1,3,0004-00-0000-81.png,0003-00-0000-43.png
00000009,753,1,1450200591980,1450200592620,915,322,0,0,0,4,3,1,7,0001-00-0001-26.png,0002-00-0000-21.png
00000009,754,0,1450200593570,1450200594346,506,245,0,0,0,3,1,2,4,0002-00-0001-72.png,0004-00-0000-35.png
00000009,755,0,1450200597530,1450200597755,912,327,0,0,0,0,4,4,4,0005-00-0000-05.png,0001-00-0000-67.png
00000009,756,1,1450200630751,1450200632626,1016,274,0,0,0,4,1,3,5,0001-00-0000-56.png,0004-00-0000-71.png
00000009,757,0,1450200633526,1450200634327,1006,253,0,0,0,1,3,2,4,0004-00-0000-63.png,0002-00-0001-33.png
00000009,758,1,1450200637658,1450200638184,457,288,0,0,0,2,3,1,5,0003-00-0000-14.png,0002-00-0001-15.png
00000009,759,0,1450200639124,1450200639987,494,260,0,0,0,1,0,1,1,0004-00-0000-95.png,0005-00-0001-72.png
00000009,760,1,1450200643135,1450200643618,995,261,0,0,0,4,0,4,4,0001-00-0001-22.png,0005-00-0001-73.png
00000009,761,1,1450200644975,1450200645718,1016,264,0,0,0,3,0,3,3,0002-00-0000-70.png,0005-00-0001-35.png
00000009,762,1,1450200646572,1450200647297,931,312,0,0,0,3,1,2,4,0002-00-0001-15.png,0004-00-0001-77.png
00000009,763,1,1450200648271,1450200649151,922,332,0,0,0,4,2,2,6,0001-00-0001-14.png,0003-00-0001-00.png
00000009,764,0,1450200650110,1450200650908,897,307,0,0,0,0,2,2,2,0005-00-0000-53.png,0003-00-0001-21.png
00000009,765,0,1450200660240,1450200660825,888,394,0,0,0,0,1,1,1,0005-00-0001-34.png,0004-00-0000-31.png
00000009,766,1,1450200663955,1450200664551,894,325,0,0,0,3,2,1,5,0002-00-0000-14.png,0003-00-0001-53.png
00000009,767,1,1450200665425,1450200666120,888,279,0,0,0,4,0,4,4,0001-00-0000-90.png,0005-00-0000-66.png
00000009,768,1,1450200667047,1450200667122,862,452,0,0,0,4,3,1,7,0001-00-0000-28.png,0002-00-0001-30.png
00000009,769,1,1450200668148,1450200669157,888,367,0,0,0,4,1,3,5,0001-00-0001-05.png,0004-00-0001-80.png
00000009,770,1,1450200670155,1450200670875,478,265,0,0,0,2,3,1,5,0003-00-0000-68.png,0002-00-0000-36.png
00000009,771,0,1450200671787,1450200672492,492,239,0,0,0,1,0,1,1,0004-00-0000-79.png,0005-00-0000-29.png
00000009,772,1,1450200675602,1450200676208,494,260,0,0,0,1,4,3,5,0004-00-0000-05.png,0001-00-0000-64.png
00000009,773,0,1450200677111,1450200677868,913,319,0,0,0,3,4,1,7,0002-00-0000-37.png,0001-00-0001-44.png
00000009,774,1,1450200680988,1450200681740,459,280,0,0,0,2,4,2,6,0003-00-0000-75.png,0001-00-0001-42.png
00000009,775,0,1450200682638,1450200683314,900,374,0,0,0,0,4,4,4,0005-00-0000-83.png,0001-00-0001-28.png
00000009,776,1,1450200686244,1450200686732,470,255,0,0,0,1,3,2,4,0004-00-0001-60.png,0002-00-0001-54.png
00000009,777,1,1450200687607,1450200688349,434,375,0,0,0,1,2,1,3,0004-00-0000-69.png,0003-00-0000-92.png
00000009,778,1,1450200689318,1450200690075,512,260,0,0,0,0,3,3,3,0005-00-0000-34.png,0002-00-0000-65.png
00000009,779,0,1450200690997,1450200691847,493,242,0,0,0,2,1,1,3,0003-00-0000-02.png,0004-00-0000-51.png
00000009,780,1,1450200697286,1450200697553,904,285,0,0,0,2,0,2,2,0003-00-0001-44.png,0005-00-0000-06.png
00000009,781,0,1450200698550,1450200699532,879,324,0,0,0,3,4,1,7,0002-00-0000-89.png,0001-00-0000-77.png
00000009,782,0,1450200702711,1450200703312,948,400,0,0,0,2,3,1,5,0003-00-0001-09.png,0002-00-0001-35.png
00000009,783,0,1450200714754,1450200715260,472,262,0,0,0,3,2,1,5,0002-00-0000-15.png,0003-00-0000-13.png
00000009,784,1,1450200718479,1450200718571,911,289,0,0,0,2,1,1,3,0003-00-0001-81.png,0004-00-0001-52.png
00000009,785,1,1450200719524,1450200720236,440,270,0,0,0,2,4,2,6,0003-00-0001-16.png,0001-00-0001-11.png
00000009,786,1,1450200721190,1450200721991,939,296,0,0,0,1,0,1,1,0004-00-0000-70.png,0005-00-0000-48.png
00000009,787,1,1450200722889,1450200722961,862,405,0,0,0,2,0,2,2,0003-00-0001-05.png,0005-00-0000-58.png
00000009,788,1,1450200723976,1450200724800,483,235,0,0,0,1,2,1,3,0004-00-0001-87.png,0003-00-0000-29.png
00000009,789,1,1450200725715,1450200726504,997,246,0,0,0,4,3,1,7,0001-00-0001-73.png,0002-00-0000-09.png
00000009,790,1,1450200727450,1450200728136,401,318,0,0,0,0,4,4,4,0005-00-0000-64.png,0001-00-0001-94.png
00000009,791,1,1450200729109,1450200729121,514,496,0,0,0,0,3,3,3,0005-00-0001-29.png,0002-00-0001-86.png
00000009,792,1,1450200730153,1450200730879,912,389,0,0,0,4,0,4,4,0001-00-0000-58.png,0005-00-0001-65.png
00000009,793,1,1450200731873,1450200732667,1022,219,0,0,0,4,2,2,6,0001-00-0001-36.png,0003-00-0001-67.png
00000009,794,1,1450200733621,1450200734536,467,254,0,0,0,1,3,2,4,0004-00-0000-60.png,0002-00-0000-27.png
00000009,795,1,1450200735462,1450200736512,463,275,0,0,0,1,4,3,5,0004-00-0000-87.png,0001-00-0000-57.png
00000009,796,1,1450200737417,1450200738086,464,254,0,0,0,0,1,1,1,0005-00-0000-62.png,0004-00-0001-65.png
00000009,797,0,1450200739149,1450200739161,521,535,0,0,0,4,1,3,5,0001-00-0001-54.png,0004-00-0000-28.png
00000009,798,1,1450200747541,1450200748299,461,270,0,0,0,0,2,2,2,0005-00-0000-48.png,0003-00-0001-38.png
00000009,799,0,1450200749328,1450200750290,489,251,0,0,0,3,1,2,4,0002-00-0000-89.png,0004-00-0000-24.png
00000009,800,1,1450200753389,1450200753879,1016,279,0,0,0,3,0,3,3,0002-00-0000-94.png,0005-00-0001-98.png
00000009,801,1,1450200754825,1450200755584,486,258,0,0,0,1,4,3,5,0004-00-0000-88.png,0001-00-0000-52.png
00000009,802,0,1450200756499,1450200757199,990,279,0,0,0,1,2,1,3,0004-00-0000-86.png,0003-00-0000-87.png
00000009,803,1,1450200760404,1450200760971,939,410,0,0,0,2,0,2,2,0003-00-0000-27.png,0005-00-0000-67.png
00000009,804,1,1450200761894,1450200762708,896,323,0,0,0,4,2,2,6,0001-00-0000-24.png,0003-00-0001-83.png
00000009,805,0,1450200763744,1450200764812,409,348,0,0,0,4,3,1,7,0001-00-0001-44.png,0002-00-0000-32.png
00000009,806,1,1450200782222,1450200782715,1000,266,0,0,0,3,1,2,4,0002-00-0000-58.png,0004-00-0001-48.png
00000009,807,0,1450200783854,1450200784462,484,252,0,0,0,2,1,1,3,0003-00-0001-57.png,0004-00-0001-42.png
00000009,808,1,1450200787658,1450200788202,463,261,0,0,0,1,3,2,4,0004-00-0001-47.png,0002-00-0000-66.png
00000009,809,1,1450200789159,1450200790004,917,328,0,0,0,1,0,1,1,0004-00-0000-88.png,0005-00-0000-76.png
00000009,810,1,1450200790910,1450200791612,468,240,0,0,0,0,4,4,4,0005-00-0001-98.png,0001-00-0001-09.png
00000009,811,0,1450200792611,1450200792659,514,514,0,0,0,4,0,4,4,0001-00-0000-06.png,0005-00-0000-16.png
00000009,812,1,1450200795776,1450200796367,478,276,0,0,0,0,2,2,2,0005-00-0001-85.png,0003-00-0001-35.png
00000009,813,1,1450200797319,1450200797960,477,260,0,0,0,0,3,3,3,0005-00-0000-37.png,0002-00-0000-51.png
00000009,814,0,1450200798837,1450200798861,519,503,0,0,0,4,1,3,5,0001-00-0000-56.png,0004-00-0001-92.png
00000009,815,0,1450200801972,1450200802075,976,272,0,0,0,0,1,1,1,0005-00-0000-44.png,0004-00-0000-66.png
00000009,816,1,1450200805328,1450200805859,1010,280,0,0,0,3,0,3,3,0002-00-0000-73.png,0005-00-0001-08.png
00000009,817,0,1450200806735,1450200807532,990,266,0,0,0,3,4,1,7,0002-00-0001-06.png,0001-00-0001-01.png
00000009,818,1,1450200810845,1450200811456,462,275,0,0,0,2,3,1,5,0003-00-0000-84.png,0002-00-0001-03.png
00000009,819,1,1450200812363,1450200813388,945,314,0,0,0,3,2,1,5,0002-00-0001-10.png,0003-00-0000-21.png
00000009,820,1,1450200814294,1450200815085,473,279,0,0,0,2,4,2,6,0003-00-0000-46.png,0001-00-0001-29.png
00000009,821,1,1450200816110,1450200817165,932,313,0,0,0,4,2,2,6,0001-00-0001-53.png,0003-00-0000-45.png
00000009,822,1,1450200818280,1450200818977,932,288,0,0,0,2,0,2,2,0003-00-0001-75.png,0005-00-0000-72.png
00000009,823,1,1450200819960,1450200820688,392,339,0,0,0,0,1,1,1,0005-00-0001-31.png,0004-00-0001-58.png
00000009,824,1,1450200821595,1450200822474,518,285,0,0,0,1,4,3,5,0004-00-0001-94.png,0001-00-0001-98.png
00000009,825,1,1450200823553,1450200824366,474,242,0,0,0,2,4,2,6,0003-00-0000-43.png,0001-00-0000-14.png
00000009,826,1,1450200825393,1450200826118,915,311,0,0,0,3,1,2,4,0002-00-0001-19.png,0004-00-0001-06.png
00000009,827,1,1450200827220,1450200828324,894,321,0,0,0,4,3,1,7,0001-00-0000-27.png,0002-00-0000-90.png
00000009,828,1,1450200829365,1450200830408,933,294,0,0,0,1,0,1,1,0004-00-0001-31.png,0005-00-0000-35.png
00000009,829,1,1450200831464,1450200832370,904,287,0,0,0,4,0,4,4,0001-00-0000-09.png,0005-00-0001-65.png
00000009,830,1,1450200833301,1450200834231,438,267,0,0,0,3,4,1,7,0002-00-0000-68.png,0001-00-0000-91.png
00000009,831,1,1450200835239,1450200836175,932,287,0,0,0,3,0,3,3,0002-00-0000-47.png,0005-00-0001-28.png
00000009,832,1,1450200837203,1450200838060,1031,253,0,0,0,4,1,3,5,0001-00-0001-02.png,0004-00-0001-75.png
00000009,833,1,1450200839034,1450200839670,504,222,0,0,0,0,3,3,3,0005-00-0001-89.png,0002-00-0000-71.png
00000009,834,1,1450200840674,1450200841765,516,240,0,0,0,2,3,1,5,0003-00-0001-64.png,0002-00-0000-74.png
00000009,835,1,1450200842743,1450200843493,927,330,0,0,0,2,1,1,3,0003-00-0000-52.png,0004-00-0000-04.png
00000009,836,1,1450200844567,1450200845267,488,224,0,0,0,0,4,4,4,0005-00-0001-22.png,0001-00-0000-80.png
00000009,837,1,1450200846250,1450200847105,900,267,0,0,0,3,2,1,5,0002-00-0000-73.png,0003-00-0000-16.png
00000009,838,1,1450200848126,1450200849853,491,245,0,0,0,0,2,2,2,0005-00-0001-10.png,0003-00-0001-08.png
00000009,839,0,1450200850832,1450200851930,918,282,0,0,0,1,3,2,4,0004-00-0001-35.png,0002-00-0001-35.png
00000009,840,0,1450200855112,1450200855830,913,348,0,0,0,1,2,1,3,0004-00-0000-17.png,0003-00-0000-86.png
00000009,841,0,1450200858973,1450200859494,938,294,0,0,0,3,4,1,7,0002-00-0000-46.png,0001-00-0000-16.png
00000009,842,1,1450200866069,1450200866612,468,279,0,0,0,0,3,3,3,0005-00-0000-10.png,0002-00-0000-84.png
00000009,843,0,1450200867749,1450200867765,519,526,0,0,0,2,1,1,3,0003-00-0001-14.png,0004-00-0001-12.png
00000009,844,1,1450200871136,1450200871682,979,264,0,0,0,1,0,1,1,0004-00-0000-74.png,0005-00-0001-06.png
00000009,845,1,1450200872617,1450200873520,995,245,0,0,0,3,2,1,5,0002-00-0001-54.png,0003-00-0001-61.png
00000009,846,0,1450200874565,1450200875395,990,265,0,0,0,2,3,1,5,0003-00-0000-24.png,0002-00-0001-35.png
00000009,847,1,1450200878482,1450200879020,1001,279,0,0,0,4,0,4,4,0001-00-0001-03.png,0005-00-0000-11.png
00000009,848,1,1450200879954,1450200880636,1022,234,0,0,0,3,0,3,3,0002-00-0001-40.png,0005-00-0001-22.png
00000009,849,0,1450200881610,1450200882748,410,311,0,0,0,3,1,2,4,0002-00-0000-55.png,0004-00-0000-36.png
00000009,850,1,1450200886059,1450200886540,1017,247,0,0,0,4,1,3,5,0001-00-0001-64.png,0004-00-0001-22.png
00000009,851,1,1450200887521,1450200888233,913,374,0,0,0,4,2,2,6,0001-00-0000-65.png,0003-00-0001-38.png
00000009,852,1,1450200889351,1450200890272,986,251,0,0,0,2,0,2,2,0003-00-0001-27.png,0005-00-0000-64.png
00000009,853,1,1450200891298,1450200892051,472,233,0,0,0,1,2,1,3,0004-00-0001-39.png,0003-00-0001-75.png
00000009,854,1,1450200893037,1450200893057,521,446,0,0,0,0,2,2,2,0005-00-0001-46.png,0003-00-0001-99.png
00000009,855,1,1450200894180,1450200895008,473,234,0,0,0,1,3,2,4,0004-00-0001-46.png,0002-00-0001-98.png
00000009,856,1,1450200896068,1450200897092,460,240,0,0,0,0,1,1,1,0005-00-0000-11.png,0004-00-0000-92.png
00000009,857,0,1450200898072,1450200898096,509,473,0,0,0,4,3,1,7,0001-00-0000-34.png,0002-00-0001-75.png
00000009,858,1,1450200901053,1450200901099,522,471,0,0,0,0,4,4,4,0005-00-0000-62.png,0001-00-0000-89.png
00000009,859,1,1450200902151,1450200902744,484,243,0,0,0,1,4,3,5,0004-00-0000-76.png,0001-00-0001-82.png
00000009,860,1,1450200903786,1450200904578,488,264,0,0,0,2,4,2,6,0003-00-0001-82.png,0001-00-0000-43.png
00000009,861,1,1450200905676,1450200906382,475,271,0,0,0,1,4,3,5,0004-00-0001-35.png,0001-00-0001-21.png
00000009,862,1,1450200907399,1450200908351,473,253,0,0,0,0,3,3,3,0005-00-0001-09.png,0002-00-0001-75.png
00000009,863,1,1450200909314,1450200909989,423,415,0,0,0,1,3,2,4,0004-00-0001-34.png,0002-00-0000-24.png
00000009,864,1,1450200911053,1450200912018,922,376,0,0,0,3,0,3,3,0002-00-0000-07.png,0005-00-0001-05.png
00000009,865,1,1450200913065,1450200914014,900,282,0,0,0,4,0,4,4,0001-00-0001-68.png,0005-00-0000-44.png
00000009,866,0,1450200914899,1450200914947,872,459,0,0,0,0,4,4,4,0005-00-0001-22.png,0001-00-0001-54.png
00000009,867,1,1450200918001,1450200919856,465,266,0,0,0,3,4,1,7,0002-00-0000-06.png,0001-00-0001-95.png
00000009,868,1,1450200920942,1450200921726,467,251,0,0,0,0,2,2,2,0005-00-0001-06.png,0003-00-0000-34.png
00000009,869,1,1450200922778,1450200923852,906,288,0,0,0,3,2,1,5,0002-00-0001-33.png,0003-00-0001-13.png
00000009,870,1,1450200924808,1450200925818,497,234,0,0,0,2,3,1,5,0003-00-0000-28.png,0002-00-0001-13.png
00000009,871,1,1450200926816,1450200927785,913,266,0,0,0,4,1,3,5,0001-00-0000-48.png,0004-00-0000-64.png
00000009,872,1,1450200928833,1450200929864,469,392,0,0,0,2,4,2,6,0003-00-0001-64.png,0001-00-0000-58.png
00000009,873,1,1450200930959,1450200931881,952,280,0,0,0,1,0,1,1,0004-00-0001-18.png,0005-00-0001-09.png
00000009,874,1,1450200932855,1450200933663,519,227,0,0,0,0,1,1,1,0005-00-0001-03.png,0004-00-0001-75.png
00000009,875,0,1450200934834,1450200934890,520,470,0,0,0,3,1,2,4,0002-00-0000-42.png,0004-00-0000-31.png
00000009,876,1,1450200937806,1450200938481,382,361,0,0,0,1,2,1,3,0004-00-0000-21.png,0003-00-0000-78.png
00000009,877,1,1450200939456,1450200940086,1016,239,0,0,0,2,0,2,2,0003-00-0000-32.png,0005-00-0000-06.png
00000009,878,1,1450200941004,1450200942176,939,294,0,0,0,4,2,2,6,0001-00-0000-65.png,0003-00-0000-97.png
00000009,879,0,1450200943359,1450200944255,512,260,0,0,0,2,1,1,3,0003-00-0001-48.png,0004-00-0001-15.png
00000009,880,1,1450200970518,1450200971085,981,265,0,0,0,4,3,1,7,0001-00-0001-20.png,0002-00-0001-28.png
00000009,881,1,1450200972209,1450200972405,858,536,0,0,0,4,2,2,6,0001-00-0001-93.png,0003-00-0000-87.png
00000009,882,0,1450200973501,1450200973517,500,505,0,0,0,2,0,2,2,0003-00-0001-60.png,0005-00-0001-02.png
00000009,883,0,1450200976896,1450200976966,903,307,0,0,0,1,4,3,5,0004-00-0000-19.png,0001-00-0000-78.png
00000009,884,1,1450200980458,1450200981131,990,227,0,0,0,1,0,1,1,0004-00-0001-33.png,0005-00-0001-52.png
00000009,885,1,1450200982016,1450200982725,473,242,0,0,0,1,3,2,4,0004-00-0001-89.png,0002-00-0001-74.png
00000009,886,1,1450200983667,1450200984361,911,331,0,0,0,3,0,3,3,0002-00-0001-96.png,0005-00-0000-46.png
00000009,887,1,1450200985251,1450200986073,1009,234,0,0,0,4,1,3,5,0001-00-0001-16.png,0004-00-0000-25.png
00000009,888,1,1450200987120,1450200987972,495,259,0,0,0,0,3,3,3,0005-00-0001-52.png,0002-00-0000-72.png
00000009,889,1,1450200988910,1450200988951,522,433,0,0,0,2,3,1,5,0003-00-0001-17.png,0002-00-0001-24.png
00000009,890,1,1450200990038,1450200990984,464,249,0,0,0,2,4,2,6,0003-00-0001-58.png,0001-00-0000-99.png
00000009,891,1,1450200992072,1450200993038,913,374,0,0,0,3,2,1,5,0002-00-0000-31.png,0003-00-0001-37.png
00000009,892,1,1450200993993,1450200994730,488,246,0,0,0,0,4,4,4,0005-00-0000-47.png,0001-00-0001-37.png
00000009,893,1,1450200995682,1450200996714,893,289,0,0,0,3,1,2,4,0002-00-0001-77.png,0004-00-0000-55.png
00000009,894,1,1450200997710,1450200998451,913,318,0,0,0,4,0,4,4,0001-00-0001-68.png,0005-00-0000-75.png
00000009,895,1,1450200999477,1450201000152,477,259,0,0,0,1,2,1,3,0004-00-0000-21.png,0003-00-0000-77.png
00000009,896,1,1450201001165,1450201001909,423,343,0,0,0,0,1,1,1,0005-00-0000-19.png,0004-00-0001-81.png
00000009,897,1,1450201003044,1450201004109,1007,253,0,0,0,4,3,1,7,0001-00-0001-14.png,0002-00-0000-11.png
00000009,898,1,1450201005160,1450201006025,929,295,0,0,0,2,1,1,3,0003-00-0000-34.png,0004-00-0001-12.png
00000009,899,1,1450201006929,1450201008140,418,340,0,0,0,0,2,2,2,0005-00-0001-93.png,0003-00-0000-43.png
00000009,900,0,1450201009196,1450201009212,858,435,0,0,0,3,4,1,7,0002-00-0001-91.png,0001-00-0001-01.png
00000009,901,0,1450201012387,1450201013053,486,260,0,0,0,2,1,1,3,0003-00-0001-72.png,0004-00-0000-89.png
00000009,902,0,1450201016172,1450201017012,471,392,0,0,0,4,3,1,7,0001-00-0001-69.png,0002-00-0000-23.png
00000009,903,1,1450201019907,1450201020581,1017,271,0,0,0,3,2,1,5,0002-00-0000-31.png,0003-00-0000-88.png
00000009,904,1,1450201021579,1450201022441,510,245,0,0,0,1,4,3,5,0004-00-0000-76.png,0001-00-0000-05.png
00000009,905,0,1450201023386,1450201023412,521,461,0,0,0,4,1,3,5,0001-00-0000-99.png,0004-00-0001-94.png
00000009,906,1,1450201026475,1450201026691,939,346,0,0,0,4,0,4,4,0001-00-0001-74.png,0005-00-0000-87.png
00000009,907,1,1450201027743,1450201028382,469,238,0,0,0,0,3,3,3,0005-00-0000-61.png,0002-00-0001-96.png
00000009,908,1,1450201029268,1450201030067,505,238,0,0,0,1,3,2,4,0004-00-0000-42.png,0002-00-0000-95.png
00000009,909,1,1450201031097,1450201031938,924,316,0,0,0,1,0,1,1,0004-00-0001-27.png,0005-00-0001-59.png
00000009,910,1,1450201032870,1450201033830,424,346,0,0,0,2,3,1,5,0003-00-0000-83.png,0002-00-0001-71.png
00000009,911,1,1450201034874,1450201035574,1023,235,0,0,0,2,0,2,2,0003-00-0000-22.png,0005-00-0000-02.png
00000009,912,0,1450201036563,1450201037561,475,245,0,0,0,3,1,2,4,0002-00-0000-37.png,0004-00-0001-18.png
00000009,913,1,1450201040518,1450201041148,490,239,0,0,0,0,4,4,4,0005-00-0001-58.png,0001-00-0000-64.png
00000009,914,1,1450201042106,1450201042938,401,306,0,0,0,1,2,1,3,0004-00-0000-83.png,0003-00-0001-32.png
00000009,915,1,1450201043953,1450201044576,1035,234,0,0,0,3,0,3,3,0002-00-0001-44.png,0005-00-0000-79.png
00000009,916,1,1450201045739,1450201046547,504,242,0,0,0,0,1,1,1,0005-00-0000-66.png,0004-00-0000-95.png
00000009,917,0,1450201047551,1450201048603,1132,358,0,0,0,3,4,1,7,0002-00-0001-86.png,0001-00-0001-16.png
00000009,918,1,1450201051845,1450201052479,410,352,0,0,0,0,2,2,2,0005-00-0001-44.png,0003-00-0000-53.png
00000009,919,1,1450201053477,1450201054263,902,307,0,0,0,4,2,2,6,0001-00-0000-81.png,0003-00-0001-86.png
00000009,920,1,1450201055372,1450201056123,393,314,0,0,0,2,4,2,6,0003-00-0000-71.png,0001-00-0000-85.png
00000009,921,1,1450201057162,1450201057985,925,366,0,0,0,4,3,1,7,0001-00-0000-73.png,0002-00-0000-50.png
00000009,922,1,1450201059045,1450201059922,1008,247,0,0,0,3,2,1,5,0002-00-0000-82.png,0003-00-0000-19.png
00000009,923,0,1450201060967,1450201061654,477,248,0,0,0,1,0,1,1,0004-00-0000-85.png,0005-00-0000-16.png
00000009,924,0,1450201065120,1450201065637,921,324,0,0,0,2,4,2,6,0003-00-0001-91.png,0001-00-0001-22.png
00000009,925,1,1450201116057,1450201116581,911,329,0,0,0,2,0,2,2,0003-00-0001-20.png,0005-00-0001-70.png
00000009,926,1,1450201117884,1450201117991,964,462,0,0,0,3,1,2,4,0002-00-0001-40.png,0004-00-0000-73.png
00000009,927,1,1450201119307,1450201119908,1023,286,0,0,0,3,0,3,3,0002-00-0001-43.png,0005-00-0001-14.png
00000009,928,0,1450201121253,1450201122263,1041,296,0,0,0,2,3,1,5,0003-00-0000-11.png,0002-00-0000-96.png
00000009,929,1,1450201182433,1450201182925,1016,279,0,0,0,4,0,4,4,0001-00-0001-16.png,0005-00-0000-95.png
00000009,930,0,1450201184026,1450201185067,1008,270,0,0,0,3,4,1,7,0002-00-0000-93.png,0001-00-0000-36.png
00000009,931,1,1450201188217,1450201188807,439,253,0,0,0,0,3,3,3,0005-00-0001-52.png,0002-00-0001-65.png
00000009,932,1,1450201189771,1450201190587,997,261,0,0,0,4,1,3,5,0001-00-0001-82.png,0004-00-0001-85.png
00000009,933,1,1450201191521,1450201192703,479,249,0,0,0,1,3,2,4,0004-00-0000-84.png,0002-00-0000-70.png
00000009,934,1,1450201193737,1450201194492,478,237,0,0,0,1,2,1,3,0004-00-0000-11.png,0003-00-0000-33.png
00000009,935,1,1450201195466,1450201196201,888,318,0,0,0,2,1,1,3,0003-00-0000-48.png,0004-00-0001-35.png
00000009,936,1,1450201197281,1450201198118,480,248,0,0,0,1,4,3,5,0004-00-0001-62.png,0001-00-0001-96.png
00000009,937,1,1450201199160,1450201199773,485,269,0,0,0,0,4,4,4,0005-00-0000-07.png,0001-00-0001-64.png
00000009,938,1,1450201200771,1450201201544,444,260,0,0,0,0,2,2,2,0005-00-0001-31.png,0003-00-0001-24.png
00000009,939,0,1450201202526,1450201202573,465,514,0,0,0,4,2,2,6,0001-00-0000-17.png,0003-00-0001-53.png
00000009,940,0,1450201205451,1450201205463,862,384,0,0,0,0,1,1,1,0005-00-0000-36.png,0004-00-0000-14.png
00000009,941,1,1450201208333,1450201208428,990,293,0,0,0,4,2,2,6,0001-00-0000-51.png,0003-00-0000-15.png
00000009,942,1,1450201209387,1450201210108,1009,278,0,0,0,3,0,3,3,0002-00-0001-98.png,0005-00-0000-96.png
00000009,943,1,1450201211171,1450201211878,1027,286,0,0,0,2,0,2,2,0003-00-0001-11.png,0005-00-0001-12.png
00000009,944,0,1450201212962,1450201213855,939,367,0,0,0,0,1,1,1,0005-00-0001-98.png,0004-00-0001-14.png
00000009,945,0,1450201216847,1450201216930,877,343,0,0,0,1,3,2,4,0004-00-0001-14.png,0002-00-0000-12.png
00000009,946,1,1450201242875,1450201243423,888,374,0,0,0,2,1,1,3,0003-00-0000-74.png,0004-00-0001-99.png
00000009,947,1,1450201244526,1450201245300,495,247,0,0,0,0,3,3,3,0005-00-0000-95.png,0002-00-0001-06.png
00000009,948,1,1450201246338,1450201247435,482,271,0,0,0,2,3,1,5,0003-00-0000-87.png,0002-00-0000-96.png
00000009,949,1,1450201248375,1450201249099,471,260,0,0,0,1,4,3,5,0004-00-0000-97.png,0001-00-0000-29.png
00000009,950,1,1450201250114,1450201251036,485,260,0,0,0,2,4,2,6,0003-00-0001-34.png,0001-00-0001-34.png
