subject_id,trial,correct_response,stim_time,response_time,x_coord,y_coord,trial_timeout,timeout_time,interTrial_timeout,left_rank,right_rank,distance,joint_rank,left_image,right_image
00000014,1,1,1450195804010,1450195804738,369,355,0,0,0,2,3,1,5,0003-00-0000-13.png,0002-00-0000-44.png
00000014,2,0,1450195805960,1450195806480,888,553,0,0,0,0,3,3,3,0005-00-0000-14.png,0002-00-0000-03.png
00000014,3,0,1450195809463,1450195809837,991,371,0,0,0,1,2,1,3,0004-00-0000-92.png,0003-00-0001-41.png
00000014,4,1,1450195813110,1450195813516,1016,410,0,0,0,4,3,1,7,0001-00-0000-34.png,0002-00-0001-45.png
00000014,5,1,1450195814680,1450195815186,941,474,0,0,0,4,1,3,5,0001-00-0000-79.png,0004-00-0000-87.png
00000014,6,1,1450195816615,1450195817074,321,428,0,0,0,0,2,2,2,0005-00-0001-48.png,0003-00-0001-49.png
00000014,7,1,1450195818685,1450195819291,941,442,0,0,0,4,0,4,4,0001-00-0000-20.png,0005-00-0000-17.png
00000014,8,0,1450195820712,1450195821286,385,448,0,0,0,3,2,1,5,0002-00-0001-08.png,0003-00-0000-48.png
00000014,9,0,1450195824838,1450195825241,919,484,0,0,0,0,4,4,4,0005-00-0001-50.png,0001-00-0001-75.png
00000014,10,0,1450195828437,1450195828839,981,391,0,0,0,3,4,1,7,0002-00-0001-07.png,0001-00-0001-41.png
00000014,11,1,1450195832035,1450195832529,896,489,0,0,0,3,0,3,3,0002-00-0001-44.png,0005-00-0000-89.png
00000014,12,0,1450195834110,1450195835610,405,459,0,0,0,2,0,2,2,0003-00-0000-81.png,0005-00-0001-51.png
00000014,13,1,1450195842210,1450195842599,930,501,0,0,0,1,0,1,1,0004-00-0000-49.png,0005-00-0000-20.png
00000014,14,1,1450195844404,1450195845410,872,489,0,0,0,3,1,2,4,0002-00-0000-84.png,0004-00-0000-14.png
00000014,15,1,1450195847103,1450195847707,412,435,0,0,0,0,1,1,1,0005-00-0001-07.png,0004-00-0001-03.png
00000014,16,1,1450195849276,1450195849956,900,423,0,0,0,2,1,1,3,0003-00-0000-02.png,0004-00-0001-61.png
00000014,17,1,1450195851889,1450195853805,421,401,0,0,0,1,3,2,4,0004-00-0001-82.png,0002-00-0001-22.png
00000014,18,0,1450195856128,1450195856629,941,474,0,0,0,2,4,2,6,0003-00-0000-83.png,0001-00-0001-38.png
00000014,19,0,1450195860421,1450195860838,951,411,0,0,0,1,4,3,5,0004-00-0001-56.png,0001-00-0000-81.png
00000014,20,1,1450195863761,1450195864144,906,471,0,0,0,4,2,2,6,0001-00-0001-60.png,0003-00-0000-11.png
00000014,21,1,1450195865984,1450195866462,926,449,0,0,0,3,1,2,4,0002-00-0001-25.png,0004-00-0000-67.png
00000014,22,0,1450195867641,1450195868166,871,551,0,0,0,2,4,2,6,0003-00-0001-44.png,0001-00-0000-25.png
00000014,23,1,1450195871001,1450195871399,947,419,0,0,0,3,2,1,5,0002-00-0000-06.png,0003-00-0001-02.png
00000014,24,1,1450195872536,1450195873041,926,438,0,0,0,2,0,2,2,0003-00-0000-51.png,0005-00-0001-31.png
00000014,25,1,1450195874148,1450195874795,348,466,0,0,0,0,1,1,1,0005-00-0001-81.png,0004-00-0001-45.png
00000014,26,1,1450195875818,1450195876293,333,423,0,0,0,0,3,3,3,0005-00-0001-30.png,0002-00-0001-93.png
00000014,27,1,1450195877360,1450195877862,899,434,0,0,0,2,1,1,3,0003-00-0000-80.png,0004-00-0001-40.png
00000014,28,0,1450195878964,1450195879423,375,566,0,0,0,4,2,2,6,0001-00-0001-79.png,0003-00-0001-44.png
00000014,29,0,1450195882335,1450195882775,951,412,0,0,0,1,2,1,3,0004-00-0001-30.png,0003-00-0000-37.png
00000014,30,1,1450195885867,1450195886254,963,424,0,0,0,4,0,4,4,0001-00-0001-22.png,0005-00-0000-91.png
00000014,31,0,1450195887294,1450195887807,398,435,0,0,0,3,0,3,3,0002-00-0000-58.png,0005-00-0000-05.png
00000014,32,0,1450195890758,1450195891121,969,417,0,0,0,1,4,3,5,0004-00-0000-92.png,0001-00-0001-20.png
00000014,33,0,1450195894156,1450195894595,925,528,0,0,0,0,4,4,4,0005-00-0001-21.png,0001-00-0000-52.png
00000014,34,0,1450195897733,1450195898158,977,475,0,0,0,0,2,2,2,0005-00-0000-81.png,0003-00-0000-56.png
00000014,35,0,1450195901212,1450195901656,878,401,0,0,0,1,3,2,4,0004-00-0000-60.png,0002-00-0001-60.png
00000014,36,1,1450195905268,1450195906487,417,508,0,0,0,3,4,1,7,0002-00-0000-64.png,0001-00-0000-11.png
00000014,37,0,1450195907594,1450195908085,401,512,0,0,0,1,0,1,1,0004-00-0000-77.png,0005-00-0001-76.png
00000014,38,1,1450195911628,1450195911993,971,404,0,0,0,4,1,3,5,0001-00-0001-27.png,0004-00-0000-31.png
00000014,39,0,1450195913025,1450195913711,326,399,0,0,0,4,3,1,7,0001-00-0000-12.png,0002-00-0001-56.png
00000014,40,0,1450195916844,1450195917271,925,489,0,0,0,2,3,1,5,0003-00-0001-94.png,0002-00-0001-09.png
00000014,41,0,1450195920322,1450195920707,932,474,0,0,0,0,3,3,3,0005-00-0001-31.png,0002-00-0000-67.png
00000014,42,1,1450195923632,1450195924045,901,513,0,0,0,4,2,2,6,0001-00-0000-41.png,0003-00-0001-41.png
00000014,43,1,1450195925080,1450195925710,376,422,0,0,0,1,3,2,4,0004-00-0001-71.png,0002-00-0000-09.png
00000014,44,1,1450195926714,1450195927279,379,450,0,0,0,1,2,1,3,0004-00-0001-09.png,0003-00-0000-02.png
00000014,45,1,1450195928339,1450195928878,880,427,0,0,0,4,3,1,7,0001-00-0001-17.png,0002-00-0001-37.png
00000014,46,1,1450195929985,1450195930440,368,451,0,0,0,2,4,2,6,0003-00-0000-50.png,0001-00-0000-55.png
00000014,47,0,1450195931473,1450195932098,874,413,0,0,0,2,3,1,5,0003-00-0001-18.png,0002-00-0001-27.png
00000014,48,1,1450195935133,1450195935572,926,502,0,0,0,2,1,1,3,0003-00-0001-62.png,0004-00-0001-83.png
00000014,49,1,1450195936660,1450195937234,890,415,0,0,0,3,2,1,5,0002-00-0000-97.png,0003-00-0001-90.png
00000014,50,0,1450195938244,1450195938686,453,490,0,0,0,1,0,1,1,0004-00-0001-18.png,0005-00-0000-67.png
00000014,51,1,1450195941622,1450195942125,384,418,0,0,0,0,2,2,2,0005-00-0001-46.png,0003-00-0000-41.png
00000014,52,1,1450195943163,1450195943741,323,384,0,0,0,0,4,4,4,0005-00-0001-61.png,0001-00-0001-97.png
00000014,53,0,1450195944854,1450195945673,372,394,0,0,0,2,0,2,2,0003-00-0000-16.png,0005-00-0001-10.png
00000014,54,1,1450195948640,1450195949045,900,527,0,0,0,4,0,4,4,0001-00-0000-92.png,0005-00-0000-19.png
00000014,55,1,1450195950120,1450195950631,947,420,0,0,0,4,1,3,5,0001-00-0000-61.png,0004-00-0001-31.png
00000014,56,1,1450195951651,1450195952084,314,474,0,0,0,1,4,3,5,0004-00-0001-82.png,0001-00-0000-70.png
00000014,57,0,1450195953182,1450195953682,392,553,0,0,0,3,1,2,4,0002-00-0001-42.png,0004-00-0001-32.png
00000014,58,0,1450195956579,1450195957248,943,391,0,0,0,0,1,1,1,0005-00-0000-33.png,0004-00-0001-25.png
00000014,59,1,1450195960298,1450195960740,979,408,0,0,0,3,0,3,3,0002-00-0001-49.png,0005-00-0001-64.png
00000014,60,0,1450195961771,1450195962324,901,435,0,0,0,3,4,1,7,0002-00-0000-82.png,0001-00-0000-43.png
00000014,61,0,1450195965204,1450195965621,951,423,0,0,0,1,4,3,5,0004-00-0000-61.png,0001-00-0000-13.png
00000014,62,0,1450195968489,1450195968961,952,422,0,0,0,0,2,2,2,0005-00-0001-77.png,0003-00-0001-34.png
00000014,63,1,1450195972184,1450195972592,986,471,0,0,0,2,0,2,2,0003-00-0001-24.png,0005-00-0000-02.png
00000014,64,1,1450195973596,1450195974166,871,393,0,0,0,2,1,1,3,0003-00-0001-72.png,0004-00-0000-88.png
00000014,65,0,1450195975328,1450195975891,874,448,0,0,0,2,4,2,6,0003-00-0000-30.png,0001-00-0000-15.png
00000014,66,0,1450195979035,1450195979417,924,517,0,0,0,1,3,2,4,0004-00-0001-07.png,0002-00-0000-90.png
00000014,67,0,1450195982589,1450195982978,978,410,0,0,0,2,3,1,5,0003-00-0000-36.png,0002-00-0000-86.png
00000014,68,1,1450195985853,1450195986277,983,368,0,0,0,3,1,2,4,0002-00-0001-91.png,0004-00-0001-75.png
00000014,69,1,1450195987303,1450195987844,904,416,0,0,0,4,0,4,4,0001-00-0000-87.png,0005-00-0001-58.png
00000014,70,1,1450195988985,1450195989476,346,418,0,0,0,0,4,4,4,0005-00-0001-92.png,0001-00-0000-31.png
00000014,71,1,1450195990615,1450195991257,273,412,0,0,0,0,3,3,3,0005-00-0000-26.png,0002-00-0001-02.png
00000014,72,1,1450195992383,1450195992965,881,553,0,0,0,3,0,3,3,0002-00-0000-75.png,0005-00-0000-31.png
00000014,73,1,1450195993994,1450195994567,866,536,0,0,0,4,3,1,7,0001-00-0000-40.png,0002-00-0001-51.png
00000014,74,1,1450195995695,1450195996360,370,425,0,0,0,3,4,1,7,0002-00-0000-23.png,0001-00-0001-63.png
00000014,75,1,1450195997433,1450195997953,440,550,0,0,0,1,2,1,3,0004-00-0001-58.png,0003-00-0001-42.png
00000014,76,0,1450195999054,1450195999488,350,449,0,0,0,3,2,1,5,0002-00-0000-68.png,0003-00-0000-09.png
00000014,77,0,1450196003754,1450196004207,400,410,0,0,0,4,2,2,6,0001-00-0001-45.png,0003-00-0000-70.png
00000014,78,1,1450196007362,1450196007773,973,445,0,0,0,4,1,3,5,0001-00-0000-02.png,0004-00-0000-10.png
00000014,79,1,1450196008782,1450196009360,358,410,0,0,0,0,1,1,1,0005-00-0000-71.png,0004-00-0001-72.png
00000014,80,1,1450196010454,1450196010997,925,449,0,0,0,1,0,1,1,0004-00-0001-70.png,0005-00-0000-72.png
00000014,81,1,1450196012123,1450196012775,952,458,0,0,0,1,0,1,1,0004-00-0001-47.png,0005-00-0001-94.png
00000014,82,1,1450196013823,1450196014348,410,547,0,0,0,0,3,3,3,0005-00-0001-77.png,0002-00-0001-74.png
00000014,83,1,1450196015514,1450196016071,890,535,0,0,0,2,0,2,2,0003-00-0001-82.png,0005-00-0001-49.png
00000014,84,0,1450196017139,1450196017606,369,453,0,0,0,3,1,2,4,0002-00-0000-47.png,0004-00-0001-52.png
00000014,85,1,1450196020643,1450196021080,981,465,0,0,0,4,3,1,7,0001-00-0000-81.png,0002-00-0000-22.png
00000014,86,1,1450196022139,1450196022634,358,460,0,0,0,1,4,3,5,0004-00-0001-06.png,0001-00-0000-51.png
00000014,87,0,1450196023733,1450196024187,379,487,0,0,0,4,0,4,4,0001-00-0001-12.png,0005-00-0001-73.png
00000014,88,0,1450196027360,1450196027803,952,448,0,0,0,3,4,1,7,0002-00-0001-51.png,0001-00-0000-37.png
00000014,89,0,1450196030799,1450196031208,978,466,0,0,0,0,2,2,2,0005-00-0000-36.png,0003-00-0000-23.png
00000014,90,1,1450196034346,1450196034773,937,447,0,0,0,3,0,3,3,0002-00-0000-20.png,0005-00-0001-00.png
00000014,91,1,1450196035846,1450196036329,389,542,0,0,0,1,3,2,4,0004-00-0000-72.png,0002-00-0000-89.png
00000014,92,1,1450196037368,1450196037875,364,435,0,0,0,1,2,1,3,0004-00-0000-02.png,0003-00-0000-29.png
00000014,93,1,1450196039009,1450196039554,874,554,0,0,0,4,2,2,6,0001-00-0000-71.png,0003-00-0000-33.png
00000014,94,0,1450196040664,1450196041264,924,456,0,0,0,2,3,1,5,0003-00-0000-72.png,0002-00-0000-65.png
00000014,95,1,1450196044734,1450196045158,925,541,0,0,0,4,1,3,5,0001-00-0001-21.png,0004-00-0000-89.png
00000014,96,1,1450196046244,1450196046759,382,539,0,0,0,0,1,1,1,0005-00-0000-83.png,0004-00-0000-86.png
00000014,97,1,1450196047763,1450196048307,348,428,0,0,0,0,4,4,4,0005-00-0000-30.png,0001-00-0000-35.png
00000014,98,1,1450196049434,1450196050035,919,457,0,0,0,2,1,1,3,0003-00-0000-16.png,0004-00-0001-92.png
00000014,99,0,1450196051283,1450196051701,439,489,0,0,0,3,2,1,5,0002-00-0001-44.png,0003-00-0000-26.png
00000014,100,0,1450196054780,1450196055177,903,545,0,0,0,2,4,2,6,0003-00-0001-18.png,0001-00-0001-43.png
00000014,101,0,1450196058079,1450196058513,957,463,0,0,0,0,2,2,2,0005-00-0001-70.png,0003-00-0000-75.png
00000014,102,1,1450196062305,1450196062309,513,460,0,0,0,0,4,4,4,0005-00-0001-53.png,0001-00-0001-62.png
00000014,103,1,1450196063378,1450196063877,873,517,0,0,0,3,1,2,4,0002-00-0001-22.png,0004-00-0001-96.png
00000014,104,0,1450196064978,1450196065490,875,437,0,0,0,2,3,1,5,0003-00-0000-77.png,0002-00-0001-39.png
00000014,105,0,1450196068410,1450196068806,913,384,0,0,0,1,3,2,4,0004-00-0001-17.png,0002-00-0001-42.png
00000014,106,0,1450196071696,1450196071716,520,455,0,0,0,2,1,1,3,0003-00-0000-93.png,0004-00-0001-01.png
00000014,107,0,1450196074619,1450196074699,521,481,0,0,0,4,3,1,7,0001-00-0000-40.png,0002-00-0001-67.png
00000014,108,1,1450196078080,1450196078513,901,456,0,0,0,4,1,3,5,0001-00-0001-35.png,0004-00-0001-67.png
00000014,109,0,1450196079539,1450196080066,898,509,0,0,0,1,4,3,5,0004-00-0000-25.png,0001-00-0000-33.png
00000014,110,1,1450196083106,1450196083507,956,428,0,0,0,4,0,4,4,0001-00-0000-06.png,0005-00-0001-00.png
00000014,111,1,1450196084595,1450196085059,363,410,0,0,0,0,3,3,3,0005-00-0000-51.png,0002-00-0001-71.png
00000014,112,1,1450196086226,1450196086700,369,439,0,0,0,1,2,1,3,0004-00-0001-72.png,0003-00-0000-00.png
00000014,113,1,1450196087840,1450196088389,875,475,0,0,0,3,2,1,5,0002-00-0000-29.png,0003-00-0001-83.png
00000014,114,1,1450196089506,1450196090034,896,446,0,0,0,2,0,2,2,0003-00-0001-25.png,0005-00-0000-99.png
00000014,115,1,1450196091137,1450196091646,378,432,0,0,0,0,1,1,1,0005-00-0000-13.png,0004-00-0001-78.png
00000014,116,1,1450196092828,1450196093323,903,410,0,0,0,1,0,1,1,0004-00-0001-15.png,0005-00-0001-25.png
00000014,117,0,1450196094420,1450196094812,427,450,0,0,0,4,2,2,6,0001-00-0000-65.png,0003-00-0001-50.png
00000014,118,1,1450196097782,1450196098255,418,412,0,0,0,3,4,1,7,0002-00-0001-83.png,0001-00-0000-04.png
00000014,119,1,1450196099301,1450196099776,877,548,0,0,0,3,0,3,3,0002-00-0001-81.png,0005-00-0001-94.png
00000014,120,1,1450196100930,1450196101353,385,477,0,0,0,2,4,2,6,0003-00-0000-04.png,0001-00-0000-33.png
00000014,121,1,1450196102461,1450196102926,362,449,0,0,0,1,2,1,3,0004-00-0000-02.png,0003-00-0001-36.png
00000014,122,0,1450196104051,1450196104507,453,436,0,0,0,4,0,4,4,0001-00-0000-53.png,0005-00-0001-77.png
00000014,123,1,1450196107600,1450196108078,364,448,0,0,0,0,2,2,2,0005-00-0000-51.png,0003-00-0000-25.png
00000014,124,0,1450196109149,1450196109701,896,446,0,0,0,3,4,1,7,0002-00-0001-18.png,0001-00-0000-99.png
00000014,125,1,1450196112650,1450196113139,977,436,0,0,0,3,2,1,5,0002-00-0000-62.png,0003-00-0001-98.png
00000014,126,0,1450196114225,1450196114700,899,438,0,0,0,1,4,3,5,0004-00-0000-87.png,0001-00-0000-74.png
00000014,127,1,1450196117778,1450196118202,932,471,0,0,0,4,3,1,7,0001-00-0001-82.png,0002-00-0000-40.png
00000014,128,1,1450196119208,1450196119950,951,464,0,0,0,4,1,3,5,0001-00-0000-83.png,0004-00-0001-51.png
00000014,129,0,1450196121036,1450196121527,438,456,0,0,0,1,0,1,1,0004-00-0001-89.png,0005-00-0000-89.png
00000014,130,1,1450196124566,1450196124962,941,422,0,0,0,2,1,1,3,0003-00-0000-81.png,0004-00-0000-96.png
00000014,131,0,1450196126027,1450196126547,901,461,0,0,0,2,4,2,6,0003-00-0001-35.png,0001-00-0000-35.png
00000014,132,1,1450196129507,1450196130052,414,449,0,0,0,0,3,3,3,0005-00-0000-15.png,0002-00-0001-19.png
00000014,133,1,1450196131045,1450196131574,925,410,0,0,0,3,0,3,3,0002-00-0000-65.png,0005-00-0001-28.png
00000014,134,0,1450196132749,1450196133279,900,410,0,0,0,2,3,1,5,0003-00-0000-38.png,0002-00-0000-18.png
00000014,135,0,1450196136235,1450196136624,934,447,0,0,0,1,3,2,4,0004-00-0000-10.png,0002-00-0001-25.png
00000014,136,0,1450196139613,1450196140092,913,528,0,0,0,0,1,1,1,0005-00-0001-26.png,0004-00-0000-21.png
00000014,137,1,1450196143213,1450196143598,918,477,0,0,0,4,2,2,6,0001-00-0001-31.png,0003-00-0000-50.png
00000014,138,1,1450196144584,1450196144989,388,541,0,0,0,0,4,4,4,0005-00-0001-07.png,0001-00-0000-53.png
00000014,139,1,1450196146015,1450196146522,879,506,0,0,0,2,0,2,2,0003-00-0000-37.png,0005-00-0000-01.png
00000014,140,1,1450196147586,1450196148162,898,432,0,0,0,3,1,2,4,0002-00-0001-46.png,0004-00-0001-12.png
00000014,141,1,1450196149209,1450196149731,913,424,0,0,0,4,2,2,6,0001-00-0000-13.png,0003-00-0001-17.png
00000014,142,1,1450196150795,1450196151263,369,480,0,0,0,2,4,2,6,0003-00-0000-44.png,0001-00-0001-23.png
00000014,143,0,1450196152314,1450196152782,389,469,0,0,0,4,1,3,5,0001-00-0001-62.png,0004-00-0001-41.png
00000014,144,1,1450196155894,1450196156289,951,436,0,0,0,3,2,1,5,0002-00-0000-28.png,0003-00-0001-58.png
00000014,145,1,1450196157253,1450196158935,899,397,0,0,0,3,0,3,3,0002-00-0000-71.png,0005-00-0001-34.png
00000014,146,1,1450196160029,1450196160488,332,445,0,0,0,1,2,1,3,0004-00-0000-53.png,0003-00-0000-28.png
00000014,147,1,1450196161669,1450196162085,390,557,0,0,0,0,4,4,4,0005-00-0001-10.png,0001-00-0001-35.png
00000014,148,1,1450196163259,1450196163746,389,551,0,0,0,1,3,2,4,0004-00-0001-73.png,0002-00-0001-48.png
00000014,149,1,1450196164991,1450196165517,925,423,0,0,0,3,1,2,4,0002-00-0000-14.png,0004-00-0001-69.png
00000014,150,1,1450196166689,1450196167215,904,427,0,0,0,1,0,1,1,0004-00-0000-80.png,0005-00-0001-09.png
00000014,151,0,1450196168504,1450196169161,353,419,0,0,0,4,3,1,7,0001-00-0000-03.png,0002-00-0001-24.png
00000014,152,0,1450196172126,1450196172513,934,465,0,0,0,0,3,3,3,0005-00-0001-26.png,0002-00-0000-30.png
00000014,153,0,1450196175575,1450196175947,899,542,0,0,0,0,2,2,2,0005-00-0001-50.png,0003-00-0001-99.png
00000014,154,0,1450196178875,1450196179367,939,449,0,0,0,2,3,1,5,0003-00-0001-04.png,0002-00-0000-08.png
00000014,155,1,1450196182361,1450196182775,961,437,0,0,0,2,1,1,3,0003-00-0001-78.png,0004-00-0001-07.png
00000014,156,0,1450196183755,1450196184360,900,436,0,0,0,0,1,1,1,0005-00-0000-11.png,0004-00-0001-80.png
00000014,157,1,1450196187259,1450196187751,923,432,0,0,0,2,0,2,2,0003-00-0001-23.png,0005-00-0000-41.png
00000014,158,0,1450196188723,1450196189244,895,421,0,0,0,1,4,3,5,0004-00-0000-52.png,0001-00-0000-19.png
00000014,159,1,1450196192659,1450196193064,888,541,0,0,0,4,0,4,4,0001-00-0000-82.png,0005-00-0000-81.png
00000014,160,0,1450196194041,1450196194570,902,416,0,0,0,3,4,1,7,0002-00-0001-16.png,0001-00-0000-98.png
00000014,161,0,1450196197809,1450196198223,940,449,0,0,0,3,4,1,7,0002-00-0000-04.png,0001-00-0000-54.png
00000014,162,1,1450196201268,1450196201713,920,461,0,0,0,3,2,1,5,0002-00-0000-77.png,0003-00-0001-86.png
00000014,163,0,1450196202688,1450196203295,901,416,0,0,0,2,3,1,5,0003-00-0001-09.png,0002-00-0001-24.png
00000014,164,1,1450196206123,1450196206533,857,420,0,0,0,2,1,1,3,0003-00-0000-72.png,0004-00-0001-04.png
00000014,165,1,1450196207479,1450196208536,924,431,0,0,0,3,1,2,4,0002-00-0001-08.png,0004-00-0001-96.png
00000014,166,1,1450196209615,1450196210149,898,456,0,0,0,4,0,4,4,0001-00-0001-98.png,0005-00-0001-36.png
00000014,167,1,1450196211211,1450196211668,389,503,0,0,0,0,3,3,3,0005-00-0001-91.png,0002-00-0000-64.png
00000014,168,1,1450196212763,1450196213279,928,443,0,0,0,1,0,1,1,0004-00-0000-58.png,0005-00-0000-35.png
00000014,169,1,1450196214465,1450196214952,381,423,0,0,0,0,2,2,2,0005-00-0001-03.png,0003-00-0000-35.png
00000014,170,1,1450196216016,1450196216437,377,441,0,0,0,0,4,4,4,0005-00-0001-88.png,0001-00-0001-30.png
00000014,171,0,1450196217666,1450196218165,347,468,0,0,0,3,0,3,3,0002-00-0000-58.png,0005-00-0001-68.png
00000014,172,1,1450196221154,1450196221557,952,436,0,0,0,4,3,1,7,0001-00-0001-80.png,0002-00-0001-43.png
00000014,173,1,1450196222605,1450196223084,926,450,0,0,0,2,0,2,2,0003-00-0000-29.png,0005-00-0000-03.png
00000014,174,0,1450196224163,1450196224163,478,424,0,0,0,4,2,2,6,0001-00-0001-91.png,0003-00-0000-40.png
00000014,175,1,1450196227735,1450196228138,948,470,0,0,0,4,1,3,5,0001-00-0000-51.png,0004-00-0001-76.png
00000014,176,1,1450196229123,1450196229588,410,456,0,0,0,0,1,1,1,0005-00-0000-07.png,0004-00-0000-34.png
00000014,177,0,1450196230636,1450196231181,927,441,0,0,0,2,4,2,6,0003-00-0000-31.png,0001-00-0000-84.png
00000014,178,0,1450196234364,1450196234786,946,470,0,0,0,1,2,1,3,0004-00-0001-31.png,0003-00-0000-35.png
00000014,179,0,1450196239730,1450196240178,964,423,0,0,0,1,3,2,4,0004-00-0001-25.png,0002-00-0001-26.png
00000014,180,1,1450196243101,1450196243117,504,384,0,0,0,1,4,3,5,0004-00-0001-17.png,0001-00-0001-86.png
00000014,181,1,1450196244023,1450196244520,874,515,0,0,0,2,1,1,3,0003-00-0001-36.png,0004-00-0001-58.png
00000014,182,1,1450196245654,1450196246196,407,539,0,0,0,1,4,3,5,0004-00-0000-04.png,0001-00-0000-09.png
00000014,183,1,1450196247354,1450196247748,394,454,0,0,0,1,3,2,4,0004-00-0000-61.png,0002-00-0000-34.png
00000014,184,1,1450196249004,1450196249538,339,430,0,0,0,0,4,4,4,0005-00-0000-56.png,0001-00-0001-36.png
00000014,185,1,1450196250761,1450196251264,900,423,0,0,0,4,0,4,4,0001-00-0001-94.png,0005-00-0000-45.png
00000014,186,1,1450196252413,1450196253047,931,480,0,0,0,3,0,3,3,0002-00-0000-31.png,0005-00-0000-49.png
00000014,187,0,1450196254302,1450196254876,927,442,0,0,0,2,3,1,5,0003-00-0000-46.png,0002-00-0001-95.png
00000014,188,0,1450196258823,1450196259267,976,423,0,0,0,1,2,1,3,0004-00-0001-88.png,0003-00-0000-17.png
00000014,189,1,1450196262459,1450196262963,355,456,0,0,0,0,1,1,1,0005-00-0000-18.png,0004-00-0001-05.png
00000014,190,0,1450196264021,1450196264517,345,406,0,0,0,1,0,1,1,0004-00-0000-09.png,0005-00-0001-73.png
00000014,191,1,1450196267498,1450196267974,384,393,0,0,0,0,2,2,2,0005-00-0001-23.png,0003-00-0001-28.png
00000014,192,1,1450196269246,1450196269684,897,470,0,0,0,2,0,2,2,0003-00-0001-24.png,0005-00-0001-97.png
00000014,193,1,1450196270789,1450196271277,893,440,0,0,0,3,1,2,4,0002-00-0000-28.png,0004-00-0000-14.png
00000014,194,0,1450196272390,1450196272897,427,501,0,0,0,3,2,1,5,0002-00-0001-72.png,0003-00-0001-07.png
00000014,195,1,1450196275996,1450196276389,951,448,0,0,0,4,1,3,5,0001-00-0000-45.png,0004-00-0001-50.png
00000014,196,1,1450196277553,1450196278118,444,558,0,0,0,2,4,2,6,0003-00-0000-43.png,0001-00-0001-35.png
00000014,197,1,1450196279307,1450196280246,409,445,0,0,0,3,4,1,7,0002-00-0000-63.png,0001-00-0000-08.png
00000014,198,1,1450196281513,1450196281930,337,462,0,0,0,0,3,3,3,0005-00-0001-27.png,0002-00-0000-81.png
00000014,199,0,1450196283182,1450196284164,382,539,0,0,0,4,2,2,6,0001-00-0001-47.png,0003-00-0000-67.png
00000014,200,1,1450196287169,1450196287571,964,410,0,0,0,4,3,1,7,0001-00-0001-98.png,0002-00-0001-72.png
00000014,201,1,1450196288618,1450196289088,440,475,0,0,0,1,4,3,5,0004-00-0001-35.png,0001-00-0000-42.png
00000014,202,0,1450196290358,1450196291308,409,446,0,0,0,4,1,3,5,0001-00-0000-45.png,0004-00-0000-50.png
00000014,203,0,1450196294170,1450196294662,898,435,0,0,0,0,4,4,4,0005-00-0000-70.png,0001-00-0001-61.png
00000014,204,0,1450196297623,1450196298219,440,424,0,0,0,2,1,1,3,0003-00-0000-40.png,0004-00-0001-17.png
00000014,205,0,1450196301211,1450196301675,904,558,0,0,0,0,1,1,1,0005-00-0000-94.png,0004-00-0000-83.png
00000014,206,0,1450196304531,1450196304547,509,423,0,0,0,2,0,2,2,0003-00-0000-02.png,0005-00-0001-95.png
00000014,207,1,1450196307501,1450196308015,956,403,0,0,0,3,1,2,4,0002-00-0000-67.png,0004-00-0000-08.png
00000014,208,0,1450196309023,1450196309646,408,427,0,0,0,3,2,1,5,0002-00-0000-93.png,0003-00-0000-39.png
00000014,209,1,1450196312569,1450196312585,504,419,0,0,0,1,3,2,4,0004-00-0001-80.png,0002-00-0000-89.png
00000014,210,1,1450196313603,1450196314086,430,555,0,0,0,1,2,1,3,0004-00-0000-94.png,0003-00-0001-49.png
00000014,211,0,1450196315264,1450196315272,504,462,0,0,0,4,2,2,6,0001-00-0000-30.png,0003-00-0001-87.png
00000014,212,1,1450196318235,1450196318691,369,418,0,0,0,0,2,2,2,0005-00-0001-30.png,0003-00-0001-61.png
00000014,213,0,1450196320234,1450196320678,925,448,0,0,0,2,4,2,6,0003-00-0001-96.png,0001-00-0000-36.png
00000014,214,1,1450196323616,1450196324090,950,457,0,0,0,4,3,1,7,0001-00-0000-29.png,0002-00-0000-95.png
00000014,215,1,1450196325104,1450196325648,902,466,0,0,0,1,0,1,1,0004-00-0001-13.png,0005-00-0000-16.png
00000014,216,0,1450196326744,1450196327358,345,394,0,0,0,3,0,3,3,0002-00-0001-39.png,0005-00-0001-37.png
00000014,217,1,1450196330578,1450196331010,888,436,0,0,0,4,0,4,4,0001-00-0000-31.png,0005-00-0001-47.png
00000014,218,1,1450196332030,1450196332450,427,462,0,0,0,3,4,1,7,0002-00-0000-01.png,0001-00-0001-38.png
00000014,219,0,1450196333512,1450196334055,901,476,0,0,0,2,3,1,5,0003-00-0000-98.png,0002-00-0000-67.png
00000014,220,1,1450196336911,1450196337352,398,399,0,0,0,0,3,3,3,0005-00-0000-63.png,0002-00-0001-37.png
00000014,221,1,1450196338392,1450196338854,439,474,0,0,0,1,2,1,3,0004-00-0000-27.png,0003-00-0001-15.png
00000014,222,1,1450196339961,1450196340439,350,449,0,0,0,3,4,1,7,0002-00-0000-88.png,0001-00-0000-06.png
00000014,223,1,1450196341601,1450196342354,919,508,0,0,0,4,2,2,6,0001-00-0000-35.png,0003-00-0000-39.png
00000014,224,0,1450196343401,1450196343988,925,464,0,0,0,2,3,1,5,0003-00-0001-87.png,0002-00-0001-20.png
00000014,225,1,1450196346908,1450196347384,939,424,0,0,0,4,3,1,7,0001-00-0001-73.png,0002-00-0001-30.png
00000014,226,0,1450196348560,1450196349083,396,452,0,0,0,4,0,4,4,0001-00-0001-68.png,0005-00-0000-55.png
00000014,227,1,1450196352266,1450196353111,376,397,0,0,0,0,2,2,2,0005-00-0001-57.png,0003-00-0000-43.png
00000014,228,1,1450196354165,1450196354697,924,431,0,0,0,1,0,1,1,0004-00-0000-96.png,0005-00-0001-91.png
00000014,229,1,1450196355865,1450196356348,888,410,0,0,0,2,1,1,3,0003-00-0000-15.png,0004-00-0001-62.png
00000014,230,0,1450196357561,1450196358089,886,476,0,0,0,2,4,2,6,0003-00-0001-25.png,0001-00-0001-65.png
00000014,231,1,1450196361082,1450196361538,953,463,0,0,0,4,1,3,5,0001-00-0001-08.png,0004-00-0001-72.png
00000014,232,1,1450196362664,1450196363119,350,449,0,0,0,0,1,1,1,0005-00-0001-48.png,0004-00-0000-51.png
00000014,233,1,1450196364563,1450196364984,413,434,0,0,0,0,3,3,3,0005-00-0001-14.png,0002-00-0001-09.png
00000014,234,1,1450196366182,1450196366747,899,456,0,0,0,3,1,2,4,0002-00-0001-16.png,0004-00-0000-70.png
00000014,235,0,1450196367922,1450196368474,376,449,0,0,0,2,0,2,2,0003-00-0000-91.png,0005-00-0000-05.png
00000014,236,0,1450196371357,1450196371934,947,460,0,0,0,1,4,3,5,0004-00-0001-15.png,0001-00-0000-53.png
00000014,237,1,1450196374820,1450196375313,372,417,0,0,0,0,4,4,4,0005-00-0001-09.png,0001-00-0001-08.png
00000014,238,0,1450196376400,1450196376842,876,434,0,0,0,1,3,2,4,0004-00-0001-08.png,0002-00-0000-34.png
00000014,239,1,1450196380156,1450196380561,954,496,0,0,0,3,2,1,5,0002-00-0001-37.png,0003-00-0000-10.png
00000014,240,1,1450196381629,1450196382406,928,520,0,0,0,3,0,3,3,0002-00-0001-70.png,0005-00-0001-39.png
00000014,241,1,1450196383566,1450196384034,862,536,0,0,0,3,1,2,4,0002-00-0001-27.png,0004-00-0001-08.png
00000014,242,0,1450196385196,1450196385664,874,463,0,0,0,2,3,1,5,0003-00-0000-83.png,0002-00-0001-23.png
00000014,243,1,1450196388606,1450196389185,350,397,0,0,0,3,4,1,7,0002-00-0001-90.png,0001-00-0001-27.png
00000014,244,0,1450196390326,1450196390823,357,453,0,0,0,4,2,2,6,0001-00-0000-59.png,0003-00-0001-98.png
00000014,245,1,1450196393813,1450196394239,964,462,0,0,0,1,0,1,1,0004-00-0000-06.png,0005-00-0001-22.png
00000014,246,1,1450196395285,1450196396357,401,437,0,0,0,2,4,2,6,0003-00-0000-83.png,0001-00-0001-12.png
00000014,247,1,1450196397547,1450196398084,335,414,0,0,0,0,3,3,3,0005-00-0000-59.png,0002-00-0000-19.png
00000014,248,1,1450196399296,1450196399764,388,555,0,0,0,1,4,3,5,0004-00-0001-02.png,0001-00-0000-89.png
00000014,249,1,1450196401020,1450196401648,894,536,0,0,0,3,0,3,3,0002-00-0000-50.png,0005-00-0000-71.png
00000014,250,0,1450196402927,1450196403461,387,448,0,0,0,3,2,1,5,0002-00-0001-58.png,0003-00-0001-88.png
00000014,251,1,1450196406587,1450196407074,966,491,0,0,0,4,0,4,4,0001-00-0000-38.png,0005-00-0000-34.png
00000014,252,1,1450196408216,1450196408616,422,565,0,0,0,1,3,2,4,0004-00-0001-89.png,0002-00-0000-11.png
00000014,253,1,1450196409926,1450196410405,903,441,0,0,0,2,1,1,3,0003-00-0000-73.png,0004-00-0000-71.png
00000014,254,0,1450196411616,1450196412182,392,470,0,0,0,2,0,2,2,0003-00-0000-76.png,0005-00-0000-11.png
00000014,255,1,1450196416023,1450196416557,358,419,0,0,0,0,2,2,2,0005-00-0001-93.png,0003-00-0001-73.png
00000014,256,1,1450196417649,1450196418099,376,436,0,0,0,1,2,1,3,0004-00-0001-59.png,0003-00-0000-06.png
00000014,257,1,1450196419274,1450196419812,901,487,0,0,0,4,1,3,5,0001-00-0001-67.png,0004-00-0000-19.png
00000014,258,1,1450196421109,1450196421554,308,469,0,0,0,0,4,4,4,0005-00-0000-64.png,0001-00-0000-90.png
00000014,259,0,1450196422909,1450196423826,428,422,0,0,0,4,3,1,7,0001-00-0001-21.png,0002-00-0001-39.png
00000014,260,1,1450196426722,1450196427233,427,476,0,0,0,0,1,1,1,0005-00-0001-18.png,0004-00-0000-16.png
00000014,261,1,1450196428380,1450196428940,916,418,0,0,0,4,2,2,6,0001-00-0000-11.png,0003-00-0001-20.png
00000014,262,1,1450196430341,1450196430825,925,411,0,0,0,3,1,2,4,0002-00-0001-05.png,0004-00-0000-98.png
00000014,263,1,1450196432180,1450196432529,440,457,0,0,0,2,3,1,5,0003-00-0001-75.png,0002-00-0001-45.png
00000014,264,1,1450196433790,1450196434425,944,469,0,0,0,3,2,1,5,0002-00-0001-63.png,0003-00-0001-33.png
00000014,265,0,1450196435678,1450196436184,926,437,0,0,0,1,2,1,3,0004-00-0000-37.png,0003-00-0000-80.png
00000014,266,1,1450196439626,1450196439995,963,476,0,0,0,1,0,1,1,0004-00-0000-53.png,0005-00-0001-34.png
00000014,267,1,1450196441081,1450196441566,342,454,0,0,0,0,2,2,2,0005-00-0000-74.png,0003-00-0000-88.png
00000014,268,1,1450196442757,1450196443200,396,442,0,0,0,1,4,3,5,0004-00-0001-13.png,0001-00-0001-21.png
00000014,269,0,1450196444403,1450196444906,889,449,0,0,0,1,3,2,4,0004-00-0001-07.png,0002-00-0001-43.png
00000014,270,1,1450196447903,1450196448425,427,462,0,0,0,3,4,1,7,0002-00-0001-12.png,0001-00-0001-23.png
00000014,271,1,1450196449634,1450196450099,413,472,0,0,0,0,3,3,3,0005-00-0001-84.png,0002-00-0000-41.png
00000014,272,1,1450196451442,1450196451942,361,424,0,0,0,0,1,1,1,0005-00-0001-78.png,0004-00-0000-22.png
00000014,273,1,1450196453452,1450196453968,887,424,0,0,0,4,3,1,7,0001-00-0000-24.png,0002-00-0000-33.png
00000014,274,1,1450196455130,1450196455522,369,477,0,0,0,2,4,2,6,0003-00-0001-11.png,0001-00-0000-35.png
00000014,275,1,1450196456840,1450196457421,901,450,0,0,0,3,0,3,3,0002-00-0000-89.png,0005-00-0001-46.png
00000014,276,0,1450196458647,1450196459293,925,487,0,0,0,0,4,4,4,0005-00-0001-87.png,0001-00-0001-96.png
00000014,277,1,1450196462185,1450196462608,876,514,0,0,0,4,0,4,4,0001-00-0000-50.png,0005-00-0001-99.png
00000014,278,1,1450196464577,1450196464953,906,473,0,0,0,2,0,2,2,0003-00-0000-46.png,0005-00-0001-28.png
00000014,279,1,1450196466111,1450196466633,894,456,0,0,0,2,1,1,3,0003-00-0000-68.png,0004-00-0001-01.png
00000014,280,0,1450196467771,1450196468195,427,488,0,0,0,4,1,3,5,0001-00-0000-52.png,0004-00-0000-47.png
00000014,281,1,1450196471111,1450196471570,344,427,0,0,0,0,4,4,4,0005-00-0000-64.png,0001-00-0000-40.png
00000014,282,0,1450196472659,1450196473137,900,436,0,0,0,0,1,1,1,0005-00-0000-00.png,0004-00-0000-83.png
00000014,283,1,1450196476192,1450196476622,963,476,0,0,0,3,1,2,4,0002-00-0001-89.png,0004-00-0000-84.png
00000014,284,1,1450196478048,1450196478535,394,547,0,0,0,0,3,3,3,0005-00-0001-40.png,0002-00-0001-82.png
00000014,285,1,1450196479769,1450196480212,376,501,0,0,0,3,4,1,7,0002-00-0001-12.png,0001-00-0000-83.png
00000014,286,1,1450196481458,1450196481940,368,450,0,0,0,1,2,1,3,0004-00-0000-93.png,0003-00-0001-05.png
00000014,287,0,1450196483198,1450196483788,871,488,0,0,0,2,4,2,6,0003-00-0000-14.png,0001-00-0001-55.png
00000014,288,1,1450196486649,1450196487093,871,418,0,0,0,2,0,2,2,0003-00-0000-94.png,0005-00-0000-46.png
00000014,289,1,1450196488357,1450196489337,923,431,0,0,0,2,1,1,3,0003-00-0001-24.png,0004-00-0000-39.png
00000014,290,1,1450196490493,1450196491196,929,488,0,0,0,4,3,1,7,0001-00-0000-35.png,0002-00-0001-78.png
00000014,291,1,1450196492382,1450196492921,867,537,0,0,0,1,0,1,1,0004-00-0001-53.png,0005-00-0001-33.png
00000014,292,0,1450196494112,1450196494486,477,507,0,0,0,4,1,3,5,0001-00-0000-53.png,0004-00-0001-16.png
00000014,293,1,1450196497528,1450196497961,412,459,0,0,0,0,2,2,2,0005-00-0000-18.png,0003-00-0001-91.png
00000014,294,1,1450196499142,1450196499777,351,415,0,0,0,1,4,3,5,0004-00-0001-29.png,0001-00-0000-23.png
00000014,295,0,1450196501041,1450196501602,879,453,0,0,0,1,3,2,4,0004-00-0000-82.png,0002-00-0001-57.png
00000014,296,1,1450196504573,1450196505091,950,482,0,0,0,3,2,1,5,0002-00-0000-60.png,0003-00-0001-92.png
00000014,297,1,1450196506169,1450196506881,861,492,0,0,0,4,2,2,6,0001-00-0000-39.png,0003-00-0000-34.png
00000014,298,1,1450196508152,1450196508694,927,450,0,0,0,3,0,3,3,0002-00-0000-21.png,0005-00-0000-62.png
00000014,299,0,1450196509964,1450196510499,901,461,0,0,0,2,3,1,5,0003-00-0000-91.png,0002-00-0001-44.png
00000014,300,1,1450196513379,1450196513921,923,463,0,0,0,4,0,4,4,0001-00-0001-83.png,0005-00-0001-20.png
00000014,301,1,1450196515014,1450196515426,337,474,0,0,0,0,2,2,2,0005-00-0000-74.png,0003-00-0001-59.png
00000014,302,0,1450196516672,1450196517192,907,475,0,0,0,2,4,2,6,0003-00-0001-47.png,0001-00-0000-37.png
00000014,303,0,1450196520070,1450196520514,969,487,0,0,0,3,4,1,7,0002-00-0000-01.png,0001-00-0000-03.png
00000014,304,1,1450196523441,1450196523867,960,447,0,0,0,3,0,3,3,0002-00-0000-94.png,0005-00-0000-03.png
00000014,305,0,1450196524872,1450196525577,950,488,0,0,0,1,2,1,3,0004-00-0001-85.png,0003-00-0001-38.png
00000014,306,1,1450196528490,1450196528506,505,439,0,0,0,2,3,1,5,0003-00-0000-40.png,0002-00-0000-37.png
00000014,307,1,1450196529673,1450196530164,927,424,0,0,0,3,2,1,5,0002-00-0001-85.png,0003-00-0000-64.png
00000014,308,0,1450196531421,1450196531912,876,565,0,0,0,1,4,3,5,0004-00-0000-63.png,0001-00-0000-02.png
00000014,309,1,1450196534966,1450196535339,947,471,0,0,0,2,0,2,2,0003-00-0000-20.png,0005-00-0000-09.png
00000014,310,1,1450196536569,1450196537002,387,410,0,0,0,0,4,4,4,0005-00-0001-28.png,0001-00-0001-57.png
00000014,311,0,1450196538191,1450196538227,517,488,0,0,0,4,2,2,6,0001-00-0001-20.png,0003-00-0001-87.png
00000014,312,1,1450196541132,1450196541588,930,453,0,0,0,2,1,1,3,0003-00-0000-74.png,0004-00-0001-59.png
00000014,313,1,1450196542748,1450196543258,862,410,0,0,0,4,3,1,7,0001-00-0000-54.png,0002-00-0000-29.png
00000014,314,1,1450196544541,1450196545024,901,434,0,0,0,3,1,2,4,0002-00-0001-60.png,0004-00-0001-64.png
00000014,315,1,1450196546321,1450196546796,869,471,0,0,0,4,1,3,5,0001-00-0000-65.png,0004-00-0000-23.png
00000014,316,1,1450196548081,1450196548614,909,455,0,0,0,1,0,1,1,0004-00-0000-19.png,0005-00-0001-90.png
00000014,317,1,1450196549760,1450196550233,384,560,0,0,0,1,3,2,4,0004-00-0000-64.png,0002-00-0000-18.png
00000014,318,1,1450196551600,1450196552115,900,463,0,0,0,4,0,4,4,0001-00-0001-69.png,0005-00-0001-60.png
00000014,319,1,1450196553399,1450196553889,478,488,0,0,0,0,1,1,1,0005-00-0001-73.png,0004-00-0000-17.png
00000014,320,1,1450196555288,1450196555681,325,476,0,0,0,0,3,3,3,0005-00-0000-16.png,0002-00-0001-04.png
00000014,321,1,1450196557016,1450196557429,337,469,0,0,0,1,3,2,4,0004-00-0001-06.png,0002-00-0000-21.png
00000014,322,1,1450196558766,1450196559312,890,449,0,0,0,4,2,2,6,0001-00-0001-71.png,0003-00-0000-00.png
00000014,323,1,1450196560617,1450196561035,399,492,0,0,0,0,4,4,4,0005-00-0001-21.png,0001-00-0000-70.png
00000014,324,1,1450196562504,1450196562988,903,442,0,0,0,3,1,2,4,0002-00-0000-92.png,0004-00-0001-79.png
00000014,325,0,1450196564432,1450196564857,453,539,0,0,0,3,2,1,5,0002-00-0001-75.png,0003-00-0000-91.png
00000014,326,1,1450196567761,1450196568295,396,541,0,0,0,0,2,2,2,0005-00-0000-14.png,0003-00-0001-13.png
00000014,327,0,1450196569899,1450196570394,864,459,0,0,0,2,4,2,6,0003-00-0000-47.png,0001-00-0000-95.png
00000014,328,1,1450196573359,1450196573756,879,401,0,0,0,3,0,3,3,0002-00-0001-20.png,0005-00-0000-97.png
00000014,329,1,1450196574933,1450196575440,905,419,0,0,0,2,0,2,2,0003-00-0001-38.png,0005-00-0000-20.png
00000014,330,1,1450196576707,1450196577265,901,450,0,0,0,4,1,3,5,0001-00-0000-28.png,0004-00-0000-86.png
00000014,331,0,1450196578535,1450196579050,917,439,0,0,0,3,4,1,7,0002-00-0000-77.png,0001-00-0000-89.png
00000014,332,0,1450196581911,1450196582396,976,476,0,0,0,1,4,3,5,0004-00-0001-08.png,0001-00-0000-25.png
00000014,333,1,1450196585308,1450196585826,465,410,0,0,0,0,3,3,3,0005-00-0000-16.png,0002-00-0000-67.png
00000014,334,1,1450196587693,1450196588110,900,463,0,0,0,4,0,4,4,0001-00-0001-49.png,0005-00-0001-26.png
00000014,335,1,1450196589399,1450196590487,383,507,0,0,0,0,1,1,1,0005-00-0000-34.png,0004-00-0000-57.png
00000014,336,0,1450196591675,1450196592115,453,448,0,0,0,1,0,1,1,0004-00-0001-35.png,0005-00-0001-50.png
00000014,337,1,1450196595194,1450196595625,398,445,0,0,0,1,2,1,3,0004-00-0001-35.png,0003-00-0000-22.png
00000014,338,0,1450196596790,1450196597326,875,545,0,0,0,2,3,1,5,0003-00-0000-78.png,0002-00-0001-79.png
00000014,339,1,1450196600311,1450196600756,977,475,0,0,0,2,1,1,3,0003-00-0001-07.png,0004-00-0000-88.png
00000014,340,0,1450196601952,1450196602455,404,523,0,0,0,4,3,1,7,0001-00-0001-31.png,0002-00-0000-89.png
00000014,341,1,1450196605888,1450196606309,420,393,0,0,0,0,3,3,3,0005-00-0001-58.png,0002-00-0000-94.png
00000014,342,0,1450196607418,1450196607887,865,521,0,0,0,1,4,3,5,0004-00-0001-14.png,0001-00-0000-81.png
00000014,343,0,1450196610972,1450196611431,985,521,0,0,0,3,4,1,7,0002-00-0000-81.png,0001-00-0000-36.png
00000014,344,0,1450196614312,1450196614802,977,479,0,0,0,2,4,2,6,0003-00-0001-47.png,0001-00-0000-69.png
00000014,345,1,1450196617864,1450196618289,978,435,0,0,0,4,0,4,4,0001-00-0000-57.png,0005-00-0000-43.png
00000014,346,0,1450196619344,1450196620169,371,399,0,0,0,2,1,1,3,0003-00-0000-10.png,0004-00-0001-14.png
00000014,347,1,1450196623082,1450196623506,1002,439,0,0,0,2,0,2,2,0003-00-0000-56.png,0005-00-0000-64.png
00000014,348,1,1450196624709,1450196625387,900,438,0,0,0,4,2,2,6,0001-00-0000-10.png,0003-00-0000-65.png
00000014,349,1,1450196626552,1450196627090,900,436,0,0,0,1,0,1,1,0004-00-0001-33.png,0005-00-0001-42.png
00000014,350,1,1450196628261,1450196628683,370,461,0,0,0,0,4,4,4,0005-00-0001-96.png,0001-00-0000-34.png
00000014,351,1,1450196630398,1450196630881,376,466,0,0,0,0,1,1,1,0005-00-0001-82.png,0004-00-0000-87.png
00000014,352,1,1450196632100,1450196632760,423,410,0,0,0,1,2,1,3,0004-00-0001-93.png,0003-00-0000-53.png
00000014,353,0,1450196633957,1450196634534,888,501,0,0,0,2,3,1,5,0003-00-0001-43.png,0002-00-0000-00.png
00000014,354,1,1450196637670,1450196638216,967,501,0,0,0,4,1,3,5,0001-00-0000-27.png,0004-00-0001-23.png
00000014,355,1,1450196639410,1450196639898,913,410,0,0,0,4,3,1,7,0001-00-0001-10.png,0002-00-0000-08.png
00000014,356,0,1450196641163,1450196641191,504,500,0,0,0,3,0,3,3,0002-00-0001-15.png,0005-00-0001-21.png
00000014,357,1,1450196644184,1450196644845,990,495,0,0,0,3,1,2,4,0002-00-0000-78.png,0004-00-0001-10.png
00000014,358,1,1450196646013,1450196646437,423,491,0,0,0,0,2,2,2,0005-00-0000-13.png,0003-00-0000-28.png
00000014,359,1,1450196647674,1450196648127,363,446,0,0,0,1,3,2,4,0004-00-0001-04.png,0002-00-0000-41.png
00000014,360,0,1450196649434,1450196650051,379,406,0,0,0,3,2,1,5,0002-00-0001-42.png,0003-00-0000-59.png
00000014,361,1,1450196652917,1450196653368,1001,448,0,0,0,4,2,2,6,0001-00-0000-70.png,0003-00-0001-56.png
00000014,362,1,1450196654512,1450196655003,911,450,0,0,0,3,0,3,3,0002-00-0001-84.png,0005-00-0001-20.png
00000014,363,0,1450196656206,1450196656744,381,430,0,0,0,3,2,1,5,0002-00-0001-78.png,0003-00-0001-86.png
00000014,364,1,1450196659607,1450196659646,516,449,0,0,0,0,4,4,4,0005-00-0000-17.png,0001-00-0000-06.png
00000014,365,0,1450196660750,1450196661390,930,499,0,0,0,3,4,1,7,0002-00-0001-41.png,0001-00-0001-47.png
00000014,366,1,1450196664540,1450196664932,977,463,0,0,0,4,0,4,4,0001-00-0001-47.png,0005-00-0000-62.png
00000014,367,0,1450196666764,1450196667242,900,411,0,0,0,2,4,2,6,0003-00-0001-82.png,0001-00-0001-11.png
00000014,368,0,1450196670259,1450196670702,899,493,0,0,0,0,1,1,1,0005-00-0001-87.png,0004-00-0000-04.png
00000014,369,1,1450196673681,1450196674247,421,539,0,0,0,1,2,1,3,0004-00-0001-02.png,0003-00-0000-92.png
00000014,370,0,1450196675337,1450196675889,937,465,0,0,0,1,3,2,4,0004-00-0000-70.png,0002-00-0000-89.png
00000014,371,1,1450196678959,1450196679408,1010,499,0,0,0,3,1,2,4,0002-00-0001-58.png,0004-00-0000-69.png
00000014,372,1,1450196680659,1450196681150,925,463,0,0,0,2,1,1,3,0003-00-0000-82.png,0004-00-0001-66.png
00000014,373,1,1450196682455,1450196682895,345,452,0,0,0,0,2,2,2,0005-00-0001-68.png,0003-00-0000-90.png
00000014,374,1,1450196684168,1450196684770,919,455,0,0,0,4,1,3,5,0001-00-0000-83.png,0004-00-0001-51.png
00000014,375,0,1450196685938,1450196686516,890,490,0,0,0,2,3,1,5,0003-00-0000-75.png,0002-00-0000-20.png
00000014,376,1,1450196689523,1450196689978,975,483,0,0,0,2,0,2,2,0003-00-0001-92.png,0005-00-0000-79.png
00000014,377,1,1450196691538,1450196691998,462,456,0,0,0,0,3,3,3,0005-00-0000-83.png,0002-00-0001-31.png
00000014,378,1,1450196693223,1450196693694,913,476,0,0,0,1,0,1,1,0004-00-0000-66.png,0005-00-0000-62.png
00000014,379,1,1450196695061,1450196695484,427,488,0,0,0,1,4,3,5,0004-00-0000-38.png,0001-00-0000-43.png
00000014,380,1,1450196696891,1450196697441,899,438,0,0,0,4,3,1,7,0001-00-0001-09.png,0002-00-0000-57.png
00000014,381,1,1450196698784,1450196699281,383,480,0,0,0,1,3,2,4,0004-00-0001-24.png,0002-00-0001-00.png
00000014,382,1,1450196700595,1450196701001,358,472,0,0,0,1,4,3,5,0004-00-0001-75.png,0001-00-0001-63.png
00000014,383,1,1450196702308,1450196702791,386,474,0,0,0,2,4,2,6,0003-00-0000-00.png,0001-00-0001-66.png
00000014,384,1,1450196704333,1450196704859,866,456,0,0,0,2,1,1,3,0003-00-0001-14.png,0004-00-0000-83.png
00000014,385,1,1450196706206,1450196706731,900,501,0,0,0,2,0,2,2,0003-00-0000-06.png,0005-00-0000-98.png
00000014,386,0,1450196708029,1450196708454,409,498,0,0,0,4,0,4,4,0001-00-0001-98.png,0005-00-0000-72.png
00000014,387,1,1450196711559,1450196712040,368,453,0,0,0,0,1,1,1,0005-00-0000-88.png,0004-00-0000-19.png
00000014,388,1,1450196713267,1450196713697,350,474,0,0,0,0,4,4,4,0005-00-0000-22.png,0001-00-0001-47.png
00000014,389,1,1450196714904,1450196715452,912,476,0,0,0,1,0,1,1,0004-00-0000-97.png,0005-00-0000-47.png
00000014,390,1,1450196716811,1450196717323,879,452,0,0,0,4,1,3,5,0001-00-0000-54.png,0004-00-0000-46.png
00000014,391,1,1450196718638,1450196719120,900,463,0,0,0,3,1,2,4,0002-00-0000-56.png,0004-00-0000-23.png
00000014,392,0,1450196720457,1450196720954,895,453,0,0,0,1,2,1,3,0004-00-0001-51.png,0003-00-0000-68.png
00000014,393,0,1450196724027,1450196724051,513,416,0,0,0,4,3,1,7,0001-00-0000-25.png,0002-00-0000-39.png
00000014,394,0,1450196726964,1450196727346,963,437,0,0,0,0,3,3,3,0005-00-0001-28.png,0002-00-0001-84.png
00000014,395,1,1450196730439,1450196730851,952,450,0,0,0,4,2,2,6,0001-00-0001-75.png,0003-00-0001-67.png
00000014,396,0,1450196732027,1450196732566,901,450,0,0,0,3,4,1,7,0002-00-0001-57.png,0001-00-0000-24.png
00000014,397,1,1450196735924,1450196736318,955,466,0,0,0,3,0,3,3,0002-00-0001-19.png,0005-00-0001-98.png
00000014,398,0,1450196737423,1450196738066,877,469,0,0,0,2,3,1,5,0003-00-0001-07.png,0002-00-0000-97.png
00000014,399,1,1450196740912,1450196741426,395,408,0,0,0,0,2,2,2,0005-00-0000-38.png,0003-00-0000-54.png
00000014,400,1,1450196742493,1450196743087,922,419,0,0,0,3,2,1,5,0002-00-0000-18.png,0003-00-0001-31.png
00000014,401,0,1450196744451,1450196745206,468,560,0,0,0,3,0,3,3,0002-00-0000-85.png,0005-00-0001-95.png
00000014,402,1,1450196748174,1450196748644,876,444,0,0,0,4,0,4,4,0001-00-0000-04.png,0005-00-0000-79.png
00000014,403,1,1450196749953,1450196750394,405,479,0,0,0,0,2,2,2,0005-00-0001-39.png,0003-00-0000-94.png
00000014,404,1,1450196751675,1450196752130,382,494,0,0,0,0,3,3,3,0005-00-0000-58.png,0002-00-0001-31.png
00000014,405,0,1450196753348,1450196754081,391,443,0,0,0,3,1,2,4,0002-00-0001-54.png,0004-00-0001-63.png
00000014,406,0,1450196757009,1450196757428,952,502,0,0,0,2,3,1,5,0003-00-0000-07.png,0002-00-0001-98.png
00000014,407,1,1450196760480,1450196760957,965,501,0,0,0,1,0,1,1,0004-00-0001-87.png,0005-00-0000-37.png
00000014,408,1,1450196762322,1450196762826,873,538,0,0,0,4,1,3,5,0001-00-0000-05.png,0004-00-0000-90.png
00000014,409,1,1450196763922,1450196764508,901,464,0,0,0,2,0,2,2,0003-00-0001-36.png,0005-00-0001-42.png
00000014,410,1,1450196765672,1450196766147,369,480,0,0,0,3,4,1,7,0002-00-0000-46.png,0001-00-0001-22.png
00000014,411,1,1450196767442,1450196767843,380,470,0,0,0,0,1,1,1,0005-00-0000-93.png,0004-00-0001-48.png
00000014,412,1,1450196769230,1450196769839,909,486,0,0,0,4,2,2,6,0001-00-0000-09.png,0003-00-0000-37.png
00000014,413,1,1450196771017,1450196771474,325,473,0,0,0,0,4,4,4,0005-00-0001-92.png,0001-00-0001-72.png
00000014,414,0,1450196772647,1450196773135,898,483,0,0,0,1,3,2,4,0004-00-0001-80.png,0002-00-0000-79.png
00000014,415,0,1450196776217,1450196776669,939,449,0,0,0,1,2,1,3,0004-00-0001-94.png,0003-00-0001-30.png
00000014,416,0,1450196779529,1450196780110,427,462,0,0,0,3,2,1,5,0002-00-0001-87.png,0003-00-0000-30.png
00000014,417,0,1450196783124,1450196783140,485,434,0,0,0,4,3,1,7,0001-00-0001-83.png,0002-00-0001-28.png
00000014,418,1,1450196786082,1450196786511,926,410,0,0,0,2,1,1,3,0003-00-0001-36.png,0004-00-0001-10.png
00000014,419,0,1450196787696,1450196788229,931,443,0,0,0,1,4,3,5,0004-00-0000-81.png,0001-00-0001-32.png
00000014,420,0,1450196791098,1450196791595,964,504,0,0,0,2,4,2,6,0003-00-0001-51.png,0001-00-0000-83.png
00000014,421,0,1450196794653,1450196794657,515,400,0,0,0,4,1,3,5,0001-00-0001-00.png,0004-00-0000-43.png
00000014,422,1,1450196797892,1450196798287,924,561,0,0,0,4,0,4,4,0001-00-0000-81.png,0005-00-0001-11.png
00000014,423,1,1450196799385,1450196799808,862,410,0,0,0,2,0,2,2,0003-00-0000-77.png,0005-00-0001-99.png
00000014,424,1,1450196801194,1450196801678,897,459,0,0,0,2,1,1,3,0003-00-0000-80.png,0004-00-0001-96.png
00000014,425,0,1450196802899,1450196803351,898,483,0,0,0,1,4,3,5,0004-00-0001-62.png,0001-00-0000-41.png
00000014,426,1,1450196806631,1450196807123,981,494,0,0,0,1,0,1,1,0004-00-0001-90.png,0005-00-0001-72.png
00000014,427,1,1450196808171,1450196809196,874,514,0,0,0,3,0,3,3,0002-00-0000-70.png,0005-00-0000-52.png
00000014,428,1,1450196810389,1450196810828,350,451,0,0,0,0,4,4,4,0005-00-0001-79.png,0001-00-0000-40.png
00000014,429,0,1450196812049,1450196812644,380,408,0,0,0,4,2,2,6,0001-00-0001-32.png,0003-00-0001-26.png
00000014,430,1,1450196815575,1450196816076,401,423,0,0,0,0,3,3,3,0005-00-0001-90.png,0002-00-0001-65.png
00000014,431,0,1450196817166,1450196817660,907,463,0,0,0,1,3,2,4,0004-00-0001-60.png,0002-00-0001-06.png
00000014,432,1,1450196820556,1450196821012,956,454,0,0,0,3,1,2,4,0002-00-0000-00.png,0004-00-0000-71.png
00000014,433,0,1450196822248,1450196822741,930,453,0,0,0,2,3,1,5,0003-00-0000-30.png,0002-00-0001-55.png
00000014,434,0,1450196825875,1450196826365,406,436,0,0,0,4,3,1,7,0001-00-0000-11.png,0002-00-0001-73.png
00000014,435,0,1450196829457,1450196829892,927,502,0,0,0,0,1,1,1,0005-00-0000-49.png,0004-00-0001-08.png
00000014,436,1,1450196832738,1450196832758,476,415,0,0,0,3,4,1,7,0002-00-0001-43.png,0001-00-0001-12.png
00000014,437,1,1450196833802,1450196834326,897,456,0,0,0,3,2,1,5,0002-00-0000-74.png,0003-00-0000-12.png
00000014,438,1,1450196835525,1450196835999,363,450,0,0,0,0,2,2,2,0005-00-0000-15.png,0003-00-0001-02.png
00000014,439,1,1450196837266,1450196837739,397,463,0,0,0,1,2,1,3,0004-00-0001-57.png,0003-00-0000-16.png
00000014,440,0,1450196839064,1450196839657,906,497,0,0,0,2,4,2,6,0003-00-0000-26.png,0001-00-0000-50.png
00000014,441,1,1450196843078,1450196843481,976,462,0,0,0,4,1,3,5,0001-00-0001-53.png,0004-00-0001-60.png
00000014,442,1,1450196844591,1450196845068,896,446,0,0,0,4,0,4,4,0001-00-0001-82.png,0005-00-0001-00.png
00000014,443,1,1450196846310,1450196846792,892,451,0,0,0,3,0,3,3,0002-00-0000-78.png,0005-00-0000-50.png
00000014,444,1,1450196848079,1450196848592,899,464,0,0,0,3,1,2,4,0002-00-0001-33.png,0004-00-0000-94.png
00000014,445,1,1450196849813,1450196849881,492,514,0,0,0,3,4,1,7,0002-00-0000-98.png,0001-00-0001-34.png
00000014,446,1,1450196851181,1450196851810,895,483,0,0,0,4,2,2,6,0001-00-0001-57.png,0003-00-0001-03.png
00000014,447,0,1450196853058,1450196853489,431,484,0,0,0,4,3,1,7,0001-00-0001-75.png,0002-00-0000-64.png
00000014,448,1,1450196856468,1450196856484,486,418,0,0,0,0,2,2,2,0005-00-0001-27.png,0003-00-0000-83.png
00000014,449,0,1450196857666,1450196858179,900,470,0,0,0,1,2,1,3,0004-00-0000-25.png,0003-00-0000-75.png
00000014,450,1,1450196861555,1450196861944,986,500,0,0,0,3,2,1,5,0002-00-0001-94.png,0003-00-0001-61.png
00000014,451,0,1450196863055,1450196863567,325,461,0,0,0,1,0,1,1,0004-00-0000-88.png,0005-00-0001-94.png
00000014,452,0,1450196868165,1450196868578,951,462,0,0,0,0,4,4,4,0005-00-0000-19.png,0001-00-0000-32.png
00000014,453,0,1450196871720,1450196872097,978,488,0,0,0,0,3,3,3,0005-00-0000-93.png,0002-00-0001-69.png
00000014,454,0,1450196875093,1450196875555,990,492,0,0,0,2,3,1,5,0003-00-0000-77.png,0002-00-0001-30.png
00000014,455,1,1450196878601,1450196879055,900,439,0,0,0,2,1,1,3,0003-00-0001-83.png,0004-00-0001-23.png
00000014,456,1,1450196880143,1450196880648,429,445,0,0,0,1,3,2,4,0004-00-0001-96.png,0002-00-0001-36.png
00000014,457,1,1450196881832,1450196882354,922,458,0,0,0,2,0,2,2,0003-00-0001-58.png,0005-00-0000-81.png
00000014,458,0,1450196883563,1450196884130,897,482,0,0,0,1,4,3,5,0004-00-0001-52.png,0001-00-0000-36.png
00000014,459,0,1450196887716,1450196888159,951,448,0,0,0,2,4,2,6,0003-00-0000-24.png,0001-00-0000-49.png
00000014,460,0,1450196891473,1450196892256,960,498,0,0,0,0,1,1,1,0005-00-0001-14.png,0004-00-0000-93.png
00000014,461,0,1450196895132,1450196895633,931,466,0,0,0,2,4,2,6,0003-00-0001-23.png,0001-00-0001-66.png
00000014,462,1,1450196898897,1450196899331,976,497,0,0,0,4,3,1,7,0001-00-0000-72.png,0002-00-0000-81.png
00000014,463,1,1450196900411,1450196900904,871,471,0,0,0,2,0,2,2,0003-00-0000-70.png,0005-00-0000-96.png
00000014,464,1,1450196902037,1450196902501,900,450,0,0,0,3,0,3,3,0002-00-0001-28.png,0005-00-0000-98.png
00000014,465,0,1450196903627,1450196904018,358,484,0,0,0,4,2,2,6,0001-00-0001-99.png,0003-00-0000-03.png
00000014,466,0,1450196907243,1450196907641,897,419,0,0,0,1,4,3,5,0004-00-0001-65.png,0001-00-0000-21.png
00000014,467,1,1450196910788,1450196911205,965,475,0,0,0,4,1,3,5,0001-00-0000-10.png,0004-00-0001-90.png
00000014,468,0,1450196912268,1450196912744,412,427,0,0,0,1,0,1,1,0004-00-0000-32.png,0005-00-0000-50.png
00000014,469,1,1450196915868,1450196916272,922,445,0,0,0,3,2,1,5,0002-00-0000-29.png,0003-00-0001-61.png
00000014,470,0,1450196917501,1450196918035,913,450,0,0,0,2,3,1,5,0003-00-0001-80.png,0002-00-0000-55.png
00000014,471,1,1450196921079,1450196921518,427,450,0,0,0,0,2,2,2,0005-00-0000-27.png,0003-00-0001-18.png
00000014,472,1,1450196922771,1450196923360,380,441,0,0,0,1,3,2,4,0004-00-0001-71.png,0002-00-0001-35.png
00000014,473,1,1450196924628,1450196925098,900,438,0,0,0,4,0,4,4,0001-00-0000-86.png,0005-00-0001-72.png
00000014,474,0,1450196926207,1450196926733,879,453,0,0,0,1,2,1,3,0004-00-0000-45.png,0003-00-0001-55.png
00000014,475,0,1450196930076,1450196930496,951,512,0,0,0,0,3,3,3,0005-00-0001-81.png,0002-00-0000-08.png
00000014,476,1,1450196933594,1450196934075,381,437,0,0,0,0,4,4,4,0005-00-0000-35.png,0001-00-0001-11.png
00000014,477,1,1450196935177,1450196935764,921,550,0,0,0,3,1,2,4,0002-00-0000-19.png,0004-00-0001-28.png
00000014,478,0,1450196937427,1450196937965,888,450,0,0,0,3,4,1,7,0002-00-0001-52.png,0001-00-0001-33.png
00000014,479,1,1450196940814,1450196941776,901,486,0,0,0,2,1,1,3,0003-00-0001-28.png,0004-00-0001-15.png
00000014,480,1,1450196942954,1450196943392,427,450,0,0,0,0,1,1,1,0005-00-0000-55.png,0004-00-0000-22.png
00000014,481,0,1450196944606,1450196945129,925,449,0,0,0,0,2,2,2,0005-00-0000-81.png,0003-00-0000-33.png
00000014,482,0,1450196948172,1450196948589,997,517,0,0,0,0,4,4,4,0005-00-0001-61.png,0001-00-0000-59.png
00000014,483,0,1450196953767,1450196954327,465,375,0,0,0,4,1,3,5,0001-00-0001-76.png,0004-00-0001-56.png
00000014,484,1,1450196957177,1450196957754,954,491,0,0,0,4,2,2,6,0001-00-0001-84.png,0003-00-0001-79.png
00000014,485,1,1450196958805,1450196959342,862,554,0,0,0,1,0,1,1,0004-00-0001-86.png,0005-00-0001-71.png
00000014,486,1,1450196960678,1450196961152,900,443,0,0,0,2,1,1,3,0003-00-0000-96.png,0004-00-0001-03.png
00000014,487,1,1450196962393,1450196962927,900,463,0,0,0,4,0,4,4,0001-00-0000-08.png,0005-00-0001-93.png
00000014,488,1,1450196964165,1450196964583,366,467,0,0,0,3,4,1,7,0002-00-0000-31.png,0001-00-0001-98.png
00000014,489,1,1450196965853,1450196966370,875,501,0,0,0,3,2,1,5,0002-00-0000-64.png,0003-00-0000-53.png
00000014,490,1,1450196967684,1450196968118,413,422,0,0,0,0,1,1,1,0005-00-0001-21.png,0004-00-0000-02.png
00000014,491,1,1450196969338,1450196969760,453,489,0,0,0,1,3,2,4,0004-00-0001-58.png,0002-00-0001-49.png
00000014,492,1,1450196971062,1450196971535,900,437,0,0,0,3,1,2,4,0002-00-0001-97.png,0004-00-0000-34.png
00000014,493,1,1450196972832,1450196973360,920,437,0,0,0,4,3,1,7,0001-00-0000-64.png,0002-00-0000-53.png
00000014,494,1,1450196974525,1450196975033,896,460,0,0,0,2,0,2,2,0003-00-0001-86.png,0005-00-0000-74.png
00000014,495,1,1450196976252,1450196976607,423,487,0,0,0,1,4,3,5,0004-00-0000-00.png,0001-00-0001-00.png
00000014,496,0,1450196977865,1450196978404,866,458,0,0,0,1,2,1,3,0004-00-0000-06.png,0003-00-0000-77.png
00000014,497,1,1450196983358,1450196983804,435,458,0,0,0,0,3,3,3,0005-00-0000-62.png,0002-00-0000-56.png
00000014,498,1,1450196984889,1450196985365,887,476,0,0,0,3,0,3,3,0002-00-0001-44.png,0005-00-0001-71.png
00000014,499,0,1450196986450,1450196986969,879,479,0,0,0,2,3,1,5,0003-00-0000-06.png,0002-00-0000-27.png
00000014,500,0,1450196990057,1450196990476,933,474,0,0,0,2,4,2,6,0003-00-0000-83.png,0001-00-0000-97.png
00000014,501,0,1450196993584,1450196993983,952,435,0,0,0,2,4,2,6,0003-00-0000-22.png,0001-00-0000-25.png
00000014,502,0,1450196997006,1450196997419,970,486,0,0,0,1,3,2,4,0004-00-0001-76.png,0002-00-0001-39.png
00000014,503,0,1450197003753,1450197004153,1002,474,0,0,0,1,4,3,5,0004-00-0001-87.png,0001-00-0000-91.png
00000014,504,1,1450197007010,1450197007446,952,492,0,0,0,2,0,2,2,0003-00-0000-08.png,0005-00-0001-23.png
00000014,505,1,1450197008474,1450197008972,436,458,0,0,0,1,2,1,3,0004-00-0000-28.png,0003-00-0000-69.png
00000014,506,1,1450197010024,1450197010453,376,488,0,0,0,0,4,4,4,0005-00-0000-54.png,0001-00-0000-32.png
00000014,507,0,1450197011584,1450197012064,358,497,0,0,0,4,3,1,7,0001-00-0001-88.png,0002-00-0000-23.png
00000014,508,0,1450197015949,1450197016383,925,410,0,0,0,2,3,1,5,0003-00-0001-35.png,0002-00-0001-08.png
00000014,509,1,1450197019396,1450197019830,952,489,0,0,0,4,2,2,6,0001-00-0000-39.png,0003-00-0000-35.png
00000014,510,1,1450197020889,1450197021399,876,436,0,0,0,3,0,3,3,0002-00-0001-80.png,0005-00-0001-42.png
00000014,511,0,1450197022395,1450197022823,426,523,0,0,0,3,1,2,4,0002-00-0000-19.png,0004-00-0001-54.png
00000014,512,0,1450197026285,1450197026722,943,521,0,0,0,3,4,1,7,0002-00-0001-54.png,0001-00-0000-68.png
00000014,513,1,1450197029693,1450197029709,514,451,0,0,0,0,2,2,2,0005-00-0001-26.png,0003-00-0000-97.png
00000014,514,1,1450197031032,1450197031600,951,464,0,0,0,3,2,1,5,0002-00-0000-22.png,0003-00-0000-07.png
00000014,515,1,1450197032815,1450197033259,900,449,0,0,0,2,1,1,3,0003-00-0000-75.png,0004-00-0001-72.png
00000014,516,0,1450197034440,1450197034937,427,462,0,0,0,4,1,3,5,0001-00-0001-54.png,0004-00-0000-34.png
00000014,517,0,1450197038310,1450197038796,900,462,0,0,0,0,3,3,3,0005-00-0001-37.png,0002-00-0001-68.png
00000014,518,1,1450197043438,1450197044035,449,499,0,0,0,0,1,1,1,0005-00-0000-04.png,0004-00-0000-92.png
00000014,519,0,1450197045098,1450197045646,412,479,0,0,0,1,0,1,1,0004-00-0000-18.png,0005-00-0001-04.png
00000014,520,1,1450197049192,1450197049688,956,492,0,0,0,4,0,4,4,0001-00-0001-27.png,0005-00-0001-97.png
00000014,521,1,1450197050704,1450197051258,874,541,0,0,0,4,2,2,6,0001-00-0000-91.png,0003-00-0000-33.png
00000014,522,1,1450197052304,1450197052728,366,476,0,0,0,1,4,3,5,0004-00-0000-75.png,0001-00-0001-83.png
00000014,523,1,1450197053774,1450197054339,396,422,0,0,0,1,2,1,3,0004-00-0001-10.png,0003-00-0000-43.png
00000014,524,0,1450197055464,1450197055875,437,495,0,0,0,4,3,1,7,0001-00-0000-87.png,0002-00-0000-64.png
00000014,525,0,1450197064980,1450197065401,998,463,0,0,0,0,2,2,2,0005-00-0001-44.png,0003-00-0001-65.png
00000014,526,1,1450197068438,1450197069300,922,498,0,0,0,4,0,4,4,0001-00-0001-22.png,0005-00-0000-32.png
00000014,527,1,1450197070263,1450197070711,926,450,0,0,0,2,0,2,2,0003-00-0000-01.png,0005-00-0001-49.png
00000014,528,1,1450197071694,1450197072727,484,457,0,0,0,2,4,2,6,0003-00-0001-53.png,0001-00-0000-44.png
00000014,529,1,1450197073709,1450197074145,427,474,0,0,0,2,3,1,5,0003-00-0001-47.png,0002-00-0001-52.png
00000014,530,1,1450197075111,1450197075617,888,450,0,0,0,3,1,2,4,0002-00-0001-47.png,0004-00-0001-11.png
00000014,531,1,1450197076599,1450197077037,357,471,0,0,0,0,3,3,3,0005-00-0000-74.png,0002-00-0000-30.png
00000014,532,0,1450197078993,1450197079423,394,497,0,0,0,3,2,1,5,0002-00-0000-99.png,0003-00-0001-25.png
00000014,533,0,1450197082867,1450197083238,947,446,0,0,0,1,3,2,4,0004-00-0001-74.png,0002-00-0000-88.png
00000014,534,1,1450197088984,1450197089350,926,552,0,0,0,1,0,1,1,0004-00-0001-88.png,0005-00-0000-20.png
00000014,535,1,1450197090994,1450197091434,408,501,0,0,0,0,1,1,1,0005-00-0001-49.png,0004-00-0001-09.png
00000014,536,0,1450197092489,1450197093021,925,475,0,0,0,3,4,1,7,0002-00-0001-21.png,0001-00-0000-14.png
00000014,537,1,1450197097575,1450197097944,959,473,0,0,0,2,1,1,3,0003-00-0000-83.png,0004-00-0000-25.png
00000014,538,1,1450197099086,1450197099598,921,486,0,0,0,3,0,3,3,0002-00-0001-89.png,0005-00-0000-20.png
00000014,539,1,1450197100759,1450197101211,401,475,0,0,0,0,4,4,4,0005-00-0000-01.png,0001-00-0001-14.png
00000014,540,1,1450197102226,1450197102790,925,465,0,0,0,4,1,3,5,0001-00-0000-89.png,0004-00-0000-76.png
00000014,541,0,1450197103767,1450197104211,401,514,0,0,0,2,1,1,3,0003-00-0001-24.png,0004-00-0001-17.png
00000014,542,0,1450197122163,1450197122572,931,348,0,0,0,2,3,1,5,0003-00-0001-92.png,0002-00-0001-17.png
00000014,543,1,1450197152284,1450197152657,963,450,0,0,0,1,0,1,1,0004-00-0001-29.png,0005-00-0000-63.png
00000014,544,1,1450197153718,1450197154274,904,493,0,0,0,3,0,3,3,0002-00-0000-90.png,0005-00-0001-42.png
00000014,545,1,1450197155215,1450197155337,504,534,0,0,0,0,2,2,2,0005-00-0000-79.png,0003-00-0001-46.png
00000014,546,0,1450197156744,1450197157683,401,449,0,0,0,2,0,2,2,0003-00-0000-44.png,0005-00-0000-55.png
00000014,547,0,1450197163497,1450197163915,939,410,0,0,0,1,3,2,4,0004-00-0000-19.png,0002-00-0000-66.png
00000014,548,0,1450197167641,1450197168071,958,506,0,0,0,3,4,1,7,0002-00-0000-79.png,0001-00-0001-04.png
00000014,549,1,1450197171247,1450197171688,986,467,0,0,0,4,2,2,6,0001-00-0001-23.png,0003-00-0000-04.png
00000014,550,1,1450197173159,1450197173590,453,450,0,0,0,0,3,3,3,0005-00-0001-78.png,0002-00-0001-20.png
00000014,551,1,1450197175102,1450197175537,389,436,0,0,0,1,4,3,5,0004-00-0000-96.png,0001-00-0000-53.png
00000014,552,1,1450197176590,1450197177176,862,410,0,0,0,4,3,1,7,0001-00-0000-90.png,0002-00-0001-00.png
00000014,553,0,1450197178155,1450197178678,862,476,0,0,0,2,4,2,6,0003-00-0000-53.png,0001-00-0000-38.png
00000014,554,1,1450197183722,1450197184187,976,410,0,0,0,4,1,3,5,0001-00-0000-34.png,0004-00-0000-43.png
00000014,555,1,1450197185421,1450197185876,364,521,0,0,0,1,2,1,3,0004-00-0001-24.png,0003-00-0000-37.png
00000014,556,1,1450197187468,1450197187919,878,402,0,0,0,3,2,1,5,0002-00-0000-14.png,0003-00-0000-65.png
00000014,557,1,1450197189031,1450197189475,453,488,0,0,0,0,1,1,1,0005-00-0001-70.png,0004-00-0000-33.png
00000014,558,1,1450197190641,1450197191050,387,488,0,0,0,0,4,4,4,0005-00-0000-07.png,0001-00-0000-75.png
00000014,559,0,1450197192255,1450197192664,478,501,0,0,0,3,1,2,4,0002-00-0000-88.png,0004-00-0001-91.png
00000014,560,1,1450197196285,1450197196983,907,456,0,0,0,4,0,4,4,0001-00-0001-48.png,0005-00-0001-62.png
00000014,561,1,1450197198044,1450197198532,401,488,0,0,0,1,3,2,4,0004-00-0000-60.png,0002-00-0000-21.png
00000014,562,1,1450197199587,1450197200113,869,550,0,0,0,4,1,3,5,0001-00-0001-49.png,0004-00-0001-50.png
00000014,563,0,1450197201276,1450197201871,926,476,0,0,0,2,3,1,5,0003-00-0001-11.png,0002-00-0001-45.png
00000014,564,0,1450197205537,1450197205977,947,497,0,0,0,0,3,3,3,0005-00-0001-10.png,0002-00-0001-21.png
00000014,565,0,1450197209097,1450197209538,956,480,0,0,0,2,4,2,6,0003-00-0001-54.png,0001-00-0000-52.png
00000014,566,0,1450197217882,1450197218267,975,510,0,0,0,1,4,3,5,0004-00-0001-21.png,0001-00-0001-83.png
00000014,567,0,1450197223062,1450197223464,956,479,0,0,0,0,1,1,1,0005-00-0000-29.png,0004-00-0001-35.png
00000014,568,0,1450197227697,1450197228214,465,424,0,0,0,4,3,1,7,0001-00-0001-41.png,0002-00-0001-94.png
00000014,569,1,1450197237890,1450197238292,956,427,0,0,0,3,0,3,3,0002-00-0000-80.png,0005-00-0000-98.png
00000014,570,1,1450197239425,1450197240202,413,485,0,0,0,3,4,1,7,0002-00-0000-04.png,0001-00-0001-45.png
00000014,571,1,1450197241443,1450197241854,437,496,0,0,0,0,4,4,4,0005-00-0001-56.png,0001-00-0001-68.png
00000014,572,0,1450197243068,1450197243098,481,547,0,0,0,2,0,2,2,0003-00-0000-22.png,0005-00-0000-15.png
00000014,573,1,1450197248509,1450197249026,975,518,0,0,0,3,1,2,4,0002-00-0000-31.png,0004-00-0000-28.png
00000014,574,1,1450197250199,1450197250697,897,457,0,0,0,1,0,1,1,0004-00-0001-34.png,0005-00-0001-88.png
00000014,575,0,1450197252426,1450197253010,914,463,0,0,0,0,2,2,2,0005-00-0000-18.png,0003-00-0000-14.png
00000014,576,0,1450197256732,1450197257967,401,529,0,0,0,2,1,1,3,0003-00-0001-68.png,0004-00-0001-22.png
00000014,577,1,1450197262950,1450197263366,925,384,0,0,0,3,2,1,5,0002-00-0001-25.png,0003-00-0000-52.png
00000014,578,0,1450197264401,1450197265002,377,428,0,0,0,4,2,2,6,0001-00-0000-91.png,0003-00-0000-95.png
00000014,579,1,1450197268733,1450197269250,463,436,0,0,0,1,2,1,3,0004-00-0001-77.png,0003-00-0001-32.png
00000014,580,1,1450197270303,1450197270902,895,550,0,0,0,4,0,4,4,0001-00-0000-43.png,0005-00-0001-36.png
00000014,581,1,1450197271953,1450197272498,876,555,0,0,0,2,1,1,3,0003-00-0001-57.png,0004-00-0001-01.png
00000014,582,1,1450197273634,1450197274131,384,489,0,0,0,1,3,2,4,0004-00-0001-69.png,0002-00-0001-34.png
00000014,583,1,1450197275273,1450197275836,926,487,0,0,0,4,0,4,4,0001-00-0000-83.png,0005-00-0000-14.png
00000014,584,1,1450197276914,1450197277428,919,431,0,0,0,4,3,1,7,0001-00-0001-37.png,0002-00-0000-39.png
00000014,585,1,1450197278475,1450197279019,931,455,0,0,0,1,0,1,1,0004-00-0001-86.png,0005-00-0001-48.png
00000014,586,1,1450197280167,1450197280634,430,473,0,0,0,1,4,3,5,0004-00-0001-41.png,0001-00-0001-05.png
00000014,587,1,1450197281845,1450197282402,926,462,0,0,0,4,1,3,5,0001-00-0000-18.png,0004-00-0000-77.png
00000014,588,0,1450197283481,1450197283856,445,505,0,0,0,3,2,1,5,0002-00-0000-88.png,0003-00-0001-93.png
00000014,589,1,1450197287062,1450197287559,973,520,0,0,0,3,0,3,3,0002-00-0001-45.png,0005-00-0001-20.png
00000014,590,0,1450197288642,1450197289145,900,488,0,0,0,2,4,2,6,0003-00-0000-96.png,0001-00-0000-22.png
00000014,591,1,1450197293325,1450197293816,926,438,0,0,0,4,2,2,6,0001-00-0000-22.png,0003-00-0000-60.png
00000014,592,0,1450197294886,1450197295421,859,534,0,0,0,2,3,1,5,0003-00-0000-16.png,0002-00-0001-05.png
00000014,593,1,1450197298980,1450197299566,385,418,0,0,0,0,3,3,3,0005-00-0001-10.png,0002-00-0000-45.png
00000014,594,1,1450197301117,1450197301599,363,466,0,0,0,0,1,1,1,0005-00-0000-34.png,0004-00-0001-75.png
00000014,595,1,1450197302765,1450197303340,330,436,0,0,0,0,2,2,2,0005-00-0000-80.png,0003-00-0000-28.png
00000014,596,1,1450197304417,1450197304824,376,501,0,0,0,1,2,1,3,0004-00-0000-17.png,0003-00-0000-08.png
00000014,597,0,1450197305787,1450197306291,881,431,0,0,0,3,4,1,7,0002-00-0000-59.png,0001-00-0001-31.png
00000014,598,0,1450197309486,1450197309975,472,443,0,0,0,3,1,2,4,0002-00-0001-08.png,0004-00-0001-80.png
00000014,599,1,1450197313440,1450197313882,387,421,0,0,0,0,4,4,4,0005-00-0001-00.png,0001-00-0001-63.png
00000014,600,0,1450197315091,1450197315115,501,517,0,0,0,2,0,2,2,0003-00-0000-32.png,0005-00-0001-37.png
00000014,601,1,1450197318787,1450197319252,927,546,0,0,0,3,2,1,5,0002-00-0000-46.png,0003-00-0000-44.png
00000014,602,1,1450197320357,1450197320985,901,461,0,0,0,3,1,2,4,0002-00-0001-58.png,0004-00-0000-66.png
00000014,603,1,1450197322117,1450197322632,925,464,0,0,0,4,0,4,4,0001-00-0001-56.png,0005-00-0000-21.png
00000014,604,0,1450197323713,1450197324414,877,494,0,0,0,0,3,3,3,0005-00-0000-43.png,0002-00-0000-75.png
00000014,605,0,1450197328339,1450197328799,921,552,0,0,0,0,4,4,4,0005-00-0000-48.png,0001-00-0001-35.png
00000014,606,0,1450197332045,1450197332566,381,462,0,0,0,4,2,2,6,0001-00-0001-85.png,0003-00-0000-75.png
00000014,607,0,1450197335653,1450197336175,951,541,0,0,0,3,4,1,7,0002-00-0001-55.png,0001-00-0000-63.png
00000014,608,1,1450197339849,1450197340287,948,565,0,0,0,2,0,2,2,0003-00-0000-58.png,0005-00-0001-30.png
00000014,609,1,1450197341476,1450197342436,345,452,0,0,0,0,1,1,1,0005-00-0000-57.png,0004-00-0001-88.png
00000014,610,1,1450197343664,1450197344103,383,472,0,0,0,1,4,3,5,0004-00-0001-24.png,0001-00-0000-75.png
00000014,611,1,1450197345385,1450197345828,439,467,0,0,0,1,3,2,4,0004-00-0000-08.png,0002-00-0000-44.png
00000014,612,0,1450197346966,1450197347521,898,537,0,0,0,1,2,1,3,0004-00-0001-99.png,0003-00-0001-95.png
00000014,613,0,1450197352966,1450197353432,990,502,0,0,0,2,3,1,5,0003-00-0001-78.png,0002-00-0001-42.png
00000014,614,0,1450197356455,1450197356471,485,392,0,0,0,4,1,3,5,0001-00-0000-39.png,0004-00-0001-36.png
00000014,615,1,1450197362081,1450197362556,926,554,0,0,0,4,3,1,7,0001-00-0001-07.png,0002-00-0000-72.png
00000014,616,0,1450197363600,1450197364132,874,553,0,0,0,2,4,2,6,0003-00-0001-80.png,0001-00-0001-49.png
00000014,617,1,1450197368421,1450197368891,967,481,0,0,0,2,1,1,3,0003-00-0001-99.png,0004-00-0000-96.png
00000014,618,0,1450197369973,1450197369997,504,506,0,0,0,3,0,3,3,0002-00-0000-63.png,0005-00-0001-49.png
00000014,619,1,1450197373719,1450197374232,880,466,0,0,0,1,0,1,1,0004-00-0000-84.png,0005-00-0000-78.png
00000014,620,1,1450197375841,1450197376393,431,484,0,0,0,0,2,2,2,0005-00-0001-14.png,0003-00-0000-85.png
00000014,621,0,1450197377505,1450197378053,421,432,0,0,0,3,1,2,4,0002-00-0001-61.png,0004-00-0001-73.png
00000014,622,1,1450197382056,1450197382497,965,468,0,0,0,3,0,3,3,0002-00-0000-93.png,0005-00-0000-85.png
00000014,623,0,1450197383566,1450197384049,412,514,0,0,0,3,2,1,5,0002-00-0001-13.png,0003-00-0000-35.png
00000014,624,1,1450197387394,1450197388005,996,503,0,0,0,2,1,1,3,0003-00-0000-27.png,0004-00-0001-81.png
00000014,625,0,1450197389132,1450197389180,504,504,0,0,0,4,1,3,5,0001-00-0000-51.png,0004-00-0001-91.png
00000014,626,0,1450197392244,1450197392706,952,527,0,0,0,2,3,1,5,0003-00-0000-01.png,0002-00-0000-71.png
00000014,627,1,1450197395923,1450197396346,924,543,0,0,0,4,0,4,4,0001-00-0000-10.png,0005-00-0000-27.png
00000014,628,1,1450197397452,1450197398018,914,450,0,0,0,1,0,1,1,0004-00-0001-79.png,0005-00-0001-48.png
00000014,629,1,1450197399132,1450197399614,898,456,0,0,0,4,3,1,7,0001-00-0000-74.png,0002-00-0000-48.png
00000014,630,1,1450197400801,1450197401201,339,494,0,0,0,0,2,2,2,0005-00-0001-42.png,0003-00-0000-43.png
00000014,631,0,1450197402383,1450197402939,954,443,0,0,0,2,4,2,6,0003-00-0001-35.png,0001-00-0001-95.png
00000014,632,0,1450197406954,1450197407428,978,469,0,0,0,1,3,2,4,0004-00-0001-15.png,0002-00-0000-42.png
00000014,633,1,1450197410552,1450197410987,888,424,0,0,0,2,0,2,2,0003-00-0000-90.png,0005-00-0000-48.png
00000014,634,0,1450197412122,1450197412599,873,537,0,0,0,1,2,1,3,0004-00-0000-73.png,0003-00-0000-85.png
00000014,635,1,1450197416352,1450197416831,359,418,0,0,0,0,1,1,1,0005-00-0000-41.png,0004-00-0001-28.png
00000014,636,1,1450197417926,1450197418339,385,468,0,0,0,0,3,3,3,0005-00-0000-22.png,0002-00-0001-41.png
00000014,637,0,1450197419477,1450197420034,917,470,0,0,0,1,4,3,5,0004-00-0000-62.png,0001-00-0000-33.png
00000014,638,1,1450197423177,1450197423662,395,400,0,0,0,0,4,4,4,0005-00-0001-04.png,0001-00-0000-38.png
00000014,639,1,1450197424770,1450197425258,860,529,0,0,0,4,2,2,6,0001-00-0000-86.png,0003-00-0000-10.png
00000014,640,1,1450197426467,1450197427021,414,476,0,0,0,3,4,1,7,0002-00-0001-08.png,0001-00-0001-92.png
00000014,641,0,1450197428253,1450197428733,465,524,0,0,0,4,2,2,6,0001-00-0000-40.png,0003-00-0000-64.png
00000014,642,1,1450197432310,1450197432826,370,437,0,0,0,0,1,1,1,0005-00-0000-83.png,0004-00-0000-32.png
00000014,643,1,1450197433939,1450197434521,912,453,0,0,0,3,1,2,4,0002-00-0001-97.png,0004-00-0000-42.png
00000014,644,1,1450197436114,1450197436519,880,454,0,0,0,1,0,1,1,0004-00-0000-99.png,0005-00-0000-38.png
00000014,645,0,1450197438203,1450197438650,925,489,0,0,0,2,4,2,6,0003-00-0001-31.png,0001-00-0000-53.png
00000014,646,1,1450197442180,1450197442607,959,473,0,0,0,3,0,3,3,0002-00-0000-49.png,0005-00-0001-53.png
00000014,647,1,1450197443703,1450197444119,457,484,0,0,0,0,2,2,2,0005-00-0001-96.png,0003-00-0000-96.png
00000014,648,0,1450197445847,1450197446501,925,490,0,0,0,1,2,1,3,0004-00-0000-64.png,0003-00-0001-64.png
00000014,649,1,1450197450311,1450197450752,394,434,0,0,0,0,3,3,3,0005-00-0001-39.png,0002-00-0000-92.png
00000014,650,0,1450197452495,1450197453071,408,559,0,0,0,4,3,1,7,0001-00-0001-66.png,0002-00-0001-64.png
00000014,651,1,1450197456335,1450197457190,470,418,0,0,0,2,3,1,5,0003-00-0001-44.png,0002-00-0000-90.png
00000014,652,1,1450197458347,1450197458874,413,424,0,0,0,3,4,1,7,0002-00-0000-35.png,0001-00-0001-61.png
00000014,653,1,1450197460069,1450197460535,440,449,0,0,0,1,4,3,5,0004-00-0001-55.png,0001-00-0000-40.png
00000014,654,0,1450197461625,1450197462110,382,520,0,0,0,4,0,4,4,0001-00-0000-87.png,0005-00-0001-08.png
00000014,655,1,1450197466071,1450197466587,427,411,0,0,0,1,3,2,4,0004-00-0001-59.png,0002-00-0001-75.png
00000014,656,1,1450197467779,1450197468515,399,481,0,0,0,0,4,4,4,0005-00-0001-98.png,0001-00-0001-55.png
00000014,657,1,1450197469799,1450197470330,916,445,0,0,0,4,1,3,5,0001-00-0001-69.png,0004-00-0000-83.png
00000014,658,1,1450197471618,1450197472101,928,442,0,0,0,2,1,1,3,0003-00-0001-15.png,0004-00-0000-76.png
00000014,659,1,1450197473771,1450197474355,891,495,0,0,0,3,2,1,5,0002-00-0000-11.png,0003-00-0001-76.png
00000014,660,1,1450197475563,1450197476081,916,445,0,0,0,2,0,2,2,0003-00-0001-39.png,0005-00-0001-03.png
00000014,661,1,1450197477189,1450197477617,460,511,0,0,0,0,2,2,2,0005-00-0000-44.png,0003-00-0001-05.png
00000014,662,1,1450197478786,1450197479192,453,488,0,0,0,0,3,3,3,0005-00-0000-32.png,0002-00-0001-39.png
00000014,663,1,1450197480462,1450197480924,357,480,0,0,0,1,2,1,3,0004-00-0000-83.png,0003-00-0000-70.png
00000014,664,1,1450197482124,1450197482706,902,468,0,0,0,1,0,1,1,0004-00-0000-51.png,0005-00-0001-87.png
00000014,665,0,1450197484387,1450197484882,363,475,0,0,0,3,2,1,5,0002-00-0000-66.png,0003-00-0000-62.png
00000014,666,0,1450197488246,1450197488703,925,566,0,0,0,2,4,2,6,0003-00-0001-30.png,0001-00-0000-53.png
00000014,667,1,1450197491605,1450197492089,923,545,0,0,0,4,0,4,4,0001-00-0001-66.png,0005-00-0001-54.png
00000014,668,0,1450197493210,1450197493676,953,449,0,0,0,2,3,1,5,0003-00-0000-57.png,0002-00-0000-64.png
00000014,669,1,1450197496730,1450197497196,953,518,0,0,0,4,1,3,5,0001-00-0000-78.png,0004-00-0001-29.png
00000014,670,1,1450197498372,1450197498911,875,423,0,0,0,3,1,2,4,0002-00-0001-46.png,0004-00-0001-48.png
00000014,671,0,1450197500103,1450197500623,875,463,0,0,0,3,4,1,7,0002-00-0000-81.png,0001-00-0001-78.png
00000014,672,0,1450197503720,1450197504172,966,468,0,0,0,0,1,1,1,0005-00-0001-26.png,0004-00-0000-64.png
00000014,673,1,1450197507357,1450197507862,966,497,0,0,0,4,2,2,6,0001-00-0001-39.png,0003-00-0000-02.png
00000014,674,0,1450197508958,1450197509515,901,437,0,0,0,1,3,2,4,0004-00-0001-50.png,0002-00-0000-20.png
00000014,675,0,1450197514481,1450197514937,421,561,0,0,0,4,3,1,7,0001-00-0000-23.png,0002-00-0000-65.png
00000014,676,1,1450197517779,1450197518229,356,410,0,0,0,1,4,3,5,0004-00-0001-66.png,0001-00-0001-00.png
00000014,677,1,1450197519406,1450197519887,874,554,0,0,0,2,0,2,2,0003-00-0000-56.png,0005-00-0000-16.png
00000014,678,1,1450197521327,1450197521745,393,454,0,0,0,0,4,4,4,0005-00-0000-09.png,0001-00-0000-30.png
00000014,679,1,1450197522866,1450197523375,897,462,0,0,0,3,0,3,3,0002-00-0000-07.png,0005-00-0001-01.png
00000014,680,1,1450197524594,1450197525128,896,446,0,0,0,2,1,1,3,0003-00-0000-36.png,0004-00-0000-20.png
00000014,681,0,1450197526335,1450197526689,427,461,0,0,0,3,2,1,5,0002-00-0001-32.png,0003-00-0000-51.png
00000014,682,1,1450197529713,1450197530167,461,444,0,0,0,0,4,4,4,0005-00-0001-81.png,0001-00-0000-39.png
00000014,683,1,1450197531254,1450197531758,926,430,0,0,0,2,1,1,3,0003-00-0001-45.png,0004-00-0001-12.png
00000014,684,1,1450197533012,1450197533517,924,456,0,0,0,4,1,3,5,0001-00-0000-89.png,0004-00-0000-90.png
00000014,685,0,1450197534844,1450197535323,901,461,0,0,0,3,4,1,7,0002-00-0001-14.png,0001-00-0000-57.png
00000014,686,0,1450197538360,1450197538867,862,474,0,0,0,0,1,1,1,0005-00-0001-89.png,0004-00-0001-95.png
00000014,687,1,1450197542056,1450197542460,952,436,0,0,0,3,0,3,3,0002-00-0001-17.png,0005-00-0000-04.png
00000014,688,1,1450197543608,1450197544031,376,475,0,0,0,0,2,2,2,0005-00-0000-09.png,0003-00-0001-50.png
00000014,689,1,1450197545345,1450197545749,379,459,0,0,0,1,3,2,4,0004-00-0000-84.png,0002-00-0000-40.png
00000014,690,0,1450197546917,1450197547403,879,480,0,0,0,1,2,1,3,0004-00-0001-64.png,0003-00-0000-22.png
00000014,691,0,1450197550265,1450197550285,495,468,0,0,0,4,3,1,7,0001-00-0001-76.png,0002-00-0000-20.png
00000014,692,0,1450197553286,1450197553714,990,476,0,0,0,2,3,1,5,0003-00-0000-14.png,0002-00-0001-08.png
00000014,693,1,1450197557254,1450197557666,981,480,0,0,0,3,1,2,4,0002-00-0001-27.png,0004-00-0000-93.png
00000014,694,1,1450197558744,1450197559340,421,458,0,0,0,1,4,3,5,0004-00-0001-49.png,0001-00-0000-76.png
00000014,695,0,1450197560583,1450197561031,423,513,0,0,0,4,2,2,6,0001-00-0000-77.png,0003-00-0001-56.png
00000014,696,0,1450197564191,1450197565112,439,397,0,0,0,1,0,1,1,0004-00-0000-56.png,0005-00-0001-92.png
00000014,697,0,1450197568158,1450197568647,930,559,0,0,0,2,4,2,6,0003-00-0001-75.png,0001-00-0000-83.png
00000014,698,1,1450197575117,1450197575509,955,413,0,0,0,2,0,2,2,0003-00-0000-99.png,0005-00-0000-04.png
00000014,699,1,1450197576548,1450197577016,406,542,0,0,0,0,3,3,3,0005-00-0001-57.png,0002-00-0001-69.png
00000014,700,1,1450197578099,1450197578711,864,460,0,0,0,4,0,4,4,0001-00-0001-98.png,0005-00-0000-78.png
00000014,701,1,1450197579809,1450197580672,376,449,0,0,0,1,3,2,4,0004-00-0000-33.png,0002-00-0000-68.png
00000014,702,0,1450197581738,1450197582268,917,447,0,0,0,2,3,1,5,0003-00-0000-70.png,0002-00-0000-06.png
00000014,703,1,1450197585662,1450197586024,926,397,0,0,0,3,2,1,5,0002-00-0000-34.png,0003-00-0001-19.png
00000014,704,1,1450197587179,1450197587737,903,489,0,0,0,2,1,1,3,0003-00-0001-72.png,0004-00-0000-18.png
00000014,705,1,1450197588803,1450197589214,401,557,0,0,0,0,4,4,4,0005-00-0000-35.png,0001-00-0000-71.png
00000014,706,1,1450197590433,1450197592058,951,464,0,0,0,3,1,2,4,0002-00-0001-73.png,0004-00-0000-71.png
00000014,707,1,1450197593206,1450197593660,434,480,0,0,0,0,3,3,3,0005-00-0000-70.png,0002-00-0000-49.png
00000014,708,1,1450197594788,1450197595290,905,454,0,0,0,1,0,1,1,0004-00-0001-80.png,0005-00-0001-57.png
00000014,709,1,1450197596407,1450197596799,427,475,0,0,0,1,2,1,3,0004-00-0001-09.png,0003-00-0001-85.png
00000014,710,1,1450197598514,1450197598924,901,476,0,0,0,4,3,1,7,0001-00-0000-86.png,0002-00-0001-23.png
00000014,711,1,1450197600055,1450197600642,901,497,0,0,0,4,2,2,6,0001-00-0001-15.png,0003-00-0001-71.png
00000014,712,1,1450197601744,1450197602167,418,516,0,0,0,0,1,1,1,0005-00-0000-00.png,0004-00-0000-20.png
00000014,713,1,1450197603275,1450197603778,898,485,0,0,0,3,0,3,3,0002-00-0001-74.png,0005-00-0001-67.png
00000014,714,0,1450197605004,1450197605436,388,502,0,0,0,4,1,3,5,0001-00-0001-58.png,0004-00-0001-35.png
00000014,715,0,1450197608552,1450197608995,962,489,0,0,0,2,4,2,6,0003-00-0001-51.png,0001-00-0001-08.png
00000014,716,1,1450197612448,1450197612928,437,384,0,0,0,0,2,2,2,0005-00-0001-50.png,0003-00-0001-12.png
00000014,717,0,1450197614050,1450197614552,893,461,0,0,0,3,4,1,7,0002-00-0000-08.png,0001-00-0000-37.png
00000014,718,1,1450197617577,1450197618051,932,563,0,0,0,2,0,2,2,0003-00-0000-99.png,0005-00-0000-73.png
00000014,719,1,1450197619089,1450197619520,406,474,0,0,0,1,4,3,5,0004-00-0000-39.png,0001-00-0001-75.png
00000014,720,0,1450197620627,1450197621212,430,554,0,0,0,4,0,4,4,0001-00-0000-17.png,0005-00-0001-44.png
00000014,721,1,1450197624306,1450197624783,459,446,0,0,0,0,2,2,2,0005-00-0001-21.png,0003-00-0001-96.png
00000014,722,1,1450197626004,1450197626439,423,457,0,0,0,3,4,1,7,0002-00-0001-64.png,0001-00-0001-73.png
00000014,723,0,1450197627724,1450197628373,423,438,0,0,0,3,2,1,5,0002-00-0000-83.png,0003-00-0000-27.png
00000014,724,1,1450197631442,1450197631986,414,424,0,0,0,0,3,3,3,0005-00-0001-63.png,0002-00-0001-26.png
00000014,725,0,1450197633190,1450197633777,393,427,0,0,0,3,0,3,3,0002-00-0001-77.png,0005-00-0000-09.png
00000014,726,1,1450197637273,1450197637734,957,470,0,0,0,4,0,4,4,0001-00-0001-49.png,0005-00-0000-55.png
00000014,727,1,1450197638815,1450197639450,927,514,0,0,0,4,2,2,6,0001-00-0001-18.png,0003-00-0001-79.png
00000014,728,0,1450197641090,1450197641573,874,464,0,0,0,2,4,2,6,0003-00-0000-38.png,0001-00-0001-76.png
00000014,729,0,1450197644552,1450197645052,451,461,0,0,0,3,1,2,4,0002-00-0000-25.png,0004-00-0001-65.png
00000014,730,1,1450197648249,1450197648701,983,499,0,0,0,2,1,1,3,0003-00-0000-95.png,0004-00-0000-91.png
00000014,731,0,1450197649849,1450197650454,901,435,0,0,0,1,2,1,3,0004-00-0000-79.png,0003-00-0001-28.png
00000014,732,1,1450197653537,1450197654019,975,512,0,0,0,2,0,2,2,0003-00-0000-81.png,0005-00-0001-60.png
00000014,733,0,1450197655097,1450197655599,926,449,0,0,0,2,3,1,5,0003-00-0001-25.png,0002-00-0000-13.png
00000014,734,1,1450197658634,1450197658650,523,376,0,0,0,0,1,1,1,0005-00-0000-46.png,0004-00-0000-14.png
00000014,735,1,1450197659883,1450197660292,389,449,0,0,0,1,3,2,4,0004-00-0001-58.png,0002-00-0000-38.png
00000014,736,1,1450197661449,1450197662077,376,446,0,0,0,0,4,4,4,0005-00-0001-36.png,0001-00-0001-74.png
00000014,737,1,1450197663287,1450197663872,926,476,0,0,0,1,0,1,1,0004-00-0000-29.png,0005-00-0000-23.png
00000014,738,1,1450197664936,1450197665357,466,488,0,0,0,1,4,3,5,0004-00-0000-22.png,0001-00-0001-03.png
00000014,739,0,1450197666438,1450197666814,478,462,0,0,0,4,3,1,7,0001-00-0001-41.png,0002-00-0001-22.png
00000014,740,1,1450197670017,1450197670460,933,474,0,0,0,4,1,3,5,0001-00-0000-52.png,0004-00-0000-23.png
00000014,741,1,1450197671556,1450197672003,416,553,0,0,0,0,4,4,4,0005-00-0000-77.png,0001-00-0000-46.png
00000014,742,1,1450197673122,1450197673718,896,472,0,0,0,4,1,3,5,0001-00-0000-76.png,0004-00-0001-65.png
00000014,743,0,1450197674946,1450197674990,504,505,0,0,0,4,3,1,7,0001-00-0001-87.png,0002-00-0001-12.png
00000014,744,0,1450197677877,1450197678351,875,529,0,0,0,3,4,1,7,0002-00-0001-37.png,0001-00-0000-53.png
00000014,745,1,1450197681983,1450197682459,478,410,0,0,0,1,3,2,4,0004-00-0000-90.png,0002-00-0000-56.png
00000014,746,1,1450197683521,1450197684125,386,410,0,0,0,0,1,1,1,0005-00-0000-81.png,0004-00-0000-56.png
00000014,747,1,1450197685491,1450197686080,913,528,0,0,0,3,0,3,3,0002-00-0000-02.png,0005-00-0001-92.png
00000014,748,0,1450197687325,1450197687743,400,489,0,0,0,4,2,2,6,0001-00-0001-19.png,0003-00-0000-49.png
00000014,749,0,1450197690693,1450197691219,434,462,0,0,0,1,0,1,1,0004-00-0000-31.png,0005-00-0000-14.png
00000014,750,0,1450197694883,1450197695349,933,500,0,0,0,2,4,2,6,0003-00-0000-85.png,0001-00-0000-07.png
00000014,751,1,1450197698579,1450197698995,384,435,0,0,0,1,4,3,5,0004-00-0000-29.png,0001-00-0000-04.png
00000014,752,0,1450197700492,1450197700934,408,484,0,0,0,3,2,1,5,0002-00-0001-41.png,0003-00-0000-80.png
00000014,753,1,1450197704489,1450197704928,965,501,0,0,0,2,0,2,2,0003-00-0000-69.png,0005-00-0000-29.png
00000014,754,1,1450197705991,1450197706404,382,472,0,0,0,0,3,3,3,0005-00-0001-88.png,0002-00-0001-23.png
00000014,755,0,1450197707586,1450197708066,871,470,0,0,0,2,3,1,5,0003-00-0000-61.png,0002-00-0001-75.png
00000014,756,1,1450197711750,1450197712168,953,517,0,0,0,2,1,1,3,0003-00-0001-18.png,0004-00-0000-57.png
00000014,757,1,1450197713248,1450197713714,416,477,0,0,0,1,2,1,3,0004-00-0000-04.png,0003-00-0000-88.png
00000014,758,0,1450197714860,1450197715374,433,423,0,0,0,4,0,4,4,0001-00-0001-77.png,0005-00-0001-06.png
00000014,759,1,1450197721319,1450197721732,949,462,0,0,0,3,1,2,4,0002-00-0000-79.png,0004-00-0000-26.png
00000014,760,1,1450197723258,1450197723702,415,554,0,0,0,0,2,2,2,0005-00-0000-41.png,0003-00-0000-95.png
00000014,761,1,1450197724869,1450197725290,370,494,0,0,0,0,2,2,2,0005-00-0001-90.png,0003-00-0000-45.png
00000014,762,1,1450197726379,1450197726952,901,476,0,0,0,3,1,2,4,0002-00-0000-89.png,0004-00-0000-08.png
00000014,763,0,1450197728070,1450197728435,386,483,0,0,0,4,3,1,7,0001-00-0001-36.png,0002-00-0001-80.png
00000014,764,1,1450197731549,1450197732045,950,542,0,0,0,4,0,4,4,0001-00-0000-06.png,0005-00-0000-51.png
00000014,765,0,1450197733148,1450197733739,914,475,0,0,0,0,4,4,4,0005-00-0001-97.png,0001-00-0001-55.png
00000014,766,0,1450197736765,1450197737222,983,494,0,0,0,1,4,3,5,0004-00-0001-74.png,0001-00-0000-67.png
00000014,767,1,1450197740321,1450197740790,379,438,0,0,0,0,3,3,3,0005-00-0001-33.png,0002-00-0001-53.png
00000014,768,0,1450197741916,1450197742658,367,541,0,0,0,3,2,1,5,0002-00-0001-23.png,0003-00-0001-80.png
00000014,769,1,1450197746397,1450197746771,919,535,0,0,0,2,0,2,2,0003-00-0000-61.png,0005-00-0000-85.png
00000014,770,1,1450197747874,1450197748338,900,437,0,0,0,2,1,1,3,0003-00-0000-94.png,0004-00-0000-98.png
00000014,771,1,1450197749947,1450197750419,419,427,0,0,0,1,3,2,4,0004-00-0000-55.png,0002-00-0001-58.png
00000014,772,0,1450197751608,1450197751987,396,468,0,0,0,4,2,2,6,0001-00-0001-89.png,0003-00-0001-76.png
00000014,773,1,1450197755065,1450197755495,893,453,0,0,0,3,0,3,3,0002-00-0001-07.png,0005-00-0001-50.png
00000014,774,1,1450197756564,1450197756972,424,483,0,0,0,0,1,1,1,0005-00-0001-77.png,0004-00-0001-55.png
00000014,775,0,1450197758065,1450197758579,892,465,0,0,0,2,4,2,6,0003-00-0001-30.png,0001-00-0001-43.png
00000014,776,1,1450197761452,1450197762341,466,371,0,0,0,2,3,1,5,0003-00-0001-60.png,0002-00-0001-84.png
00000014,777,0,1450197763542,1450197764085,418,428,0,0,0,1,0,1,1,0004-00-0001-25.png,0005-00-0001-16.png
00000014,778,1,1450197767636,1450197768120,964,502,0,0,0,4,1,3,5,0001-00-0001-81.png,0004-00-0000-28.png
00000014,779,0,1450197769207,1450197769785,876,548,0,0,0,3,4,1,7,0002-00-0001-85.png,0001-00-0001-22.png
00000014,780,1,1450197772923,1450197773453,430,535,0,0,0,1,2,1,3,0004-00-0000-93.png,0003-00-0001-32.png
00000014,781,1,1450197774913,1450197775337,407,485,0,0,0,0,2,2,2,0005-00-0000-42.png,0003-00-0000-69.png
00000014,782,0,1450197776502,1450197776530,504,488,0,0,0,4,0,4,4,0001-00-0000-19.png,0005-00-0000-35.png
00000014,783,0,1450197779575,1450197780150,488,441,0,0,0,4,3,1,7,0001-00-0000-36.png,0002-00-0001-30.png
00000014,784,1,1450197783617,1450197784024,921,524,0,0,0,3,0,3,3,0002-00-0001-03.png,0005-00-0001-26.png
00000014,785,0,1450197785224,1450197785888,443,462,0,0,0,1,0,1,1,0004-00-0000-12.png,0005-00-0000-78.png
00000014,786,1,1450197789403,1450197789834,383,427,0,0,0,0,4,4,4,0005-00-0000-63.png,0001-00-0000-72.png
00000014,787,1,1450197790944,1450197791453,875,540,0,0,0,2,0,2,2,0003-00-0000-61.png,0005-00-0000-34.png
00000014,788,0,1450197792724,1450197793220,926,464,0,0,0,2,3,1,5,0003-00-0000-09.png,0002-00-0000-73.png
00000014,789,1,1450197796827,1450197797266,427,462,0,0,0,1,3,2,4,0004-00-0000-77.png,0002-00-0000-43.png
00000014,790,1,1450197798528,1450197798955,411,495,0,0,0,1,2,1,3,0004-00-0001-67.png,0003-00-0001-35.png
00000014,791,1,1450197800162,1450197800596,376,499,0,0,0,0,3,3,3,0005-00-0001-24.png,0002-00-0001-88.png
00000014,792,0,1450197801891,1450197802420,901,462,0,0,0,2,4,2,6,0003-00-0000-40.png,0001-00-0000-52.png
00000014,793,1,1450197805274,1450197805733,350,462,0,0,0,1,4,3,5,0004-00-0000-42.png,0001-00-0000-43.png
00000014,794,1,1450197806858,1450197807322,901,450,0,0,0,2,1,1,3,0003-00-0001-33.png,0004-00-0000-22.png
00000014,795,1,1450197808466,1450197808893,381,512,0,0,0,0,1,1,1,0005-00-0001-77.png,0004-00-0000-72.png
00000014,796,1,1450197810064,1450197810671,898,489,0,0,0,3,2,1,5,0002-00-0000-12.png,0003-00-0000-26.png
00000014,797,0,1450197811809,1450197812211,376,502,0,0,0,4,2,2,6,0001-00-0000-09.png,0003-00-0000-75.png
00000014,798,1,1450197815285,1450197815730,972,468,0,0,0,3,1,2,4,0002-00-0000-76.png,0004-00-0001-58.png
00000014,799,1,1450197816942,1450197817590,464,396,0,0,0,3,4,1,7,0002-00-0001-00.png,0001-00-0000-41.png
00000014,800,0,1450197818760,1450197819677,469,439,0,0,0,4,1,3,5,0001-00-0001-50.png,0004-00-0001-54.png
00000014,801,0,1450197823067,1450197823461,976,463,0,0,0,0,3,3,3,0005-00-0001-03.png,0002-00-0000-30.png
00000014,802,0,1450197826902,1450197827318,951,463,0,0,0,0,4,4,4,0005-00-0001-04.png,0001-00-0001-57.png
00000014,803,1,1450197830473,1450197830955,963,499,0,0,0,2,1,1,3,0003-00-0001-35.png,0004-00-0001-69.png
00000014,804,1,1450197832063,1450197832563,914,450,0,0,0,4,0,4,4,0001-00-0001-95.png,0005-00-0000-67.png
00000014,805,1,1450197833687,1450197834084,440,475,0,0,0,0,2,2,2,0005-00-0000-47.png,0003-00-0001-36.png
00000014,806,1,1450197835265,1450197835727,414,472,0,0,0,2,4,2,6,0003-00-0001-00.png,0001-00-0001-51.png
00000014,807,0,1450197836945,1450197837671,460,419,0,0,0,3,1,2,4,0002-00-0001-68.png,0004-00-0000-33.png
00000014,808,0,1450197840960,1450197841410,394,451,0,0,0,4,1,3,5,0001-00-0000-05.png,0004-00-0001-07.png
00000014,809,1,1450197844856,1450197845302,950,475,0,0,0,2,0,2,2,0003-00-0001-92.png,0005-00-0000-42.png
00000014,810,1,1450197846628,1450197847020,427,462,0,0,0,1,3,2,4,0004-00-0001-10.png,0002-00-0000-99.png
00000014,811,0,1450197848228,1450197849195,495,441,0,0,0,3,2,1,5,0002-00-0001-57.png,0003-00-0001-71.png
00000014,812,1,1450197852310,1450197852893,931,508,0,0,0,4,3,1,7,0001-00-0001-38.png,0002-00-0000-82.png
00000014,813,0,1450197853965,1450197854625,420,404,0,0,0,4,2,2,6,0001-00-0001-48.png,0003-00-0001-14.png
00000014,814,1,1450197857474,1450197857978,977,450,0,0,0,3,0,3,3,0002-00-0001-74.png,0005-00-0001-16.png
00000014,815,0,1450197859280,1450197859708,926,436,0,0,0,1,4,3,5,0004-00-0000-52.png,0001-00-0000-50.png
00000014,816,0,1450197862967,1450197863445,947,517,0,0,0,3,4,1,7,0002-00-0001-94.png,0001-00-0001-31.png
00000014,817,1,1450197867111,1450197867542,400,436,0,0,0,1,2,1,3,0004-00-0000-32.png,0003-00-0001-47.png
00000014,818,1,1450197868737,1450197869212,911,451,0,0,0,1,0,1,1,0004-00-0001-95.png,0005-00-0000-46.png
00000014,819,0,1450197870445,1450197871122,926,543,0,0,0,2,3,1,5,0003-00-0000-30.png,0002-00-0000-81.png
00000014,820,0,1450197874045,1450197874463,976,514,0,0,0,0,1,1,1,0005-00-0001-03.png,0004-00-0000-62.png
00000014,821,1,1450197877326,1450197877752,470,393,0,0,0,0,4,4,4,0005-00-0000-32.png,0001-00-0000-27.png
00000014,822,1,1450197878992,1450197879481,400,455,0,0,0,1,3,2,4,0004-00-0001-92.png,0002-00-0000-45.png
00000014,823,0,1450197880867,1450197881273,394,479,0,0,0,4,0,4,4,0001-00-0001-23.png,0005-00-0001-74.png
00000014,824,0,1450197884361,1450197884833,949,514,0,0,0,2,4,2,6,0003-00-0000-79.png,0001-00-0001-20.png
00000014,825,1,1450197887843,1450197888301,369,435,0,0,0,0,3,3,3,0005-00-0001-28.png,0002-00-0000-96.png
00000014,826,0,1450197889532,1450197889951,453,488,0,0,0,4,2,2,6,0001-00-0000-27.png,0003-00-0000-64.png
00000014,827,1,1450197892871,1450197893348,934,474,0,0,0,2,0,2,2,0003-00-0001-95.png,0005-00-0001-20.png
00000014,828,0,1450197894371,1450197895025,357,439,0,0,0,4,1,3,5,0001-00-0001-76.png,0004-00-0001-27.png
00000014,829,1,1450197898353,1450197898908,915,527,0,0,0,3,0,3,3,0002-00-0000-25.png,0005-00-0000-40.png
00000014,830,1,1450197900119,1450197900644,453,436,0,0,0,1,4,3,5,0004-00-0000-37.png,0001-00-0001-17.png
00000014,831,1,1450197901873,1450197902369,893,438,0,0,0,1,0,1,1,0004-00-0000-58.png,0005-00-0000-89.png
00000014,832,1,1450197903995,1450197904394,437,475,0,0,0,1,2,1,3,0004-00-0000-46.png,0003-00-0000-65.png
00000014,833,1,1450197905643,1450197906018,350,462,0,0,0,0,1,1,1,0005-00-0000-35.png,0004-00-0001-71.png
00000014,834,1,1450197907133,1450197907564,435,497,0,0,0,3,4,1,7,0002-00-0000-96.png,0001-00-0000-51.png
00000014,835,1,1450197908784,1450197909776,466,443,0,0,0,2,3,1,5,0003-00-0000-89.png,0002-00-0000-37.png
00000014,836,1,1450197910931,1450197911330,367,469,0,0,0,0,2,2,2,0005-00-0001-34.png,0003-00-0001-30.png
00000014,837,0,1450197912433,1450197912845,392,474,0,0,0,3,2,1,5,0002-00-0000-65.png,0003-00-0001-88.png
00000014,838,1,1450197915918,1450197916367,973,498,0,0,0,3,1,2,4,0002-00-0000-59.png,0004-00-0000-00.png
00000014,839,0,1450197917481,1450197917924,392,482,0,0,0,4,3,1,7,0001-00-0000-53.png,0002-00-0001-71.png
00000014,840,1,1450197920784,1450197921374,950,431,0,0,0,2,1,1,3,0003-00-0001-21.png,0004-00-0001-52.png
00000014,841,1,1450197922442,1450197922890,387,501,0,0,0,0,4,4,4,0005-00-0000-29.png,0001-00-0000-49.png
00000014,842,1,1450197924129,1450197924549,404,457,0,0,0,0,1,1,1,0005-00-0000-49.png,0004-00-0001-28.png
00000014,843,1,1450197925752,1450197926193,396,505,0,0,0,1,4,3,5,0004-00-0001-29.png,0001-00-0001-56.png
00000014,844,0,1450197927457,1450197928268,414,415,0,0,0,4,3,1,7,0001-00-0001-90.png,0002-00-0000-40.png
00000014,845,0,1450197931398,1450197931782,952,424,0,0,0,1,2,1,3,0004-00-0000-34.png,0003-00-0000-52.png
00000014,846,1,1450197934963,1450197935414,927,495,0,0,0,2,0,2,2,0003-00-0001-43.png,0005-00-0000-79.png
00000014,847,1,1450197936842,1450197937350,897,537,0,0,0,4,2,2,6,0001-00-0000-78.png,0003-00-0000-25.png
00000014,848,1,1450197939770,1450197940297,879,544,0,0,0,3,1,2,4,0002-00-0001-23.png,0004-00-0001-26.png
00000014,849,1,1450197941345,1450197941837,911,465,0,0,0,3,0,3,3,0002-00-0001-83.png,0005-00-0000-88.png
00000014,850,0,1450197942933,1450197943559,881,484,0,0,0,3,4,1,7,0002-00-0000-98.png,0001-00-0001-68.png
00000014,851,1,1450197946680,1450197947074,899,533,0,0,0,2,1,1,3,0003-00-0001-09.png,0004-00-0000-63.png
00000014,852,1,1450197948324,1450197948859,895,446,0,0,0,3,2,1,5,0002-00-0001-92.png,0003-00-0000-51.png
00000014,853,1,1450197950052,1450197950531,876,555,0,0,0,4,0,4,4,0001-00-0001-11.png,0005-00-0000-72.png
00000014,854,0,1450197951742,1450197952114,401,517,0,0,0,1,0,1,1,0004-00-0000-11.png,0005-00-0001-04.png
00000014,855,0,1450197955220,1450197955662,950,483,0,0,0,1,3,2,4,0004-00-0001-18.png,0002-00-0001-82.png
00000014,856,0,1450197958664,1450197959139,393,452,0,0,0,4,1,3,5,0001-00-0000-68.png,0004-00-0000-01.png
00000014,857,1,1450197962612,1450197963090,453,424,0,0,0,0,2,2,2,0005-00-0000-16.png,0003-00-0000-16.png
00000014,858,1,1450197964146,1450197964586,413,501,0,0,0,0,3,3,3,0005-00-0001-60.png,0002-00-0000-90.png
00000014,859,0,1450197965676,1450197966160,894,463,0,0,0,2,4,2,6,0003-00-0000-07.png,0001-00-0001-26.png
00000014,860,0,1450197969233,1450197969762,902,443,0,0,0,2,3,1,5,0003-00-0000-65.png,0002-00-0001-99.png
00000014,861,1,1450197972720,1450197973187,469,455,0,0,0,0,2,2,2,0005-00-0001-16.png,0003-00-0000-60.png
00000014,862,0,1450197974394,1450197974857,903,467,0,0,0,2,4,2,6,0003-00-0000-75.png,0001-00-0001-38.png
00000014,863,1,1450197978070,1450197978521,441,453,0,0,0,0,4,4,4,0005-00-0001-53.png,0001-00-0001-52.png
00000014,864,0,1450197979681,1450197980359,385,404,0,0,0,3,2,1,5,0002-00-0001-14.png,0003-00-0000-22.png
00000014,865,0,1450197983407,1450197984176,387,405,0,0,0,1,0,1,1,0004-00-0000-32.png,0005-00-0000-44.png
00000014,866,0,1450197987441,1450197987461,522,480,0,0,0,4,1,3,5,0001-00-0000-72.png,0004-00-0001-84.png
00000014,867,1,1450197990533,1450197990959,973,513,0,0,0,4,3,1,7,0001-00-0000-03.png,0002-00-0000-33.png
00000014,868,1,1450197991988,1450197992456,951,465,0,0,0,4,0,4,4,0001-00-0001-40.png,0005-00-0000-47.png
00000014,869,1,1450197993532,1450197993966,395,479,0,0,0,1,3,2,4,0004-00-0001-37.png,0002-00-0001-08.png
00000014,870,1,1450197994994,1450197996028,923,482,0,0,0,3,1,2,4,0002-00-0000-35.png,0004-00-0001-11.png
00000014,871,1,1450197997070,1450197997646,896,474,0,0,0,4,2,2,6,0001-00-0001-94.png,0003-00-0000-39.png
00000014,872,1,1450197998637,1450197999052,427,476,0,0,0,1,4,3,5,0004-00-0001-58.png,0001-00-0001-20.png
00000014,873,1,1450198000082,1450198000625,890,472,0,0,0,3,0,3,3,0002-00-0000-48.png,0005-00-0000-80.png
00000014,874,1,1450198001682,1450198002650,521,480,0,0,0,2,3,1,5,0003-00-0001-60.png,0002-00-0000-26.png
00000014,875,1,1450198003800,1450198004288,385,496,0,0,0,1,2,1,3,0004-00-0001-06.png,0003-00-0000-23.png
00000014,876,1,1450198005467,1450198006045,901,487,0,0,0,2,0,2,2,0003-00-0000-58.png,0005-00-0000-41.png
00000014,877,1,1450198007059,1450198007547,447,504,0,0,0,3,4,1,7,0002-00-0001-81.png,0001-00-0000-55.png
00000014,878,1,1450198008728,1450198009171,397,513,0,0,0,0,1,1,1,0005-00-0001-03.png,0004-00-0001-73.png
00000014,879,1,1450198010387,1450198010822,387,476,0,0,0,0,3,3,3,0005-00-0000-36.png,0002-00-0000-90.png
00000014,880,0,1450198011960,1450198012400,478,501,0,0,0,2,1,1,3,0003-00-0001-00.png,0004-00-0001-38.png
00000014,881,0,1450198015287,1450198015734,959,499,0,0,0,1,3,2,4,0004-00-0000-24.png,0002-00-0000-85.png
00000014,882,0,1450198021830,1450198022234,949,514,0,0,0,2,4,2,6,0003-00-0000-24.png,0001-00-0001-02.png
00000014,883,1,1450198025669,1450198026107,423,419,0,0,0,0,2,2,2,0005-00-0000-25.png,0003-00-0000-07.png
00000014,884,0,1450198027089,1450198027659,901,476,0,0,0,3,4,1,7,0002-00-0001-76.png,0001-00-0001-30.png
00000014,885,0,1450198036270,1450198036716,952,462,0,0,0,2,3,1,5,0003-00-0001-28.png,0002-00-0000-87.png
00000014,886,1,1450198039785,1450198040205,927,462,0,0,0,2,0,2,2,0003-00-0000-83.png,0005-00-0000-87.png
00000014,887,0,1450198041172,1450198041773,947,471,0,0,0,0,1,1,1,0005-00-0000-16.png,0004-00-0000-57.png
00000014,888,1,1450198045089,1450198045552,952,513,0,0,0,1,0,1,1,0004-00-0000-95.png,0005-00-0000-62.png
00000014,889,0,1450198047110,1450198047574,427,504,0,0,0,3,2,1,5,0002-00-0000-99.png,0003-00-0000-37.png
00000014,890,1,1450198050836,1450198051282,952,488,0,0,0,3,1,2,4,0002-00-0000-38.png,0004-00-0001-10.png
00000014,891,0,1450198052371,1450198052836,901,462,0,0,0,1,4,3,5,0004-00-0000-87.png,0001-00-0001-25.png
00000014,892,1,1450198055875,1450198056317,504,410,0,0,0,0,3,3,3,0005-00-0000-85.png,0002-00-0000-58.png
00000014,893,0,1450198057421,1450198058044,952,476,0,0,0,1,2,1,3,0004-00-0001-33.png,0003-00-0001-40.png
00000014,894,1,1450198061188,1450198061636,379,453,0,0,0,0,4,4,4,0005-00-0001-09.png,0001-00-0000-48.png
00000014,895,1,1450198062770,1450198063197,907,468,0,0,0,4,1,3,5,0001-00-0001-21.png,0004-00-0000-05.png
00000014,896,1,1450198064161,1450198064803,903,494,0,0,0,4,2,2,6,0001-00-0000-98.png,0003-00-0001-93.png
00000014,897,0,1450198065837,1450198066244,416,503,0,0,0,3,0,3,3,0002-00-0000-82.png,0005-00-0000-90.png
00000014,898,0,1450198069188,1450198069672,452,411,0,0,0,2,1,1,3,0003-00-0000-85.png,0004-00-0000-66.png
00000014,899,1,1450198072692,1450198073272,970,441,0,0,0,4,3,1,7,0001-00-0000-24.png,0002-00-0001-60.png
00000014,900,1,1450198074286,1450198074770,898,474,0,0,0,4,0,4,4,0001-00-0001-27.png,0005-00-0000-52.png
00000014,901,1,1450198075825,1450198076410,927,522,0,0,0,4,3,1,7,0001-00-0001-21.png,0002-00-0001-55.png
00000014,902,1,1450198077455,1450198077973,414,409,0,0,0,0,1,1,1,0005-00-0001-36.png,0004-00-0000-93.png
00000014,903,1,1450198079056,1450198079549,873,553,0,0,0,4,1,3,5,0001-00-0001-77.png,0004-00-0000-77.png
00000014,904,0,1450198080606,1450198081020,433,499,0,0,0,2,0,2,2,0003-00-0001-62.png,0005-00-0000-65.png
00000014,905,1,1450198084073,1450198084463,907,553,0,0,0,3,0,3,3,0002-00-0000-58.png,0005-00-0000-56.png
00000014,906,1,1450198085478,1450198085906,442,502,0,0,0,1,4,3,5,0004-00-0000-88.png,0001-00-0001-40.png
00000014,907,1,1450198086989,1450198087629,926,475,0,0,0,3,1,2,4,0002-00-0000-88.png,0004-00-0001-77.png
00000014,908,1,1450198088670,1450198089117,438,486,0,0,0,1,2,1,3,0004-00-0000-99.png,0003-00-0000-17.png
00000014,909,1,1450198090080,1450198090503,433,492,0,0,0,0,3,3,3,0005-00-0001-44.png,0002-00-0001-18.png
00000014,910,1,1450198091500,1450198091984,900,463,0,0,0,2,1,1,3,0003-00-0000-42.png,0004-00-0000-77.png
00000014,911,0,1450198093202,1450198093675,870,421,0,0,0,3,4,1,7,0002-00-0001-92.png,0001-00-0001-09.png
00000014,912,1,1450198096754,1450198097180,977,463,0,0,0,4,0,4,4,0001-00-0000-36.png,0005-00-0001-53.png
00000014,913,1,1450198098148,1450198098580,478,501,0,0,0,2,3,1,5,0003-00-0000-89.png,0002-00-0001-79.png
00000014,914,1,1450198099651,1450198100164,889,476,0,0,0,4,2,2,6,0001-00-0001-17.png,0003-00-0000-04.png
00000014,915,0,1450198101171,1450198101770,920,506,0,0,0,2,4,2,6,0003-00-0001-82.png,0001-00-0000-09.png
00000014,916,1,1450198105265,1450198105765,391,480,0,0,0,0,2,2,2,0005-00-0001-82.png,0003-00-0000-98.png
00000014,917,1,1450198106850,1450198107288,376,476,0,0,0,0,4,4,4,0005-00-0001-73.png,0001-00-0000-38.png
00000014,918,0,1450198108357,1450198108775,382,505,0,0,0,3,2,1,5,0002-00-0000-58.png,0003-00-0001-80.png
00000014,919,1,1450198111764,1450198112235,951,489,0,0,0,1,0,1,1,0004-00-0001-19.png,0005-00-0001-16.png
00000014,920,1,1450198113310,1450198113760,388,471,0,0,0,1,3,2,4,0004-00-0001-29.png,0002-00-0000-93.png
00000014,921,1,1450198114856,1450198115257,466,475,0,0,0,1,4,3,5,0004-00-0000-04.png,0001-00-0000-41.png
00000014,922,1,1450198116384,1450198116901,902,468,0,0,0,2,0,2,2,0003-00-0001-31.png,0005-00-0000-39.png
00000014,923,1,1450198117983,1450198118889,467,410,0,0,0,3,4,1,7,0002-00-0001-29.png,0001-00-0000-16.png
00000014,924,1,1450198120074,1450198120708,939,518,0,0,0,4,3,1,7,0001-00-0000-84.png,0002-00-0000-03.png
00000014,925,0,1450198121839,1450198122321,903,443,0,0,0,1,2,1,3,0004-00-0000-80.png,0003-00-0000-39.png
00000014,926,1,1450198125398,1450198125809,953,493,0,0,0,1,0,1,1,0004-00-0001-62.png,0005-00-0001-20.png
00000014,927,1,1450198126987,1450198127451,875,450,0,0,0,3,2,1,5,0002-00-0001-72.png,0003-00-0000-15.png
00000014,928,1,1450198128676,1450198129130,350,475,0,0,0,1,3,2,4,0004-00-0000-59.png,0002-00-0001-58.png
00000014,929,0,1450198130332,1450198130844,874,464,0,0,0,2,3,1,5,0003-00-0001-27.png,0002-00-0000-56.png
00000014,930,1,1450198133717,1450198134228,995,513,0,0,0,2,1,1,3,0003-00-0000-69.png,0004-00-0000-54.png
00000014,931,1,1450198135249,1450198135739,364,476,0,0,0,0,1,1,1,0005-00-0000-24.png,0004-00-0001-85.png
00000014,932,1,1450198136910,1450198137370,369,495,0,0,0,0,2,2,2,0005-00-0001-33.png,0003-00-0000-47.png
00000014,933,0,1450198138472,1450198138516,517,533,0,0,0,4,1,3,5,0001-00-0001-86.png,0004-00-0001-88.png
00000014,934,1,1450198141909,1450198142334,463,439,0,0,0,0,3,3,3,0005-00-0001-01.png,0002-00-0000-35.png
00000014,935,1,1450198143954,1450198144394,438,449,0,0,0,0,4,4,4,0005-00-0000-86.png,0001-00-0000-58.png
00000014,936,0,1450198145488,1450198145933,453,501,0,0,0,3,0,3,3,0002-00-0000-87.png,0005-00-0000-34.png
00000014,937,0,1450198148769,1450198149190,441,401,0,0,0,3,1,2,4,0002-00-0000-97.png,0004-00-0000-37.png
00000014,938,1,1450198152225,1450198152683,974,497,0,0,0,4,0,4,4,0001-00-0000-82.png,0005-00-0001-53.png
00000014,939,1,1450198153660,1450198154224,431,464,0,0,0,2,4,2,6,0003-00-0000-62.png,0001-00-0000-51.png
00000014,940,0,1450198155330,1450198156275,478,409,0,0,0,4,2,2,6,0001-00-0000-43.png,0003-00-0000-81.png
00000014,941,1,1450198159160,1450198159630,973,487,0,0,0,2,1,1,3,0003-00-0000-24.png,0004-00-0000-89.png
00000014,942,1,1450198160761,1450198161183,410,561,0,0,0,3,4,1,7,0002-00-0000-67.png,0001-00-0000-91.png
00000014,943,1,1450198162395,1450198162855,869,550,0,0,0,4,0,4,4,0001-00-0001-94.png,0005-00-0001-30.png
00000014,944,1,1450198163902,1450198163966,500,508,0,0,0,1,3,2,4,0004-00-0001-08.png,0002-00-0001-93.png
00000014,945,1,1450198165154,1450198165566,363,501,0,0,0,0,2,2,2,0005-00-0001-26.png,0003-00-0001-87.png
00000014,946,1,1450198166648,1450198167002,427,476,0,0,0,0,1,1,1,0005-00-0001-58.png,0004-00-0001-13.png
00000014,947,1,1450198168039,1450198168489,874,465,0,0,0,1,0,1,1,0004-00-0000-31.png,0005-00-0000-61.png
00000014,948,1,1450198169570,1450198169586,504,505,0,0,0,1,4,3,5,0004-00-0000-03.png,0001-00-0001-18.png
00000014,949,1,1450198170821,1450198171309,384,469,0,0,0,2,4,2,6,0003-00-0001-97.png,0001-00-0001-78.png
00000014,950,1,1450198172442,1450198172863,446,514,0,0,0,2,3,1,5,0003-00-0001-63.png,0002-00-0000-16.png
00000014,951,1,1450198174049,1450198174741,864,496,0,0,0,4,1,3,5,0001-00-0000-00.png,0004-00-0000-83.png
