subject_id,trial,correct_response,stim_time,response_time,x_coord,y_coord,trial_timeout,timeout_time,interTrial_timeout,left_rank,right_rank,distance,joint_rank,left_image,right_image
00000009,1,1,1450286872842,1450286873066,403,226,0,0,0,1,4,3,5,0004-00-0000-42.png,0001-00-0001-56.png
00000009,2,0,1450286878114,1450286878766,943,261,0,0,0,0,4,4,4,0005-00-0000-60.png,0001-00-0001-67.png
00000009,3,1,1450286881598,1450286882307,501,351,0,0,0,0,2,2,2,0005-00-0001-22.png,0003-00-0001-16.png
00000009,4,1,1450286883726,1450286884521,356,387,0,0,0,2,4,2,6,0003-00-0001-75.png,0001-00-0000-73.png
00000009,5,1,1450286886025,1450286886770,386,294,0,0,0,1,3,2,4,0004-00-0000-10.png,0002-00-0001-78.png
00000009,6,1,1450286888290,1450286888805,1027,279,0,0,0,4,0,4,4,0001-00-0000-74.png,0005-00-0001-86.png
00000009,7,0,1450286890122,1450286890786,459,270,0,0,0,4,2,2,6,0001-00-0000-67.png,0003-00-0000-11.png
00000009,8,1,1450286893724,1450286894449,948,378,0,0,0,2,1,1,3,0003-00-0001-22.png,0004-00-0001-45.png
00000009,9,0,1450286895486,1450286895542,941,469,0,0,0,0,3,3,3,0005-00-0000-95.png,0002-00-0001-96.png
00000009,10,1,1450286898725,1450286899229,965,282,0,0,0,3,1,2,4,0002-00-0001-61.png,0004-00-0001-94.png
00000009,11,0,1450286900206,1450286900357,924,508,0,0,0,2,3,1,5,0003-00-0001-64.png,0002-00-0001-33.png
00000009,12,1,1450286903632,1450286904180,1089,316,0,0,0,3,0,3,3,0002-00-0001-81.png,0005-00-0000-11.png
00000009,13,0,1450286905096,1450286905152,861,438,0,0,0,3,4,1,7,0002-00-0001-97.png,0001-00-0000-68.png
00000009,14,0,1450286908203,1450286908677,939,330,0,0,0,0,1,1,1,0005-00-0001-16.png,0004-00-0001-40.png
00000009,15,1,1450286911970,1450286912515,994,340,0,0,0,4,1,3,5,0001-00-0000-03.png,0004-00-0001-27.png
00000009,16,0,1450286913501,1450286913722,939,518,0,0,0,1,2,1,3,0004-00-0000-69.png,0003-00-0001-52.png
00000009,17,1,1450286917009,1450286917546,1067,332,0,0,0,1,0,1,1,0004-00-0000-41.png,0005-00-0001-43.png
00000009,18,0,1450286919028,1450286919808,427,265,0,0,0,4,3,1,7,0001-00-0001-56.png,0002-00-0001-24.png
00000009,19,1,1450286923531,1450286924065,984,340,0,0,0,3,2,1,5,0002-00-0000-21.png,0003-00-0000-65.png
00000009,20,1,1450286925001,1450286925037,870,433,0,0,0,2,0,2,2,0003-00-0001-81.png,0005-00-0000-40.png
00000009,21,1,1450286925965,1450286926009,865,458,0,0,0,3,1,2,4,0002-00-0001-51.png,0004-00-0000-30.png
00000009,22,0,1450286927084,1450286927728,890,329,0,0,0,1,3,2,4,0004-00-0000-09.png,0002-00-0001-81.png
00000009,23,0,1450286930771,1450286930969,942,352,0,0,0,0,3,3,3,0005-00-0000-15.png,0002-00-0000-29.png
00000009,24,1,1450286934000,1450286934702,385,384,0,0,0,3,4,1,7,0002-00-0001-65.png,0001-00-0001-30.png
00000009,25,1,1450286935541,1450286935613,889,395,0,0,0,4,2,2,6,0001-00-0000-12.png,0003-00-0001-09.png
00000009,26,1,1450286936476,1450286936524,861,421,0,0,0,3,2,1,5,0002-00-0001-32.png,0003-00-0000-72.png
00000009,27,0,1450286937502,1450286937618,888,462,0,0,0,1,2,1,3,0004-00-0000-86.png,0003-00-0000-58.png
00000009,28,1,1450286940613,1450286941082,937,275,0,0,0,4,1,3,5,0001-00-0000-16.png,0004-00-0000-10.png
00000009,29,1,1450286941929,1450286942021,912,463,0,0,0,2,0,2,2,0003-00-0000-00.png,0005-00-0000-51.png
00000009,30,1,1450286943028,1450286943052,863,398,0,0,0,4,3,1,7,0001-00-0001-97.png,0002-00-0001-59.png
00000009,31,1,1450286944056,1450286944215,924,462,0,0,0,1,0,1,1,0004-00-0001-98.png,0005-00-0000-01.png
00000009,32,0,1450286953398,1450286953406,914,432,0,0,0,0,4,4,4,0005-00-0000-48.png,0001-00-0000-99.png
00000009,33,0,1450286959121,1450286959566,860,327,0,0,0,1,4,3,5,0004-00-0001-66.png,0001-00-0000-90.png
00000009,34,1,1450286965976,1450286966527,361,414,0,0,0,0,2,2,2,0005-00-0001-07.png,0003-00-0000-26.png
00000009,35,1,1450286967357,1450286968179,451,335,0,0,0,2,4,2,6,0003-00-0000-14.png,0001-00-0001-06.png
00000009,36,0,1450286969123,1450286969167,868,395,0,0,0,0,1,1,1,0005-00-0000-14.png,0004-00-0001-37.png
00000009,37,1,1450286972282,1450286972792,968,260,0,0,0,4,0,4,4,0001-00-0000-48.png,0005-00-0001-52.png
00000009,38,1,1450286973661,1450286974325,1014,277,0,0,0,2,1,1,3,0003-00-0000-23.png,0004-00-0000-21.png
00000009,39,0,1450286975197,1450286975258,936,368,0,0,0,2,3,1,5,0003-00-0001-22.png,0002-00-0001-40.png
00000009,40,1,1450286978331,1450286978789,918,300,0,0,0,3,0,3,3,0002-00-0001-79.png,0005-00-0000-27.png
00000009,41,1,1450286980172,1450286980780,452,458,0,0,0,3,4,1,7,0002-00-0001-36.png,0001-00-0000-11.png
00000009,42,1,1450286981650,1450286982295,998,261,0,0,0,1,0,1,1,0004-00-0000-61.png,0005-00-0000-59.png
00000009,43,0,1450286983211,1450286983310,875,405,0,0,0,2,4,2,6,0003-00-0000-59.png,0001-00-0001-14.png
00000009,44,1,1450286986558,1450286987122,475,313,0,0,0,0,3,3,3,0005-00-0000-20.png,0002-00-0000-57.png
00000009,45,1,1450286987991,1450286988762,359,387,0,0,0,1,4,3,5,0004-00-0000-71.png,0001-00-0001-11.png
00000009,46,1,1450286989641,1450286990264,939,296,0,0,0,3,1,2,4,0002-00-0001-23.png,0004-00-0001-79.png
00000009,47,0,1450286991202,1450286991452,910,516,0,0,0,1,2,1,3,0004-00-0001-59.png,0003-00-0001-73.png
00000009,48,1,1450286994632,1450286995210,468,285,0,0,0,1,3,2,4,0004-00-0000-84.png,0002-00-0000-20.png
00000009,49,1,1450286996082,1450286996188,858,486,0,0,0,3,2,1,5,0002-00-0000-58.png,0003-00-0001-97.png
00000009,50,1,1450286997155,1450286997263,873,462,0,0,0,2,1,1,3,0003-00-0001-32.png,0004-00-0000-49.png
00000009,51,0,1450286998292,1450286998374,870,482,0,0,0,2,3,1,5,0003-00-0000-67.png,0002-00-0000-97.png
00000009,52,1,1450287001278,1450287001799,939,295,0,0,0,4,1,3,5,0001-00-0001-33.png,0004-00-0000-57.png
00000009,53,1,1450287002635,1450287002778,895,507,0,0,0,4,2,2,6,0001-00-0001-31.png,0003-00-0000-92.png
00000009,54,1,1450287003761,1450287003955,899,547,0,0,0,4,0,4,4,0001-00-0001-17.png,0005-00-0001-30.png
00000009,55,0,1450287005048,1450287005183,885,530,0,0,0,0,4,4,4,0005-00-0001-77.png,0001-00-0000-85.png
00000009,56,1,1450287008314,1450287008870,437,280,0,0,0,0,2,2,2,0005-00-0001-32.png,0003-00-0001-90.png
00000009,57,1,1450287009733,1450287010375,953,316,0,0,0,3,0,3,3,0002-00-0001-65.png,0005-00-0000-16.png
00000009,58,1,1450287011326,1450287011457,888,465,0,0,0,4,3,1,7,0001-00-0001-18.png,0002-00-0000-64.png
00000009,59,0,1450287012511,1450287012635,884,490,0,0,0,0,1,1,1,0005-00-0000-68.png,0004-00-0000-72.png
00000009,60,1,1450287016018,1450287016551,939,279,0,0,0,2,0,2,2,0003-00-0000-72.png,0005-00-0001-63.png
00000009,61,1,1450287017397,1450287018246,471,282,0,0,0,0,1,1,1,0005-00-0000-29.png,0004-00-0000-36.png
00000009,62,0,1450287019157,1450287019249,867,481,0,0,0,3,4,1,7,0002-00-0000-74.png,0001-00-0000-05.png
00000009,63,1,1450287022081,1450287022625,1039,259,0,0,0,2,1,1,3,0003-00-0001-91.png,0004-00-0000-63.png
00000009,64,0,1450287023468,1450287023626,909,503,0,0,0,1,3,2,4,0004-00-0000-61.png,0002-00-0000-36.png
00000009,65,1,1450287026481,1450287027048,1056,385,0,0,0,3,0,3,3,0002-00-0000-61.png,0005-00-0001-04.png
00000009,66,1,1450287028427,1450287029302,435,406,0,0,0,1,2,1,3,0004-00-0000-58.png,0003-00-0000-79.png
00000009,67,0,1450287030154,1450287030394,888,541,0,0,0,0,3,3,3,0005-00-0000-99.png,0002-00-0000-46.png
00000009,68,1,1450287033386,1450287033941,453,269,0,0,0,2,3,1,5,0003-00-0000-33.png,0002-00-0000-56.png
00000009,69,1,1450287034805,1450287035457,496,259,0,0,0,0,2,2,2,0005-00-0001-50.png,0003-00-0000-46.png
00000009,70,0,1450287036366,1450287037414,939,291,0,0,0,2,4,2,6,0003-00-0000-03.png,0001-00-0000-37.png
00000009,71,1,1450287040441,1450287040493,884,303,0,0,0,4,1,3,5,0001-00-0001-23.png,0004-00-0000-42.png
00000009,72,1,1450287041537,1450287041583,859,440,0,0,0,3,2,1,5,0002-00-0001-50.png,0003-00-0000-09.png
00000009,73,0,1450287042552,1450287043470,476,252,0,0,0,4,3,1,7,0001-00-0000-63.png,0002-00-0001-57.png
00000009,74,0,1450287046321,1450287046901,1087,387,0,0,0,1,4,3,5,0004-00-0000-93.png,0001-00-0000-96.png
00000009,75,1,1450287050734,1450287051265,937,356,0,0,0,4,0,4,4,0001-00-0001-45.png,0005-00-0001-94.png
00000009,76,1,1450287052102,1450287052999,951,330,0,0,0,1,0,1,1,0004-00-0000-54.png,0005-00-0000-80.png
00000009,77,1,1450287053937,1450287054648,1016,244,0,0,0,2,0,2,2,0003-00-0000-87.png,0005-00-0001-00.png
00000009,78,0,1450287055577,1450287056262,450,280,0,0,0,3,1,2,4,0002-00-0001-58.png,0004-00-0000-45.png
00000009,79,1,1450287059234,1450287059866,963,389,0,0,0,4,2,2,6,0001-00-0001-07.png,0003-00-0001-66.png
00000009,80,1,1450287060722,1450287061503,445,260,0,0,0,0,4,4,4,0005-00-0000-11.png,0001-00-0000-73.png
00000009,81,1,1450287062383,1450287062577,912,566,0,0,0,4,0,4,4,0001-00-0001-35.png,0005-00-0000-17.png
00000009,82,1,1450287063612,1450287064300,439,272,0,0,0,1,2,1,3,0004-00-0001-59.png,0003-00-0001-81.png
00000009,83,0,1450287065217,1450287066111,470,271,0,0,0,1,0,1,1,0004-00-0000-41.png,0005-00-0001-20.png
00000009,84,0,1450287069061,1450287069578,940,357,0,0,0,1,3,2,4,0004-00-0000-86.png,0002-00-0001-20.png
00000009,85,0,1450287072520,1450287072697,929,424,0,0,0,1,4,3,5,0004-00-0000-46.png,0001-00-0000-90.png
00000009,86,1,1450287075849,1450287076353,1064,282,0,0,0,4,2,2,6,0001-00-0001-48.png,0003-00-0000-29.png
00000009,87,1,1450287077264,1450287077904,478,263,0,0,0,0,2,2,2,0005-00-0000-68.png,0003-00-0000-70.png
00000009,88,1,1450287078842,1450287079692,479,252,0,0,0,2,4,2,6,0003-00-0001-34.png,0001-00-0000-46.png
00000009,89,1,1450287080663,1450287081308,964,266,0,0,0,3,1,2,4,0002-00-0000-63.png,0004-00-0001-30.png
00000009,90,1,1450287082239,1450287082309,859,436,0,0,0,3,0,3,3,0002-00-0000-66.png,0005-00-0001-24.png
00000009,91,1,1450287083354,1450287084447,1024,269,0,0,0,3,2,1,5,0002-00-0001-94.png,0003-00-0000-82.png
00000009,92,0,1450287085339,1450287085415,888,399,0,0,0,2,3,1,5,0003-00-0001-20.png,0002-00-0000-27.png
00000009,93,1,1450287088339,1450287088550,886,357,0,0,0,4,3,1,7,0001-00-0000-77.png,0002-00-0001-35.png
00000009,94,0,1450287089493,1450287089659,871,519,0,0,0,0,4,4,4,0005-00-0001-11.png,0001-00-0000-48.png
00000009,95,1,1450287097176,1450287097705,948,442,0,0,0,4,1,3,5,0001-00-0001-67.png,0004-00-0000-54.png
00000009,96,0,1450287098599,1450287098683,862,488,0,0,0,0,3,3,3,0005-00-0001-33.png,0002-00-0000-75.png
00000009,97,1,1450287101737,1450287101966,936,384,0,0,0,2,0,2,2,0003-00-0001-31.png,0005-00-0001-63.png
00000009,98,0,1450287102885,1450287103645,943,328,0,0,0,0,1,1,1,0005-00-0001-53.png,0004-00-0000-75.png
00000009,99,1,1450287106797,1450287106956,862,410,0,0,0,2,1,1,3,0003-00-0001-29.png,0004-00-0000-63.png
00000009,100,0,1450287107925,1450287108937,964,306,0,0,0,3,4,1,7,0002-00-0000-60.png,0001-00-0000-80.png
00000009,101,1,1450287112065,1450287112714,457,303,0,0,0,0,3,3,3,0005-00-0000-68.png,0002-00-0001-54.png
00000009,102,1,1450287113564,1450287113650,882,491,0,0,0,2,0,2,2,0003-00-0001-30.png,0005-00-0000-10.png
00000009,103,1,1450287114608,1450287115609,471,259,0,0,0,2,4,2,6,0003-00-0000-51.png,0001-00-0000-79.png
00000009,104,1,1450287116558,1450287116731,870,564,0,0,0,3,2,1,5,0002-00-0000-53.png,0003-00-0001-69.png
00000009,105,1,1450287117821,1450287118583,1016,253,0,0,0,3,1,2,4,0002-00-0000-40.png,0004-00-0000-81.png
00000009,106,1,1450287119489,1450287120229,485,244,0,0,0,0,1,1,1,0005-00-0000-04.png,0004-00-0001-56.png
00000009,107,1,1450287121147,1450287121920,924,313,0,0,0,1,0,1,1,0004-00-0001-96.png,0005-00-0001-21.png
00000009,108,1,1450287122845,1450287122917,888,462,0,0,0,2,1,1,3,0003-00-0001-50.png,0004-00-0001-76.png
00000009,109,1,1450287124029,1450287125001,939,394,0,0,0,3,0,3,3,0002-00-0001-64.png,0005-00-0000-29.png
00000009,110,0,1450287125928,1450287126134,924,563,0,0,0,1,2,1,3,0004-00-0000-39.png,0003-00-0001-16.png
00000009,111,1,1450287129273,1450287129908,395,350,0,0,0,1,3,2,4,0004-00-0000-62.png,0002-00-0000-15.png
00000009,112,1,1450287130780,1450287131698,485,243,0,0,0,2,3,1,5,0003-00-0000-29.png,0002-00-0001-01.png
00000009,113,1,1450287132621,1450287133364,417,384,0,0,0,0,4,4,4,0005-00-0001-61.png,0001-00-0000-61.png
00000009,114,1,1450287134258,1450287135033,938,392,0,0,0,4,1,3,5,0001-00-0000-93.png,0004-00-0001-21.png
00000009,115,0,1450287135982,1450287136914,467,279,0,0,0,4,3,1,7,0001-00-0000-11.png,0002-00-0001-99.png
00000009,116,1,1450287139829,1450287140354,990,332,0,0,0,4,0,4,4,0001-00-0001-75.png,0005-00-0000-31.png
00000009,117,1,1450287141180,1450287142049,473,230,0,0,0,1,4,3,5,0004-00-0000-72.png,0001-00-0000-06.png
00000009,118,0,1450287142983,1450287143617,939,358,0,0,0,0,2,2,2,0005-00-0001-48.png,0003-00-0001-97.png
00000009,119,1,1450287146553,1450287147080,453,242,0,0,0,3,4,1,7,0002-00-0001-86.png,0001-00-0001-78.png
00000009,120,1,1450287147988,1450287148939,1050,332,0,0,0,4,2,2,6,0001-00-0001-79.png,0003-00-0001-60.png
00000009,121,1,1450287149936,1450287150712,939,291,0,0,0,4,1,3,5,0001-00-0000-79.png,0004-00-0000-76.png
00000009,122,0,1450287151706,1450287151805,898,510,0,0,0,1,3,2,4,0004-00-0000-31.png,0002-00-0000-10.png
00000009,123,0,1450287154730,1450287154830,931,274,0,0,0,0,4,4,4,0005-00-0001-12.png,0001-00-0000-64.png
00000009,124,1,1450287158005,1450287158490,939,348,0,0,0,2,1,1,3,0003-00-0001-66.png,0004-00-0000-41.png
00000009,125,1,1450287159376,1450287160741,912,271,0,0,0,4,3,1,7,0001-00-0000-96.png,0002-00-0001-17.png
00000009,126,0,1450287161812,1450287161940,907,534,0,0,0,0,3,3,3,0005-00-0001-26.png,0002-00-0001-15.png
00000009,127,0,1450287164800,1450287164816,501,480,0,0,0,4,2,2,6,0001-00-0001-91.png,0003-00-0001-95.png
00000009,128,1,1450287168251,1450287168787,427,425,0,0,0,1,4,3,5,0004-00-0001-62.png,0001-00-0000-94.png
00000009,129,1,1450287169649,1450287170342,964,431,0,0,0,3,0,3,3,0002-00-0000-78.png,0005-00-0000-68.png
00000009,130,1,1450287171194,1450287171294,892,466,0,0,0,2,0,2,2,0003-00-0000-78.png,0005-00-0001-97.png
00000009,131,0,1450287172240,1450287172344,862,488,0,0,0,0,1,1,1,0005-00-0000-18.png,0004-00-0001-72.png
00000009,132,0,1450287175505,1450287175621,938,252,0,0,0,0,2,2,2,0005-00-0000-62.png,0003-00-0001-53.png
00000009,133,1,1450287178775,1450287178937,875,410,0,0,0,1,0,1,1,0004-00-0001-65.png,0005-00-0000-22.png
00000009,134,1,1450287179928,1450287180810,939,368,0,0,0,4,0,4,4,0001-00-0001-21.png,0005-00-0000-13.png
00000009,135,1,1450287181728,1450287182930,491,259,0,0,0,3,4,1,7,0002-00-0000-34.png,0001-00-0001-33.png
00000009,136,0,1450287183882,1450287184740,913,374,0,0,0,2,3,1,5,0003-00-0000-18.png,0002-00-0000-64.png
00000009,137,0,1450287187745,1450287187984,932,384,0,0,0,1,2,1,3,0004-00-0000-95.png,0003-00-0000-83.png
00000009,138,0,1450287190887,1450287191363,964,279,0,0,0,2,4,2,6,0003-00-0001-67.png,0001-00-0001-29.png
00000009,139,1,1450287194485,1450287195000,1049,275,0,0,0,3,2,1,5,0002-00-0000-16.png,0003-00-0000-30.png
00000009,140,1,1450287195897,1450287196811,939,410,0,0,0,3,1,2,4,0002-00-0001-50.png,0004-00-0000-13.png
00000009,141,1,1450287197715,1450287198476,493,242,0,0,0,0,3,3,3,0005-00-0000-80.png,0002-00-0000-64.png
00000009,142,1,1450287199421,1450287200556,964,323,0,0,0,4,3,1,7,0001-00-0000-60.png,0002-00-0001-16.png
00000009,143,1,1450287201550,1450287201651,896,478,0,0,0,3,0,3,3,0002-00-0000-51.png,0005-00-0000-72.png
00000009,144,0,1450287202700,1450287202919,869,543,0,0,0,3,4,1,7,0002-00-0000-66.png,0001-00-0001-03.png
00000009,145,0,1450287206024,1450287206245,859,367,0,0,0,1,3,2,4,0004-00-0001-69.png,0002-00-0000-14.png
00000009,146,1,1450287209292,1450287209916,487,304,0,0,0,2,4,2,6,0003-00-0000-21.png,0001-00-0001-47.png
00000009,147,1,1450287210784,1450287210970,880,562,0,0,0,3,1,2,4,0002-00-0000-07.png,0004-00-0001-31.png
00000009,148,0,1450287212024,1450287212982,446,389,0,0,0,4,2,2,6,0001-00-0000-98.png,0003-00-0001-40.png
00000009,149,1,1450287218482,1450287219000,923,356,0,0,0,4,1,3,5,0001-00-0000-81.png,0004-00-0001-26.png
00000009,150,0,1450287219976,1450287220052,882,507,0,0,0,0,1,1,1,0005-00-0001-94.png,0004-00-0000-56.png
00000009,151,0,1450287222894,1450287223563,453,267,0,0,0,2,1,1,3,0003-00-0000-83.png,0004-00-0000-87.png
00000009,152,1,1450287226645,1450287227217,414,386,0,0,0,0,4,4,4,0005-00-0000-86.png,0001-00-0001-17.png
00000009,153,1,1450287228072,1450287228776,1008,238,0,0,0,1,0,1,1,0004-00-0001-49.png,0005-00-0000-50.png
00000009,154,1,1450287229725,1450287230681,493,252,0,0,0,2,3,1,5,0003-00-0000-06.png,0002-00-0001-79.png
00000009,155,1,1450287231581,1450287232249,1016,253,0,0,0,2,0,2,2,0003-00-0000-37.png,0005-00-0000-76.png
00000009,156,1,1450287233415,1450287234178,478,241,0,0,0,1,4,3,5,0004-00-0000-32.png,0001-00-0000-00.png
00000009,157,0,1450287235026,1450287235883,913,322,0,0,0,1,2,1,3,0004-00-0001-01.png,0003-00-0000-76.png
00000009,158,1,1450287238867,1450287239457,990,367,0,0,0,3,2,1,5,0002-00-0000-92.png,0003-00-0000-79.png
00000009,159,1,1450287240312,1450287241126,522,247,0,0,0,0,2,2,2,0005-00-0001-28.png,0003-00-0000-67.png
00000009,160,1,1450287242045,1450287242634,1041,235,0,0,0,4,0,4,4,0001-00-0001-31.png,0005-00-0000-81.png
00000009,161,0,1450287243665,1450287244487,928,306,0,0,0,3,4,1,7,0002-00-0001-74.png,0001-00-0001-01.png
00000009,162,0,1450287247620,1450287248152,951,330,0,0,0,1,3,2,4,0004-00-0000-84.png,0002-00-0000-11.png
00000009,163,1,1450287251058,1450287251836,500,295,0,0,0,2,4,2,6,0003-00-0000-69.png,0001-00-0000-81.png
00000009,164,0,1450287252676,1450287253564,492,243,0,0,0,4,2,2,6,0001-00-0001-76.png,0003-00-0000-97.png
00000009,165,1,1450287256735,1450287257242,1045,251,0,0,0,4,1,3,5,0001-00-0001-69.png,0004-00-0000-40.png
00000009,166,1,1450287258157,1450287258263,869,559,0,0,0,2,1,1,3,0003-00-0000-88.png,0004-00-0001-27.png
00000009,167,1,1450287259308,1450287260114,1041,267,0,0,0,2,0,2,2,0003-00-0000-36.png,0005-00-0000-35.png
00000009,168,1,1450287261066,1450287261752,493,241,0,0,0,0,1,1,1,0005-00-0000-74.png,0004-00-0001-14.png
00000009,169,0,1450287262672,1450287263636,427,317,0,0,0,3,2,1,5,0002-00-0000-00.png,0003-00-0000-24.png
00000009,170,1,1450287266721,1450287267228,1041,253,0,0,0,4,3,1,7,0001-00-0000-28.png,0002-00-0001-68.png
00000009,171,0,1450287268101,1450287268149,862,464,0,0,0,2,3,1,5,0003-00-0000-67.png,0002-00-0001-84.png
00000009,172,1,1450287271034,1450287271587,952,306,0,0,0,4,0,4,4,0001-00-0001-96.png,0005-00-0001-31.png
00000009,173,1,1450287272453,1450287272622,863,520,0,0,0,1,0,1,1,0004-00-0001-04.png,0005-00-0000-19.png
00000009,174,1,1450287273588,1450287274294,1041,253,0,0,0,3,0,3,3,0002-00-0001-98.png,0005-00-0000-13.png
00000009,175,0,1450287275287,1450287275317,873,489,0,0,0,0,4,4,4,0005-00-0000-68.png,0001-00-0000-00.png
00000009,176,1,1450287278427,1450287278995,954,327,0,0,0,3,1,2,4,0002-00-0000-99.png,0004-00-0000-74.png
00000009,177,0,1450287279857,1450287279956,888,488,0,0,0,0,2,2,2,0005-00-0001-38.png,0003-00-0000-67.png
00000009,178,0,1450287282989,1450287283524,1016,253,0,0,0,1,2,1,3,0004-00-0001-40.png,0003-00-0001-83.png
00000009,179,0,1450287286537,1450287286636,862,306,0,0,0,0,3,3,3,0005-00-0001-89.png,0002-00-0001-99.png
00000009,180,0,1450287289726,1450287289930,885,357,0,0,0,1,4,3,5,0004-00-0001-13.png,0001-00-0001-67.png
00000009,181,0,1450287292907,1450287293040,862,384,0,0,0,1,4,3,5,0004-00-0001-40.png,0001-00-0001-46.png
00000009,182,1,1450287295925,1450287297018,403,378,0,0,0,0,3,3,3,0005-00-0001-98.png,0002-00-0000-59.png
00000009,183,1,1450287297987,1450287298631,493,243,0,0,0,0,2,2,2,0005-00-0000-59.png,0003-00-0001-17.png
00000009,184,1,1450287299526,1450287300430,463,272,0,0,0,2,3,1,5,0003-00-0001-51.png,0002-00-0000-55.png
00000009,185,1,1450287301443,1450287302304,923,349,0,0,0,4,3,1,7,0001-00-0001-57.png,0002-00-0001-91.png
00000009,186,1,1450287303281,1450287303972,1016,267,0,0,0,3,0,3,3,0002-00-0000-19.png,0005-00-0000-33.png
00000009,187,1,1450287304973,1450287305211,888,562,0,0,0,2,1,1,3,0003-00-0001-16.png,0004-00-0000-50.png
00000009,188,0,1450287306374,1450287307205,383,324,0,0,0,3,1,2,4,0002-00-0001-35.png,0004-00-0000-98.png
00000009,189,0,1450287310337,1450287310455,867,371,0,0,0,3,4,1,7,0002-00-0001-97.png,0001-00-0001-42.png
00000009,190,1,1450287313328,1450287313567,998,308,0,0,0,4,1,3,5,0001-00-0000-04.png,0004-00-0000-11.png
00000009,191,1,1450287314556,1450287315288,911,410,0,0,0,2,0,2,2,0003-00-0000-15.png,0005-00-0000-98.png
00000009,192,1,1450287316263,1450287317084,492,253,0,0,0,2,4,2,6,0003-00-0001-68.png,0001-00-0001-79.png
00000009,193,1,1450287318037,1450287318735,464,252,0,0,0,1,2,1,3,0004-00-0001-20.png,0003-00-0000-02.png
00000009,194,1,1450287319634,1450287320217,935,360,0,0,0,4,0,4,4,0001-00-0001-21.png,0005-00-0000-00.png
00000009,195,1,1450287321239,1450287321319,891,505,0,0,0,3,2,1,5,0002-00-0000-63.png,0003-00-0001-46.png
00000009,196,1,1450287322602,1450287323453,504,269,0,0,0,0,4,4,4,0005-00-0001-10.png,0001-00-0001-04.png
00000009,197,1,1450287324410,1450287325228,447,402,0,0,0,0,1,1,1,0005-00-0001-56.png,0004-00-0000-28.png
00000009,198,1,1450287326098,1450287326810,1038,250,0,0,0,1,0,1,1,0004-00-0000-97.png,0005-00-0001-32.png
00000009,199,1,1450287327726,1450287327858,905,501,0,0,0,4,2,2,6,0001-00-0001-72.png,0003-00-0001-04.png
00000009,200,1,1450287328841,1450287329652,489,253,0,0,0,1,3,2,4,0004-00-0001-94.png,0002-00-0000-24.png
00000009,201,0,1450287330615,1450287331610,939,400,0,0,0,0,1,1,1,0005-00-0000-40.png,0004-00-0000-56.png
00000009,202,0,1450287334474,1450287335289,456,307,0,0,0,2,0,2,2,0003-00-0000-11.png,0005-00-0001-48.png
00000009,203,1,1450287338243,1450287338822,479,283,0,0,0,0,4,4,4,0005-00-0001-91.png,0001-00-0001-86.png
00000009,204,0,1450287339745,1450287339891,883,559,0,0,0,2,3,1,5,0003-00-0001-57.png,0002-00-0000-77.png
00000009,205,1,1450287343012,1450287343564,974,310,0,0,0,1,0,1,1,0004-00-0000-28.png,0005-00-0001-82.png
00000009,206,1,1450287344442,1450287344585,905,534,0,0,0,3,2,1,5,0002-00-0001-83.png,0003-00-0001-59.png
00000009,207,1,1450287345637,1450287346357,493,253,0,0,0,0,2,2,2,0005-00-0000-70.png,0003-00-0001-41.png
00000009,208,1,1450287347261,1450287347875,932,365,0,0,0,3,0,3,3,0002-00-0000-14.png,0005-00-0000-68.png
00000009,209,0,1450287348924,1450287349081,892,529,0,0,0,1,3,2,4,0004-00-0001-94.png,0002-00-0001-79.png
00000009,210,1,1450287352082,1450287352599,971,308,0,0,0,3,1,2,4,0002-00-0000-81.png,0004-00-0001-52.png
00000009,211,1,1450287353497,1450287354258,913,369,0,0,0,2,1,1,3,0003-00-0001-03.png,0004-00-0000-72.png
00000009,212,1,1450287355217,1450287355906,485,260,0,0,0,1,2,1,3,0004-00-0000-34.png,0003-00-0001-05.png
00000009,213,1,1450287356763,1450287357671,951,332,0,0,0,4,1,3,5,0001-00-0001-93.png,0004-00-0001-45.png
00000009,214,1,1450287358570,1450287358633,864,467,0,0,0,4,0,4,4,0001-00-0000-88.png,0005-00-0001-11.png
00000009,215,0,1450287359843,1450287359939,864,544,0,0,0,3,4,1,7,0002-00-0001-10.png,0001-00-0000-38.png
00000009,216,1,1450287362831,1450287363393,512,261,0,0,0,1,4,3,5,0004-00-0001-04.png,0001-00-0001-34.png
00000009,217,1,1450287364266,1450287365136,1020,270,0,0,0,4,3,1,7,0001-00-0001-68.png,0002-00-0001-76.png
00000009,218,1,1450287366051,1450287366195,862,514,0,0,0,4,2,2,6,0001-00-0001-76.png,0003-00-0001-69.png
00000009,219,0,1450287367339,1450287367407,862,514,0,0,0,0,3,3,3,0005-00-0001-34.png,0002-00-0000-45.png
00000009,220,1,1450287370309,1450287370852,394,352,0,0,0,2,4,2,6,0003-00-0001-12.png,0001-00-0000-76.png
00000009,221,1,1450287371706,1450287372458,515,241,0,0,0,2,4,2,6,0003-00-0000-43.png,0001-00-0000-40.png
00000009,222,1,1450287373399,1450287374095,478,239,0,0,0,0,1,1,1,0005-00-0001-34.png,0004-00-0001-66.png
00000009,223,1,1450287375596,1450287376373,402,381,0,0,0,1,3,2,4,0004-00-0000-76.png,0002-00-0000-33.png
00000009,224,1,1450287377245,1450287378441,939,384,0,0,0,3,2,1,5,0002-00-0000-52.png,0003-00-0001-26.png
00000009,225,0,1450287379383,1450287379455,865,483,0,0,0,0,3,3,3,0005-00-0000-28.png,0002-00-0000-46.png
00000009,226,0,1450287382331,1450287383407,368,340,0,0,0,4,1,3,5,0001-00-0001-89.png,0004-00-0001-78.png
00000009,227,1,1450287386298,1450287386868,939,344,0,0,0,1,0,1,1,0004-00-0000-53.png,0005-00-0001-25.png
00000009,228,0,1450287387771,1450287388483,943,349,0,0,0,1,4,3,5,0004-00-0001-80.png,0001-00-0001-87.png
00000009,229,0,1450287391486,1450287392261,1101,370,0,0,0,1,2,1,3,0004-00-0000-28.png,0003-00-0000-38.png
00000009,230,1,1450287395192,1450287395833,1067,339,0,0,0,2,0,2,2,0003-00-0000-45.png,0005-00-0001-41.png
00000009,231,1,1450287396756,1450287396859,908,530,0,0,0,2,1,1,3,0003-00-0001-51.png,0004-00-0000-08.png
00000009,232,0,1450287397878,1450287397951,867,531,0,0,0,0,2,2,2,0005-00-0000-30.png,0003-00-0000-85.png
00000009,233,1,1450287400915,1450287401500,387,332,0,0,0,3,4,1,7,0002-00-0000-04.png,0001-00-0001-16.png
00000009,234,1,1450287402396,1450287403271,477,248,0,0,0,2,3,1,5,0003-00-0001-45.png,0002-00-0000-61.png
00000009,235,0,1450287404155,1450287404986,476,269,0,0,0,4,3,1,7,0001-00-0000-53.png,0002-00-0000-63.png
00000009,236,1,1450287407940,1450287408536,964,279,0,0,0,3,0,3,3,0002-00-0001-58.png,0005-00-0001-47.png
00000009,237,0,1450287409421,1450287410449,487,253,0,0,0,4,2,2,6,0001-00-0000-92.png,0003-00-0001-36.png
00000009,238,1,1450287413593,1450287414127,963,295,0,0,0,3,1,2,4,0002-00-0000-84.png,0004-00-0001-23.png
00000009,239,1,1450287414990,1450287415085,882,494,0,0,0,4,0,4,4,0001-00-0000-80.png,0005-00-0000-88.png
00000009,240,1,1450287415970,1450287417011,478,261,0,0,0,0,4,4,4,0005-00-0000-60.png,0001-00-0001-98.png
00000009,241,1,1450287417890,1450287418723,397,361,0,0,0,0,3,3,3,0005-00-0000-76.png,0002-00-0000-92.png
00000009,242,1,1450287419638,1450287420358,939,401,0,0,0,2,1,1,3,0003-00-0000-94.png,0004-00-0000-55.png
00000009,243,1,1450287421329,1450287421462,893,525,0,0,0,2,0,2,2,0003-00-0000-68.png,0005-00-0000-73.png
00000009,244,0,1450287422645,1450287422843,860,566,0,0,0,0,4,4,4,0005-00-0001-40.png,0001-00-0001-30.png
00000009,245,1,1450287425954,1450287426522,958,407,0,0,0,3,1,2,4,0002-00-0000-99.png,0004-00-0001-36.png
00000009,246,1,1450287427368,1450287428053,939,291,0,0,0,1,0,1,1,0004-00-0000-36.png,0005-00-0001-26.png
00000009,247,1,1450287429030,1450287429128,888,514,0,0,0,4,3,1,7,0001-00-0001-16.png,0002-00-0001-11.png
00000009,248,0,1450287430135,1450287431177,497,272,0,0,0,3,2,1,5,0002-00-0000-44.png,0003-00-0000-30.png
00000009,249,1,1450287434307,1450287434805,913,346,0,0,0,3,0,3,3,0002-00-0001-90.png,0005-00-0001-36.png
00000009,250,1,1450287435655,1450287435762,875,508,0,0,0,4,0,4,4,0001-00-0001-72.png,0005-00-0000-14.png
00000009,251,1,1450287436721,1450287437608,401,321,0,0,0,0,1,1,1,0005-00-0001-44.png,0004-00-0000-24.png
00000009,252,1,1450287438457,1450287439497,939,368,0,0,0,4,2,2,6,0001-00-0000-73.png,0003-00-0000-99.png
00000009,253,1,1450287440468,1450287441346,514,228,0,0,0,0,2,2,2,0005-00-0001-04.png,0003-00-0001-26.png
00000009,254,1,1450287442233,1450287443184,485,246,0,0,0,1,2,1,3,0004-00-0000-03.png,0003-00-0000-19.png
00000009,255,1,1450287444051,1450287445037,484,243,0,0,0,1,3,2,4,0004-00-0000-26.png,0002-00-0000-54.png
00000009,256,1,1450287445930,1450287445978,862,488,0,0,0,4,1,3,5,0001-00-0000-13.png,0004-00-0000-15.png
00000009,257,1,1450287447105,1450287448197,476,253,0,0,0,3,4,1,7,0002-00-0001-63.png,0001-00-0001-35.png
00000009,258,0,1450287449173,1450287449262,881,468,0,0,0,2,4,2,6,0003-00-0000-91.png,0001-00-0001-58.png
00000009,259,0,1450287452111,1450287452147,862,358,0,0,0,1,4,3,5,0004-00-0001-85.png,0001-00-0001-37.png
00000009,260,1,1450287455262,1450287455829,420,390,0,0,0,2,3,1,5,0003-00-0001-57.png,0002-00-0001-44.png
00000009,261,1,1450287456671,1450287457498,964,370,0,0,0,4,1,3,5,0001-00-0000-10.png,0004-00-0000-44.png
00000009,262,1,1450287458448,1450287458500,887,506,0,0,0,3,2,1,5,0002-00-0001-10.png,0003-00-0000-13.png
00000009,263,1,1450287459453,1450287459663,864,566,0,0,0,1,0,1,1,0004-00-0001-17.png,0005-00-0000-42.png
00000009,264,0,1450287460767,1450287460815,889,516,0,0,0,2,3,1,5,0003-00-0000-80.png,0002-00-0000-30.png
00000009,265,1,1450287463727,1450287464255,484,270,0,0,0,1,4,3,5,0004-00-0001-59.png,0001-00-0000-60.png
00000009,266,1,1450287465098,1450287465228,884,529,0,0,0,4,3,1,7,0001-00-0001-11.png,0002-00-0000-13.png
00000009,267,1,1450287466233,1450287467441,504,255,0,0,0,0,4,4,4,0005-00-0001-66.png,0001-00-0001-06.png
00000009,268,1,1450287468326,1450287469146,489,264,0,0,0,2,4,2,6,0003-00-0000-76.png,0001-00-0001-00.png
00000009,269,1,1450287470039,1450287470752,1025,241,0,0,0,4,2,2,6,0001-00-0000-17.png,0003-00-0001-10.png
00000009,270,0,1450287471759,1450287471875,943,534,0,0,0,1,3,2,4,0004-00-0000-60.png,0002-00-0000-55.png
00000009,271,1,1450287475028,1450287475533,469,253,0,0,0,1,2,1,3,0004-00-0001-69.png,0003-00-0001-95.png
00000009,272,0,1450287476399,1450287477161,913,372,0,0,0,0,1,1,1,0005-00-0000-99.png,0004-00-0000-82.png
00000009,273,1,1450287480353,1450287480873,958,332,0,0,0,2,0,2,2,0003-00-0001-80.png,0005-00-0001-78.png
00000009,274,1,1450287481744,1450287482819,409,325,0,0,0,0,3,3,3,0005-00-0001-75.png,0002-00-0001-42.png
00000009,275,1,1450287483650,1450287483824,869,545,0,0,0,4,0,4,4,0001-00-0000-18.png,0005-00-0000-62.png
00000009,276,1,1450287484939,1450287485815,938,414,0,0,0,3,1,2,4,0002-00-0000-27.png,0004-00-0001-36.png
00000009,277,0,1450287486804,1450287486832,903,505,0,0,0,0,2,2,2,0005-00-0001-35.png,0003-00-0000-49.png
00000009,278,1,1450287489892,1450287490121,902,351,0,0,0,3,0,3,3,0002-00-0001-85.png,0005-00-0001-15.png
00000009,279,1,1450287491084,1450287491868,500,253,0,0,0,3,4,1,7,0002-00-0001-57.png,0001-00-0000-96.png
00000009,280,1,1450287492755,1450287493656,1016,279,0,0,0,2,1,1,3,0003-00-0000-36.png,0004-00-0000-08.png
00000009,281,1,1450287494574,1450287495306,477,421,0,0,0,1,4,3,5,0004-00-0000-30.png,0001-00-0001-82.png
00000009,282,1,1450287496195,1450287497061,478,267,0,0,0,1,2,1,3,0004-00-0000-96.png,0003-00-0001-95.png
00000009,283,1,1450287498000,1450287498742,913,383,0,0,0,1,0,1,1,0004-00-0000-47.png,0005-00-0000-39.png
00000009,284,1,1450287499686,1450287499756,865,502,0,0,0,4,1,3,5,0001-00-0001-75.png,0004-00-0001-50.png
00000009,285,1,1450287500966,1450287501773,939,375,0,0,0,4,2,2,6,0001-00-0001-73.png,0003-00-0001-56.png
00000009,286,1,1450287502729,1450287502802,880,534,0,0,0,3,0,3,3,0002-00-0000-43.png,0005-00-0001-32.png
00000009,287,0,1450287503925,1450287504021,913,525,0,0,0,3,4,1,7,0002-00-0001-76.png,0001-00-0000-91.png
00000009,288,1,1450287507124,1450287507614,485,276,0,0,0,0,3,3,3,0005-00-0001-21.png,0002-00-0000-35.png
00000009,289,0,1450287508971,1450287509523,913,358,0,0,0,2,3,1,5,0003-00-0001-90.png,0002-00-0001-87.png
00000009,290,1,1450287512409,1450287512983,401,349,0,0,0,0,2,2,2,0005-00-0000-15.png,0003-00-0001-64.png
00000009,291,1,1450287514403,1450287514988,921,297,0,0,0,2,0,2,2,0003-00-0000-19.png,0005-00-0000-89.png
00000009,292,1,1450287515823,1450287515923,939,488,0,0,0,4,3,1,7,0001-00-0001-25.png,0002-00-0000-92.png
00000009,293,0,1450287516902,1450287517842,492,243,0,0,0,3,2,1,5,0002-00-0000-17.png,0003-00-0001-60.png
00000009,294,0,1450287520836,1450287521341,1041,265,0,0,0,0,1,1,1,0005-00-0001-26.png,0004-00-0001-62.png
00000009,295,1,1450287524472,1450287524953,964,384,0,0,0,4,0,4,4,0001-00-0000-61.png,0005-00-0001-40.png
00000009,296,0,1450287525823,1450287525985,894,545,0,0,0,1,3,2,4,0004-00-0001-42.png,0002-00-0000-04.png
00000009,297,0,1450287528967,1450287529520,427,349,0,0,0,2,1,1,3,0003-00-0000-79.png,0004-00-0000-64.png
00000009,298,1,1450287532660,1450287533410,485,274,0,0,0,2,4,2,6,0003-00-0001-43.png,0001-00-0001-19.png
00000009,299,1,1450287534262,1450287535060,939,414,0,0,0,3,1,2,4,0002-00-0000-40.png,0004-00-0000-86.png
00000009,300,0,1450287536056,1450287536196,889,524,0,0,0,0,4,4,4,0005-00-0000-63.png,0001-00-0000-35.png
00000009,301,1,1450287539559,1450287539571,862,306,0,0,0,3,1,2,4,0002-00-0001-52.png,0004-00-0001-21.png
00000009,302,1,1450287540524,1450287541252,462,376,0,0,0,1,2,1,3,0004-00-0000-55.png,0003-00-0001-64.png
00000009,303,1,1450287542204,1450287542906,939,384,0,0,0,1,0,1,1,0004-00-0000-53.png,0005-00-0000-47.png
00000009,304,1,1450287543856,1450287544688,422,367,0,0,0,2,4,2,6,0003-00-0000-06.png,0001-00-0001-60.png
00000009,305,0,1450287545606,1450287545689,875,562,0,0,0,1,4,3,5,0004-00-0001-24.png,0001-00-0000-25.png
00000009,306,1,1450287548592,1450287549248,504,266,0,0,0,2,3,1,5,0003-00-0001-93.png,0002-00-0001-24.png
00000009,307,0,1450287550070,1450287551028,491,247,0,0,0,4,3,1,7,0001-00-0001-10.png,0002-00-0001-97.png
00000009,308,1,1450287553893,1450287553939,864,396,0,0,0,4,1,3,5,0001-00-0000-79.png,0004-00-0000-54.png
00000009,309,1,1450287554844,1450287555562,478,264,0,0,0,1,3,2,4,0004-00-0001-23.png,0002-00-0001-52.png
00000009,310,1,1450287556420,1450287557761,939,374,0,0,0,2,1,1,3,0003-00-0001-26.png,0004-00-0000-75.png
00000009,311,1,1450287558755,1450287559899,900,374,0,0,0,3,2,1,5,0002-00-0001-72.png,0003-00-0001-70.png
00000009,312,1,1450287560835,1450287561588,1053,319,0,0,0,4,2,2,6,0001-00-0001-10.png,0003-00-0001-41.png
00000009,313,1,1450287562535,1450287563208,964,317,0,0,0,2,0,2,2,0003-00-0001-46.png,0005-00-0001-77.png
00000009,314,1,1450287564185,1450287564264,914,513,0,0,0,4,0,4,4,0001-00-0000-99.png,0005-00-0000-27.png
00000009,315,1,1450287565390,1450287566269,398,334,0,0,0,0,3,3,3,0005-00-0001-80.png,0002-00-0000-69.png
00000009,316,0,1450287567123,1450287567183,861,497,0,0,0,3,4,1,7,0002-00-0000-37.png,0001-00-0001-30.png
00000009,317,1,1450287570064,1450287570675,409,350,0,0,0,0,4,4,4,0005-00-0000-32.png,0001-00-0000-58.png
00000009,318,0,1450287571512,1450287571665,903,534,0,0,0,0,2,2,2,0005-00-0000-73.png,0003-00-0001-01.png
00000009,319,1,1450287574846,1450287575369,1054,271,0,0,0,3,0,3,3,0002-00-0001-91.png,0005-00-0001-01.png
00000009,320,0,1450287576231,1450287576326,894,479,0,0,0,0,1,1,1,0005-00-0001-62.png,0004-00-0000-02.png
00000009,321,1,1450287579367,1450287579827,939,347,0,0,0,2,1,1,3,0003-00-0000-71.png,0004-00-0001-69.png
00000009,322,0,1450287580686,1450287580861,932,562,0,0,0,0,2,2,2,0005-00-0001-46.png,0003-00-0001-99.png
00000009,323,0,1450287584344,1450287584971,501,277,0,0,0,2,0,2,2,0003-00-0000-62.png,0005-00-0000-52.png
00000009,324,1,1450287587923,1450287588432,939,370,0,0,0,3,0,3,3,0002-00-0001-52.png,0005-00-0001-60.png
00000009,325,1,1450287589853,1450287590733,499,250,0,0,0,0,1,1,1,0005-00-0001-17.png,0004-00-0001-73.png
00000009,326,1,1450287591587,1450287592290,478,266,0,0,0,1,2,1,3,0004-00-0001-66.png,0003-00-0001-62.png
00000009,327,1,1450287593274,1450287594032,918,348,0,0,0,3,1,2,4,0002-00-0000-49.png,0004-00-0001-65.png
00000009,328,1,1450287594978,1450287595892,504,239,0,0,0,0,3,3,3,0005-00-0001-98.png,0002-00-0001-87.png
00000009,329,1,1450287596830,1450287597782,490,240,0,0,0,1,4,3,5,0004-00-0001-32.png,0001-00-0001-45.png
00000009,330,0,1450287598633,1450287599738,483,271,0,0,0,1,0,1,1,0004-00-0001-60.png,0005-00-0000-71.png
00000009,331,1,1450287602620,1450287603189,1043,261,0,0,0,4,3,1,7,0001-00-0001-53.png,0002-00-0001-02.png
00000009,332,0,1450287604061,1450287604132,862,506,0,0,0,2,3,1,5,0003-00-0000-14.png,0002-00-0000-00.png
00000009,333,1,1450287607291,1450287607836,401,341,0,0,0,2,4,2,6,0003-00-0000-26.png,0001-00-0001-79.png
00000009,334,1,1450287608692,1450287609407,490,241,0,0,0,0,4,4,4,0005-00-0001-46.png,0001-00-0001-16.png
00000009,335,0,1450287610281,1450287611015,939,358,0,0,0,3,4,1,7,0002-00-0001-96.png,0001-00-0000-32.png
00000009,336,0,1450287614156,1450287614695,419,325,0,0,0,3,2,1,5,0002-00-0000-67.png,0003-00-0001-80.png
00000009,337,1,1450287617575,1450287618203,990,319,0,0,0,4,2,2,6,0001-00-0000-31.png,0003-00-0001-31.png
00000009,338,0,1450287619106,1450287619259,906,560,0,0,0,1,3,2,4,0004-00-0000-81.png,0002-00-0000-00.png
00000009,339,1,1450287622157,1450287622810,1056,368,0,0,0,4,1,3,5,0001-00-0001-44.png,0004-00-0000-62.png
00000009,340,1,1450287623708,1450287624404,1017,242,0,0,0,4,0,4,4,0001-00-0000-80.png,0005-00-0000-68.png
00000009,341,1,1450287625307,1450287625406,890,484,0,0,0,4,1,3,5,0001-00-0000-99.png,0004-00-0000-11.png
00000009,342,1,1450287626582,1450287626694,897,561,0,0,0,3,2,1,5,0002-00-0000-07.png,0003-00-0001-34.png
00000009,343,1,1450287628539,1450287629234,465,267,0,0,0,0,1,1,1,0005-00-0001-11.png,0004-00-0001-21.png
00000009,344,1,1450287630087,1450287630888,475,400,0,0,0,0,2,2,2,0005-00-0000-36.png,0003-00-0000-83.png
00000009,345,1,1450287631767,1450287632547,913,322,0,0,0,3,1,2,4,0002-00-0000-41.png,0004-00-0000-02.png
00000009,346,1,1450287633474,1450287634506,1044,344,0,0,0,3,0,3,3,0002-00-0001-34.png,0005-00-0000-02.png
00000009,347,1,1450287635510,1450287636325,927,302,0,0,0,2,0,2,2,0003-00-0000-89.png,0005-00-0000-64.png
00000009,348,0,1450287637203,1450287637317,913,549,0,0,0,2,3,1,5,0003-00-0001-36.png,0002-00-0000-54.png
00000009,349,1,1450287643126,1450287643717,488,280,0,0,0,0,4,4,4,0005-00-0000-73.png,0001-00-0000-72.png
00000009,350,0,1450287644679,1450287644725,862,462,0,0,0,1,2,1,3,0004-00-0001-07.png,0003-00-0001-39.png
00000009,351,1,1450287647757,1450287648293,478,277,0,0,0,1,3,2,4,0004-00-0000-98.png,0002-00-0001-94.png
00000009,352,0,1450287649176,1450287649216,864,470,0,0,0,3,4,1,7,0002-00-0000-75.png,0001-00-0001-61.png
00000009,353,1,1450287652057,1450287652197,862,371,0,0,0,2,1,1,3,0003-00-0000-32.png,0004-00-0000-15.png
00000009,354,0,1450287653148,1450287653229,869,495,0,0,0,2,4,2,6,0003-00-0001-90.png,0001-00-0000-02.png
00000009,355,1,1450287656209,1450287656721,939,317,0,0,0,1,0,1,1,0004-00-0001-79.png,0005-00-0001-27.png
00000009,356,1,1450287657571,1450287658984,975,332,0,0,0,4,2,2,6,0001-00-0001-33.png,0003-00-0000-46.png
00000009,357,1,1450287659911,1450287660693,943,336,0,0,0,4,0,4,4,0001-00-0001-39.png,0005-00-0001-80.png
00000009,358,1,1450287661732,1450287662500,496,260,0,0,0,1,4,3,5,0004-00-0000-83.png,0001-00-0001-73.png
00000009,359,1,1450287663391,1450287664392,939,344,0,0,0,4,3,1,7,0001-00-0000-22.png,0002-00-0000-27.png
00000009,360,0,1450287665271,1450287665372,893,468,0,0,0,0,3,3,3,0005-00-0000-90.png,0002-00-0001-16.png
00000009,361,1,1450287668553,1450287669105,941,360,0,0,0,2,0,2,2,0003-00-0000-43.png,0005-00-0001-57.png
00000009,362,1,1450287670009,1450287670855,445,391,0,0,0,1,2,1,3,0004-00-0000-23.png,0003-00-0001-67.png
00000009,363,0,1450287671777,1450287672689,1007,279,0,0,0,1,4,3,5,0004-00-0000-88.png,0001-00-0000-21.png
00000009,364,0,1450287675818,1450287675964,862,402,0,0,0,0,4,4,4,0005-00-0001-49.png,0001-00-0001-00.png
00000009,365,0,1450287679116,1450287679732,1065,352,0,0,0,3,4,1,7,0002-00-0001-55.png,0001-00-0000-90.png
00000009,366,1,1450287682635,1450287683223,1039,287,0,0,0,2,1,1,3,0003-00-0001-88.png,0004-00-0001-47.png
00000009,367,0,1450287684148,1450287684245,886,564,0,0,0,0,2,2,2,0005-00-0001-25.png,0003-00-0001-18.png
00000009,368,1,1450287687233,1450287688021,939,348,0,0,0,3,2,1,5,0002-00-0001-42.png,0003-00-0000-45.png
00000009,369,1,1450287688905,1450287689913,952,345,0,0,0,4,2,2,6,0001-00-0000-30.png,0003-00-0001-30.png
00000009,370,0,1450287690816,1450287691939,433,322,0,0,0,4,3,1,7,0001-00-0001-88.png,0002-00-0000-61.png
00000009,371,1,1450287695139,1450287695634,964,279,0,0,0,1,0,1,1,0004-00-0001-08.png,0005-00-0001-85.png
00000009,372,1,1450287696605,1450287697441,424,401,0,0,0,2,3,1,5,0003-00-0001-27.png,0002-00-0001-56.png
00000009,373,1,1450287698338,1450287699274,437,415,0,0,0,2,4,2,6,0003-00-0000-07.png,0001-00-0001-38.png
00000009,374,0,1450287700151,1450287700898,926,294,0,0,0,0,1,1,1,0005-00-0000-73.png,0004-00-0001-96.png
00000009,375,1,1450287703832,1450287704692,989,547,0,0,0,3,1,2,4,0002-00-0000-56.png,0004-00-0000-86.png
00000009,376,1,1450287705648,1450287706604,941,359,0,0,0,4,1,3,5,0001-00-0000-08.png,0004-00-0001-92.png
00000009,377,1,1450287707549,1450287707625,860,466,0,0,0,4,0,4,4,0001-00-0000-65.png,0005-00-0001-54.png
00000009,378,1,1450287708779,1450287709955,947,391,0,0,0,3,0,3,3,0002-00-0001-72.png,0005-00-0001-30.png
00000009,379,1,1450287710850,1450287711973,504,266,0,0,0,1,3,2,4,0004-00-0000-19.png,0002-00-0001-47.png
00000009,380,1,1450287712885,1450287713691,501,265,0,0,0,0,3,3,3,0005-00-0001-87.png,0002-00-0001-73.png
00000009,381,1,1450287714551,1450287715557,936,374,0,0,0,3,0,3,3,0002-00-0000-47.png,0005-00-0001-81.png
00000009,382,1,1450287716546,1450287717406,522,284,0,0,0,0,2,2,2,0005-00-0001-56.png,0003-00-0000-28.png
00000009,383,1,1450287718310,1450287719175,939,308,0,0,0,1,0,1,1,0004-00-0000-78.png,0005-00-0001-82.png
00000009,384,1,1450287720230,1450287721032,510,285,0,0,0,2,4,2,6,0003-00-0001-21.png,0001-00-0000-99.png
00000009,385,1,1450287721928,1450287722742,478,373,0,0,0,0,3,3,3,0005-00-0001-62.png,0002-00-0001-74.png
00000009,386,1,1450287723730,1450287724530,939,400,0,0,0,3,1,2,4,0002-00-0001-75.png,0004-00-0000-69.png
00000009,387,0,1450287725499,1450287726466,939,306,0,0,0,1,3,2,4,0004-00-0000-99.png,0002-00-0000-47.png
00000009,388,1,1450287729428,1450287729936,913,293,0,0,0,4,3,1,7,0001-00-0000-54.png,0002-00-0001-69.png
00000009,389,1,1450287730930,1450287731037,866,501,0,0,0,4,1,3,5,0001-00-0000-73.png,0004-00-0001-63.png
00000009,390,1,1450287732142,1450287733078,522,273,0,0,0,0,4,4,4,0005-00-0001-41.png,0001-00-0000-61.png
00000009,391,1,1450287734580,1450287735130,519,279,0,0,0,1,2,1,3,0004-00-0000-86.png,0003-00-0000-66.png
00000009,392,1,1450287736109,1450287736713,1041,267,0,0,0,2,0,2,2,0003-00-0000-85.png,0005-00-0000-51.png
00000009,393,1,1450287737729,1450287737814,913,462,0,0,0,2,1,1,3,0003-00-0000-90.png,0004-00-0000-97.png
00000009,394,1,1450287738911,1450287739752,939,394,0,0,0,4,2,2,6,0001-00-0001-90.png,0003-00-0000-69.png
00000009,395,1,1450287740710,1450287740746,879,469,0,0,0,3,2,1,5,0002-00-0000-63.png,0003-00-0000-62.png
00000009,396,1,1450287742007,1450287742067,916,533,0,0,0,4,0,4,4,0001-00-0001-78.png,0005-00-0001-53.png
00000009,397,0,1450287743135,1450287743985,917,324,0,0,0,3,4,1,7,0002-00-0001-41.png,0001-00-0001-01.png
00000009,398,1,1450287746881,1450287747703,504,295,0,0,0,2,3,1,5,0003-00-0001-90.png,0002-00-0001-61.png
00000009,399,0,1450287748598,1450287748711,861,522,0,0,0,0,1,1,1,0005-00-0000-39.png,0004-00-0000-55.png
00000009,400,1,1450287751805,1450287752495,442,339,0,0,0,1,4,3,5,0004-00-0000-23.png,0001-00-0001-71.png
00000009,401,1,1450287753326,1450287754222,958,365,0,0,0,3,2,1,5,0002-00-0000-91.png,0003-00-0001-47.png
00000009,402,0,1450287755170,1450287755255,889,519,0,0,0,1,3,2,4,0004-00-0001-57.png,0002-00-0000-52.png
00000009,403,1,1450287758368,1450287758941,1064,271,0,0,0,2,0,2,2,0003-00-0000-74.png,0005-00-0001-90.png
00000009,404,0,1450287759798,1450287760811,508,253,0,0,0,4,2,2,6,0001-00-0000-84.png,0003-00-0001-08.png
00000009,405,0,1450287763831,1450287764335,939,367,0,0,0,2,3,1,5,0003-00-0001-62.png,0002-00-0000-37.png
00000009,406,1,1450287767332,1450287767936,504,278,0,0,0,1,2,1,3,0004-00-0000-12.png,0003-00-0000-16.png
00000009,407,1,1450287768761,1450287768871,867,482,0,0,0,3,1,2,4,0002-00-0000-74.png,0004-00-0000-34.png
00000009,408,1,1450287769903,1450287770791,1001,279,0,0,0,4,0,4,4,0001-00-0001-59.png,0005-00-0001-12.png
00000009,409,1,1450287771766,1450287772798,437,355,0,0,0,0,2,2,2,0005-00-0000-43.png,0003-00-0000-63.png
00000009,410,1,1450287773680,1450287774336,911,348,0,0,0,3,0,3,3,0002-00-0001-19.png,0005-00-0001-97.png
00000009,411,1,1450287775885,1450287776991,504,291,0,0,0,0,3,3,3,0005-00-0000-85.png,0002-00-0001-54.png
00000009,412,1,1450287777905,1450287778597,413,330,0,0,0,0,1,1,1,0005-00-0001-19.png,0004-00-0001-05.png
00000009,413,1,1450287779457,1450287780364,466,358,0,0,0,2,4,2,6,0003-00-0001-17.png,0001-00-0000-43.png
00000009,414,1,1450287781495,1450287782484,422,335,0,0,0,3,4,1,7,0002-00-0000-88.png,0001-00-0000-57.png
00000009,415,1,1450287783435,1450287784105,939,384,0,0,0,4,3,1,7,0001-00-0001-29.png,0002-00-0000-25.png
00000009,416,1,1450287785098,1450287785779,495,259,0,0,0,1,4,3,5,0004-00-0000-69.png,0001-00-0000-16.png
00000009,417,1,1450287786698,1450287787800,937,310,0,0,0,4,1,3,5,0001-00-0001-68.png,0004-00-0000-46.png
00000009,418,1,1450287788803,1450287789719,916,376,0,0,0,1,0,1,1,0004-00-0001-19.png,0005-00-0000-96.png
00000009,419,0,1450287790790,1450287790875,926,548,0,0,0,0,4,4,4,0005-00-0000-63.png,0001-00-0001-97.png
00000009,420,0,1450287793871,1450287794496,415,332,0,0,0,2,1,1,3,0003-00-0001-24.png,0004-00-0000-92.png
00000009,421,1,1450287802876,1450287803882,510,272,0,0,0,0,1,1,1,0005-00-0000-00.png,0004-00-0001-06.png
00000009,422,1,1450287805141,1450287805844,515,231,0,0,0,2,3,1,5,0003-00-0001-89.png,0002-00-0000-40.png
00000009,423,1,1450287806783,1450287806881,890,537,0,0,0,4,3,1,7,0001-00-0000-42.png,0002-00-0000-44.png
00000009,424,1,1450287807884,1450287807991,883,520,0,0,0,3,2,1,5,0002-00-0000-17.png,0003-00-0000-86.png
00000009,425,1,1450287809083,1450287809807,466,410,0,0,0,0,3,3,3,0005-00-0001-51.png,0002-00-0001-44.png
00000009,426,1,1450287810725,1450287810773,862,410,0,0,0,2,0,2,2,0003-00-0000-13.png,0005-00-0001-71.png
00000009,427,0,1450287811817,1450287811889,882,518,0,0,0,1,3,2,4,0004-00-0000-39.png,0002-00-0001-23.png
00000009,428,1,1450287815122,1450287815729,465,384,0,0,0,0,4,4,4,0005-00-0000-75.png,0001-00-0000-11.png
00000009,429,1,1450287816554,1450287817280,1041,251,0,0,0,4,2,2,6,0001-00-0001-37.png,0003-00-0000-81.png
00000009,430,0,1450287818142,1450287818307,893,522,0,0,0,1,4,3,5,0004-00-0001-73.png,0001-00-0000-63.png
00000009,431,1,1450287821419,1450287821883,990,291,0,0,0,4,0,4,4,0001-00-0000-27.png,0005-00-0001-76.png
00000009,432,1,1450287822738,1450287823866,488,254,0,0,0,0,2,2,2,0005-00-0001-01.png,0003-00-0001-57.png
00000009,433,1,1450287824746,1450287825718,517,283,0,0,0,3,4,1,7,0002-00-0001-13.png,0001-00-0001-72.png
00000009,434,1,1450287826665,1450287827452,427,384,0,0,0,1,2,1,3,0004-00-0001-83.png,0003-00-0001-28.png
00000009,435,0,1450287828322,1450287829783,939,349,0,0,0,2,4,2,6,0003-00-0000-89.png,0001-00-0001-39.png
00000009,436,1,1450287832745,1450287833270,959,369,0,0,0,3,0,3,3,0002-00-0000-84.png,0005-00-0000-98.png
00000009,437,1,1450287834146,1450287834256,892,520,0,0,0,2,1,1,3,0003-00-0000-75.png,0004-00-0000-01.png
00000009,438,1,1450287835170,1450287836015,913,279,0,0,0,3,1,2,4,0002-00-0001-35.png,0004-00-0001-90.png
00000009,439,0,1450287837538,1450287838158,418,338,0,0,0,1,0,1,1,0004-00-0000-28.png,0005-00-0000-00.png
00000009,440,1,1450287841092,1450287841635,964,348,0,0,0,4,1,3,5,0001-00-0001-99.png,0004-00-0000-70.png
00000009,441,0,1450287842503,1450287842663,893,545,0,0,0,2,4,2,6,0003-00-0001-42.png,0001-00-0001-96.png
00000009,442,1,1450287845803,1450287846476,980,417,0,0,0,1,0,1,1,0004-00-0000-65.png,0005-00-0001-08.png
00000009,443,0,1450287847393,1450287847517,939,541,0,0,0,3,4,1,7,0002-00-0000-11.png,0001-00-0001-24.png
00000009,444,1,1450287850626,1450287851064,939,318,0,0,0,2,1,1,3,0003-00-0000-13.png,0004-00-0000-76.png
00000009,445,1,1450287851922,1450287852017,913,490,0,0,0,2,0,2,2,0003-00-0001-50.png,0005-00-0000-59.png
00000009,446,1,1450287853040,1450287853782,504,264,0,0,0,0,4,4,4,0005-00-0001-32.png,0001-00-0001-51.png
00000009,447,0,1450287854661,1450287855642,964,361,0,0,0,1,2,1,3,0004-00-0001-27.png,0003-00-0000-34.png
00000009,448,1,1450287858532,1450287859194,1072,361,0,0,0,4,1,3,5,0001-00-0001-44.png,0004-00-0000-64.png
00000009,449,1,1450287860114,1450287861113,1048,284,0,0,0,3,1,2,4,0002-00-0000-09.png,0004-00-0001-76.png
00000009,450,1,1450287862097,1450287863305,965,308,0,0,0,3,2,1,5,0002-00-0001-91.png,0003-00-0001-32.png
00000009,451,1,1450287864376,1450287865066,485,245,0,0,0,1,4,3,5,0004-00-0001-93.png,0001-00-0001-73.png
00000009,452,1,1450287865996,1450287866701,489,274,0,0,0,1,3,2,4,0004-00-0000-04.png,0002-00-0000-18.png
00000009,453,1,1450287867876,1450287868549,939,349,0,0,0,3,0,3,3,0002-00-0001-34.png,0005-00-0001-70.png
00000009,454,0,1450287869541,1450287870289,429,356,0,0,0,4,2,2,6,0001-00-0000-16.png,0003-00-0001-61.png
00000009,455,0,1450287873368,1450287873376,880,358,0,0,0,0,3,3,3,0005-00-0000-97.png,0002-00-0000-85.png
00000009,456,1,1450287876709,1450287877249,1072,311,0,0,0,4,3,1,7,0001-00-0000-65.png,0002-00-0000-95.png
00000009,457,1,1450287878182,1450287879018,490,250,0,0,0,0,2,2,2,0005-00-0000-11.png,0003-00-0001-39.png
00000009,458,0,1450287879919,1450287879984,862,488,0,0,0,2,3,1,5,0003-00-0001-89.png,0002-00-0000-25.png
00000009,459,0,1450287883169,1450287883668,939,279,0,0,0,0,1,1,1,0005-00-0001-12.png,0004-00-0000-80.png
00000009,460,1,1450287886766,1450287887259,1067,279,0,0,0,4,0,4,4,0001-00-0001-65.png,0005-00-0000-20.png
00000009,461,1,1450287888187,1450287888255,885,520,0,0,0,1,0,1,1,0004-00-0001-93.png,0005-00-0001-09.png
00000009,462,1,1450287889195,1450287889858,1016,279,0,0,0,2,0,2,2,0003-00-0001-87.png,0005-00-0001-34.png
00000009,463,0,1450287890730,1450287890936,941,545,0,0,0,0,1,1,1,0005-00-0001-87.png,0004-00-0001-38.png
00000009,464,1,1450287893850,1450287894375,1067,314,0,0,0,3,1,2,4,0002-00-0001-14.png,0004-00-0000-10.png
00000009,465,1,1450287895263,1450287895366,920,531,0,0,0,3,0,3,3,0002-00-0001-05.png,0005-00-0001-29.png
00000009,466,1,1450287896395,1450287897565,391,306,0,0,0,3,4,1,7,0002-00-0000-53.png,0001-00-0001-41.png
00000009,467,0,1450287898472,1450287899144,1025,286,0,0,0,0,4,4,4,0005-00-0001-29.png,0001-00-0001-29.png
00000009,468,1,1450287902157,1450287902829,427,426,0,0,0,2,3,1,5,0003-00-0001-21.png,0002-00-0001-52.png
00000009,469,1,1450287903657,1450287904451,498,250,0,0,0,1,3,2,4,0004-00-0001-26.png,0002-00-0001-99.png
00000009,470,1,1450287905406,1450287906133,488,247,0,0,0,0,2,2,2,0005-00-0001-31.png,0003-00-0001-77.png
00000009,471,0,1450287907087,1450287907152,884,498,0,0,0,2,4,2,6,0003-00-0000-28.png,0001-00-0000-61.png
00000009,472,1,1450287910245,1450287910269,888,358,0,0,0,3,2,1,5,0002-00-0000-79.png,0003-00-0000-32.png
00000009,473,1,1450287911305,1450287912100,939,290,0,0,0,4,1,3,5,0001-00-0001-70.png,0004-00-0000-01.png
00000009,474,0,1450287913118,1450287913138,889,502,0,0,0,1,2,1,3,0004-00-0000-08.png,0003-00-0001-37.png
00000009,475,1,1450287916196,1450287916750,401,348,0,0,0,1,4,3,5,0004-00-0000-22.png,0001-00-0000-28.png
00000009,476,0,1450287917619,1450287918466,513,251,0,0,0,2,1,1,3,0003-00-0000-21.png,0004-00-0000-54.png
00000009,477,1,1450287921515,1450287922227,488,278,0,0,0,0,3,3,3,0005-00-0001-74.png,0002-00-0001-17.png
00000009,478,1,1450287923126,1450287923990,964,371,0,0,0,4,2,2,6,0001-00-0001-07.png,0003-00-0000-50.png
00000009,479,1,1450287924904,1450287924984,911,469,0,0,0,4,0,4,4,0001-00-0001-13.png,0005-00-0000-66.png
00000009,480,1,1450287925988,1450287926089,913,488,0,0,0,4,3,1,7,0001-00-0001-94.png,0002-00-0000-74.png
00000009,481,1,1450287927331,1450287928091,507,287,0,0,0,0,1,1,1,0005-00-0000-98.png,0004-00-0001-63.png
00000009,482,0,1450287929048,1450287929162,883,502,0,0,0,0,2,2,2,0005-00-0001-56.png,0003-00-0000-36.png
00000009,483,1,1450287931993,1450287932601,1070,335,0,0,0,4,2,2,6,0001-00-0000-62.png,0003-00-0001-98.png
00000009,484,1,1450287933581,1450287934290,1041,279,0,0,0,2,0,2,2,0003-00-0001-60.png,0005-00-0001-83.png
00000009,485,1,1450287935249,1450287935954,921,273,0,0,0,4,1,3,5,0001-00-0001-23.png,0004-00-0000-57.png
00000009,486,0,1450287936958,1450287937983,419,315,0,0,0,2,1,1,3,0003-00-0000-20.png,0004-00-0000-78.png
00000009,487,1,1450287955876,1450287955914,932,386,0,0,0,4,0,4,4,0001-00-0000-34.png,0005-00-0001-68.png
00000009,488,1,1450287957003,1450287957720,491,278,0,0,0,2,4,2,6,0003-00-0000-23.png,0001-00-0000-90.png
00000009,489,1,1450287958724,1450287959510,478,266,0,0,0,1,4,3,5,0004-00-0000-27.png,0001-00-0000-91.png
00000009,490,1,1450287960410,1450287961144,905,286,0,0,0,3,1,2,4,0002-00-0001-90.png,0004-00-0001-15.png
00000009,491,1,1450287962143,1450287963238,990,289,0,0,0,4,3,1,7,0001-00-0000-78.png,0002-00-0001-81.png
00000009,492,1,1450287964188,1450287964263,934,476,0,0,0,1,0,1,1,0004-00-0001-05.png,0005-00-0000-39.png
00000009,493,1,1450287965401,1450287966308,400,349,0,0,0,3,4,1,7,0002-00-0001-20.png,0001-00-0000-67.png
00000009,494,0,1450287967772,1450287968350,1052,312,0,0,0,1,3,2,4,0004-00-0001-14.png,0002-00-0001-65.png
00000009,495,1,1450287971254,1450287972017,939,375,0,0,0,3,2,1,5,0002-00-0001-68.png,0003-00-0001-48.png
00000009,496,0,1450287972982,1450287973124,882,553,0,0,0,1,2,1,3,0004-00-0000-12.png,0003-00-0001-17.png
00000009,497,0,1450287976116,1450287976233,905,311,0,0,0,0,4,4,4,0005-00-0001-20.png,0001-00-0001-66.png
00000009,498,0,1450287979391,1450287979907,964,306,0,0,0,2,3,1,5,0003-00-0000-88.png,0002-00-0001-51.png
00000009,499,1,1450287983119,1450287983634,478,269,0,0,0,0,3,3,3,0005-00-0000-58.png,0002-00-0000-79.png
00000009,500,1,1450287984581,1450287985355,1016,253,0,0,0,3,0,3,3,0002-00-0001-55.png,0005-00-0000-53.png
00000009,501,1,1450287986311,1450287987190,450,402,0,0,0,0,2,2,2,0005-00-0001-91.png,0003-00-0001-10.png
00000009,502,1,1450287988086,1450287988775,1039,263,0,0,0,2,0,2,2,0003-00-0001-89.png,0005-00-0000-13.png
00000009,503,1,1450287989829,1450287990727,419,315,0,0,0,2,3,1,5,0003-00-0001-88.png,0002-00-0001-71.png
00000009,504,0,1450287991622,1450287991775,873,517,0,0,0,0,3,3,3,0005-00-0001-33.png,0002-00-0000-79.png
00000009,505,1,1450287994887,1450287995403,1069,312,0,0,0,3,0,3,3,0002-00-0000-85.png,0005-00-0000-89.png
00000009,506,1,1450287996275,1450287997003,1014,274,0,0,0,3,1,2,4,0002-00-0001-54.png,0004-00-0001-85.png
00000009,507,1,1450287998026,1450287998898,913,340,0,0,0,1,0,1,1,0004-00-0001-04.png,0005-00-0000-16.png
00000009,508,1,1450287999885,1450288000999,515,264,0,0,0,3,4,1,7,0002-00-0000-47.png,0001-00-0001-04.png
00000009,509,1,1450288001968,1450288002944,513,227,0,0,0,2,4,2,6,0003-00-0001-32.png,0001-00-0001-36.png
00000009,510,1,1450288003966,1450288004954,938,312,0,0,0,3,2,1,5,0002-00-0001-58.png,0003-00-0000-65.png
00000009,511,1,1450288005966,1450288006103,913,551,0,0,0,4,0,4,4,0001-00-0000-78.png,0005-00-0001-02.png
00000009,512,0,1450288007365,1450288008528,409,350,0,0,0,4,2,2,6,0001-00-0000-92.png,0003-00-0000-03.png
00000009,513,0,1450288027876,1450288027987,909,278,0,0,0,0,1,1,1,0005-00-0000-62.png,0004-00-0000-80.png
00000009,514,1,1450288031039,1450288031577,480,275,0,0,0,0,4,4,4,0005-00-0000-34.png,0001-00-0000-99.png
00000009,515,1,1450288032511,1450288033203,1037,266,0,0,0,4,1,3,5,0001-00-0001-19.png,0004-00-0000-70.png
00000009,516,1,1450288034187,1450288034967,492,246,0,0,0,1,2,1,3,0004-00-0000-29.png,0003-00-0001-47.png
00000009,517,1,1450288035941,1450288036764,478,241,0,0,0,1,3,2,4,0004-00-0001-32.png,0002-00-0001-57.png
00000009,518,0,1450288037731,1450288038468,487,268,0,0,0,4,3,1,7,0001-00-0001-08.png,0002-00-0001-47.png
00000009,519,1,1450288090322,1450288090860,939,433,0,0,0,2,1,1,3,0003-00-0000-92.png,0004-00-0001-67.png
00000009,520,0,1450288091831,1450288091881,910,484,0,0,0,1,4,3,5,0004-00-0001-88.png,0001-00-0000-18.png
00000009,521,1,1450288094803,1450288095454,405,344,0,0,0,2,3,1,5,0003-00-0000-81.png,0002-00-0001-80.png
00000009,522,0,1450288096363,1450288096427,888,466,0,0,0,3,4,1,7,0002-00-0000-07.png,0001-00-0000-51.png
00000009,523,1,1450288099565,1450288100172,499,299,0,0,0,2,4,2,6,0003-00-0001-67.png,0001-00-0001-70.png
00000009,524,0,1450288101034,1450288102040,394,347,0,0,0,4,3,1,7,0001-00-0001-07.png,0002-00-0000-84.png
00000009,525,1,1450288142294,1450288143275,918,383,0,0,0,3,1,2,4,0002-00-0001-38.png,0004-00-0001-03.png
00000009,526,1,1450288144293,1450288145004,421,372,0,0,0,0,2,2,2,0005-00-0001-65.png,0003-00-0000-52.png
00000009,527,1,1450288145970,1450288146565,1041,292,0,0,0,1,0,1,1,0004-00-0000-76.png,0005-00-0000-51.png
00000009,528,1,1450288147486,1450288147569,913,451,0,0,0,4,2,2,6,0001-00-0000-93.png,0003-00-0000-21.png
00000009,529,1,1450288148514,1450288149482,915,292,0,0,0,4,0,4,4,0001-00-0001-68.png,0005-00-0001-52.png
00000009,530,1,1450288151033,1450288151538,482,269,0,0,0,1,4,3,5,0004-00-0000-60.png,0001-00-0000-27.png
00000009,531,1,1450288152386,1450288153432,938,275,0,0,0,3,0,3,3,0002-00-0001-07.png,0005-00-0001-95.png
00000009,532,0,1450288154363,1450288155386,939,348,0,0,0,0,1,1,1,0005-00-0000-82.png,0004-00-0001-19.png
00000009,533,0,1450288158632,1450288159232,964,332,0,0,0,1,2,1,3,0004-00-0001-03.png,0003-00-0001-15.png
00000009,534,1,1450288194504,1450288194516,967,326,0,0,0,2,0,2,2,0003-00-0000-85.png,0005-00-0000-57.png
00000009,535,1,1450288195470,1450288196347,458,300,0,0,0,0,3,3,3,0005-00-0000-56.png,0002-00-0001-46.png
00000009,536,1,1450288197169,1450288197260,869,489,0,0,0,3,2,1,5,0002-00-0000-31.png,0003-00-0000-03.png
00000009,537,1,1450288198374,1450288199316,425,387,0,0,0,1,3,2,4,0004-00-0001-11.png,0002-00-0001-37.png
00000009,538,0,1450288200239,1450288200255,862,384,0,0,0,0,4,4,4,0005-00-0000-51.png,0001-00-0000-96.png
00000009,539,1,1450288203282,1450288203394,857,282,0,0,0,4,1,3,5,0001-00-0000-27.png,0004-00-0001-54.png
00000009,540,1,1450288204349,1450288204405,863,462,0,0,0,2,1,1,3,0003-00-0000-02.png,0004-00-0001-55.png
00000009,541,1,1450288205305,1450288205483,874,514,0,0,0,3,2,1,5,0002-00-0000-77.png,0003-00-0001-69.png
00000009,542,0,1450288206542,1450288206727,913,538,0,0,0,3,4,1,7,0002-00-0001-02.png,0001-00-0000-53.png
00000009,543,1,1450288214796,1450288215350,413,393,0,0,0,1,4,3,5,0004-00-0001-08.png,0001-00-0000-49.png
00000009,544,1,1450288216198,1450288217183,939,374,0,0,0,2,0,2,2,0003-00-0000-90.png,0005-00-0001-01.png
00000009,545,1,1450288218138,1450288218697,1045,268,0,0,0,1,0,1,1,0004-00-0000-49.png,0005-00-0000-68.png
00000009,546,1,1450288219719,1450288220388,413,406,0,0,0,1,2,1,3,0004-00-0000-94.png,0003-00-0000-11.png
00000009,547,1,1450288221438,1450288221990,1014,287,0,0,0,3,0,3,3,0002-00-0001-16.png,0005-00-0000-49.png
00000009,548,0,1450288222975,1450288223019,915,399,0,0,0,0,4,4,4,0005-00-0001-83.png,0001-00-0000-80.png
00000009,549,1,1450288226773,1450288227265,478,292,0,0,0,2,3,1,5,0003-00-0000-09.png,0002-00-0001-77.png
00000009,550,0,1450288228192,1450288228220,859,474,0,0,0,1,3,2,4,0004-00-0000-82.png,0002-00-0001-99.png
00000009,551,1,1450288241593,1450288242193,1076,433,0,0,0,4,3,1,7,0001-00-0000-66.png,0002-00-0000-33.png
00000009,552,0,1450288243822,1450288243838,914,407,0,0,0,0,1,1,1,0005-00-0000-86.png,0004-00-0000-56.png
00000009,553,1,1450288246969,1450288247545,504,265,0,0,0,0,2,2,2,0005-00-0001-22.png,0003-00-0000-31.png
00000009,554,1,1450288248454,1450288249331,917,393,0,0,0,2,1,1,3,0003-00-0001-54.png,0004-00-0001-69.png
00000009,555,1,1450288250240,1450288251219,939,393,0,0,0,4,0,4,4,0001-00-0001-44.png,0005-00-0001-56.png
00000009,556,0,1450288252052,1450288252199,935,494,0,0,0,0,3,3,3,0005-00-0000-47.png,0002-00-0001-58.png
00000009,557,1,1450288255260,1450288255795,1016,279,0,0,0,4,1,3,5,0001-00-0001-53.png,0004-00-0001-29.png
00000009,558,1,1450288256630,1450288257552,1021,322,0,0,0,4,2,2,6,0001-00-0001-16.png,0003-00-0000-96.png
00000009,559,1,1450288258481,1450288258577,908,501,0,0,0,3,1,2,4,0002-00-0001-45.png,0004-00-0001-82.png
00000009,560,1,1450288259704,1450288260885,478,243,0,0,0,2,4,2,6,0003-00-0000-31.png,0001-00-0000-94.png
00000009,561,1,1450288261781,1450288262800,484,293,0,0,0,0,4,4,4,0005-00-0000-52.png,0001-00-0000-97.png
00000009,562,0,1450288263682,1450288263780,886,440,0,0,0,0,1,1,1,0005-00-0000-66.png,0004-00-0001-82.png
00000009,563,1,1450288272774,1450288273271,990,344,0,0,0,2,1,1,3,0003-00-0000-62.png,0004-00-0000-76.png
00000009,564,1,1450288274408,1450288274456,944,438,0,0,0,4,1,3,5,0001-00-0000-01.png,0004-00-0000-43.png
00000009,565,1,1450288275966,1450288276520,909,283,0,0,0,4,0,4,4,0001-00-0001-91.png,0005-00-0001-59.png
00000009,566,1,1450288277749,1450288278373,1026,279,0,0,0,3,1,2,4,0002-00-0001-04.png,0004-00-0000-22.png
00000009,567,0,1450288279304,1450288279414,936,482,0,0,0,2,4,2,6,0003-00-0000-78.png,0001-00-0001-87.png
00000009,568,1,1450288282616,1450288283098,484,268,0,0,0,2,3,1,5,0003-00-0000-69.png,0002-00-0000-40.png
00000009,569,0,1450288283998,1450288284660,1041,293,0,0,0,1,4,3,5,0004-00-0001-55.png,0001-00-0000-36.png
00000009,570,1,1450288287983,1450288288530,1041,279,0,0,0,3,0,3,3,0002-00-0001-05.png,0005-00-0001-97.png
00000009,571,1,1450288289948,1450288290594,403,378,0,0,0,0,3,3,3,0005-00-0001-71.png,0002-00-0000-53.png
00000009,572,1,1450288291464,1450288292116,990,279,0,0,0,3,2,1,5,0002-00-0000-00.png,0003-00-0001-85.png
00000009,573,1,1450288293115,1450288293841,485,261,0,0,0,1,2,1,3,0004-00-0001-54.png,0003-00-0000-28.png
00000009,574,1,1450288294748,1450288294768,866,409,0,0,0,1,0,1,1,0004-00-0000-88.png,0005-00-0000-73.png
00000009,575,1,1450288295854,1450288296617,383,352,0,0,0,0,2,2,2,0005-00-0000-79.png,0003-00-0000-04.png
00000009,576,1,1450288297581,1450288298492,384,371,0,0,0,3,4,1,7,0002-00-0001-86.png,0001-00-0000-35.png
00000009,577,0,1450288299469,1450288300291,504,245,0,0,0,4,3,1,7,0001-00-0001-32.png,0002-00-0000-19.png
00000009,578,1,1450288340872,1450288341403,392,361,0,0,0,1,3,2,4,0004-00-0001-57.png,0002-00-0000-13.png
00000009,579,1,1450288342397,1450288343004,990,292,0,0,0,2,0,2,2,0003-00-0001-89.png,0005-00-0000-41.png
00000009,580,0,1450288343853,1450288344742,365,409,0,0,0,4,2,2,6,0001-00-0001-18.png,0003-00-0000-04.png
00000009,581,1,1450288347598,1450288347654,888,436,0,0,0,4,2,2,6,0001-00-0000-26.png,0003-00-0001-14.png
00000009,582,0,1450288348589,1450288349573,888,348,0,0,0,0,2,2,2,0005-00-0001-25.png,0003-00-0001-21.png
00000009,583,0,1450288352746,1450288353555,381,367,0,0,0,4,3,1,7,0001-00-0001-10.png,0002-00-0000-49.png
00000009,584,1,1450288356725,1450288357325,939,372,0,0,0,3,1,2,4,0002-00-0000-22.png,0004-00-0001-52.png
00000009,585,1,1450288358716,1450288359387,939,375,0,0,0,2,1,1,3,0003-00-0001-00.png,0004-00-0001-27.png
00000009,586,1,1450288360376,1450288361145,913,372,0,0,0,1,0,1,1,0004-00-0001-76.png,0005-00-0000-83.png
00000009,587,1,1450288362003,1450288363021,1027,349,0,0,0,3,0,3,3,0002-00-0001-77.png,0005-00-0000-55.png
00000009,588,0,1450288364045,1450288364116,889,555,0,0,0,2,4,2,6,0003-00-0001-66.png,0001-00-0000-02.png
00000009,589,0,1450288367280,1450288367857,939,369,0,0,0,2,3,1,5,0003-00-0001-44.png,0002-00-0000-04.png
00000009,590,0,1450288370937,1450288371173,874,356,0,0,0,3,4,1,7,0002-00-0000-16.png,0001-00-0000-73.png
00000009,591,1,1450288377097,1450288377703,495,279,0,0,0,0,3,3,3,0005-00-0001-59.png,0002-00-0001-82.png
00000009,592,1,1450288378674,1450288379526,1041,306,0,0,0,4,0,4,4,0001-00-0000-57.png,0005-00-0000-30.png
00000009,593,0,1450288380457,1450288380515,969,478,0,0,0,0,4,4,4,0005-00-0000-21.png,0001-00-0001-98.png
00000009,594,1,1450288383631,1450288383667,884,326,0,0,0,2,0,2,2,0003-00-0001-21.png,0005-00-0000-43.png
00000009,595,1,1450288384627,1450288385572,491,285,0,0,0,1,2,1,3,0004-00-0000-65.png,0003-00-0000-18.png
00000009,596,1,1450288386451,1450288386501,883,460,0,0,0,3,2,1,5,0002-00-0000-35.png,0003-00-0000-92.png
00000009,597,1,1450288387409,1450288388180,964,358,0,0,0,4,1,3,5,0001-00-0000-75.png,0004-00-0001-20.png
00000009,598,0,1450288389126,1450288389185,944,410,0,0,0,1,4,3,5,0004-00-0001-94.png,0001-00-0000-64.png
00000009,599,0,1450288392303,1450288392782,1041,280,0,0,0,0,1,1,1,0005-00-0000-04.png,0004-00-0001-15.png
00000009,600,1,1450288395655,1450288396228,506,279,0,0,0,1,3,2,4,0004-00-0001-89.png,0002-00-0001-39.png
00000009,601,1,1450288397205,1450288397823,1020,281,0,0,0,2,0,2,2,0003-00-0001-39.png,0005-00-0000-36.png
00000009,602,0,1450288398864,1450288398932,907,496,0,0,0,2,4,2,6,0003-00-0000-45.png,0001-00-0001-71.png
00000009,603,1,1450288402078,1450288402608,1046,316,0,0,0,3,1,2,4,0002-00-0001-91.png,0004-00-0000-47.png
00000009,604,0,1450288403496,1450288404488,913,419,0,0,0,3,4,1,7,0002-00-0001-71.png,0001-00-0001-03.png
00000009,605,0,1450288531465,1450288532075,335,401,0,0,0,2,1,1,3,0003-00-0000-18.png,0004-00-0001-11.png
00000009,606,1,1450288535216,1450288535809,405,386,0,0,0,1,3,2,4,0004-00-0001-64.png,0002-00-0000-36.png
00000009,607,1,1450288536684,1450288537323,913,338,0,0,0,4,0,4,4,0001-00-0000-14.png,0005-00-0000-13.png
00000009,608,1,1450288538216,1450288539136,488,283,0,0,0,0,4,4,4,0005-00-0001-93.png,0001-00-0001-26.png
00000009,609,0,1450288539973,1450288540025,889,493,0,0,0,0,1,1,1,0005-00-0001-14.png,0004-00-0000-47.png
00000009,610,1,1450288542920,1450288543586,478,265,0,0,0,1,4,3,5,0004-00-0000-74.png,0001-00-0001-79.png
00000009,611,1,1450288544465,1450288545432,988,282,0,0,0,4,3,1,7,0001-00-0001-16.png,0002-00-0000-32.png
00000009,612,1,1450288546304,1450288546376,888,429,0,0,0,3,0,3,3,0002-00-0000-89.png,0005-00-0000-46.png
00000009,613,1,1450288547338,1450288548018,883,279,0,0,0,4,1,3,5,0001-00-0001-32.png,0004-00-0000-07.png
00000009,614,1,1450288549030,1450288549692,479,292,0,0,0,1,2,1,3,0004-00-0000-02.png,0003-00-0001-32.png
00000009,615,0,1450288550566,1450288550618,892,440,0,0,0,0,3,3,3,0005-00-0001-09.png,0002-00-0000-92.png
00000009,616,0,1450288613378,1450288613912,946,338,0,0,0,2,3,1,5,0003-00-0001-31.png,0002-00-0001-11.png
00000009,617,1,1450288616788,1450288617302,939,373,0,0,0,3,2,1,5,0002-00-0000-52.png,0003-00-0001-17.png
00000009,618,1,1450288618147,1450288618870,894,388,0,0,0,4,2,2,6,0001-00-0000-84.png,0003-00-0000-81.png
00000009,619,1,1450288619798,1450288620470,939,370,0,0,0,1,0,1,1,0004-00-0000-45.png,0005-00-0000-67.png
00000009,620,0,1450288621357,1450288621453,937,470,0,0,0,0,2,2,2,0005-00-0000-29.png,0003-00-0001-01.png
00000009,621,1,1450288624536,1450288625210,475,305,0,0,0,0,4,4,4,0005-00-0000-35.png,0001-00-0001-43.png
00000009,622,1,1450288626075,1450288626832,1016,319,0,0,0,4,2,2,6,0001-00-0001-79.png,0003-00-0000-95.png
00000009,623,1,1450288627729,1450288628434,392,349,0,0,0,2,4,2,6,0003-00-0001-32.png,0001-00-0001-88.png
00000009,624,1,1450288629420,1450288630051,939,325,0,0,0,4,1,3,5,0001-00-0000-70.png,0004-00-0001-37.png
00000009,625,0,1450288630965,1450288630997,910,413,0,0,0,0,3,3,3,0005-00-0000-30.png,0002-00-0000-87.png
00000009,626,0,1450288634166,1450288634659,1020,326,0,0,0,1,3,2,4,0004-00-0001-47.png,0002-00-0000-10.png
00000009,627,1,1450288663487,1450288663957,939,375,0,0,0,3,0,3,3,0002-00-0000-22.png,0005-00-0000-12.png
00000009,628,1,1450288665590,1450288666200,878,285,0,0,0,3,2,1,5,0002-00-0001-42.png,0003-00-0000-43.png
00000009,629,0,1450288667577,1450288667763,955,492,0,0,0,2,3,1,5,0003-00-0000-53.png,0002-00-0000-51.png
00000009,630,1,1450288676628,1450288677132,968,331,0,0,0,1,0,1,1,0004-00-0001-87.png,0005-00-0001-99.png
00000009,631,1,1450288678149,1450288678805,862,396,0,0,0,4,0,4,4,0001-00-0001-66.png,0005-00-0001-19.png
00000009,632,1,1450288680455,1450288681141,390,377,0,0,0,0,1,1,1,0005-00-0001-72.png,0004-00-0001-39.png
00000009,633,1,1450288682157,1450288682896,384,371,0,0,0,1,2,1,3,0004-00-0000-70.png,0003-00-0000-49.png
00000009,634,1,1450288683844,1450288684386,964,264,0,0,0,2,0,2,2,0003-00-0000-97.png,0005-00-0000-14.png
00000009,635,1,1450288685415,1450288686165,1065,261,0,0,0,3,1,2,4,0002-00-0000-64.png,0004-00-0001-87.png
00000009,636,1,1450288687193,1450288687241,917,406,0,0,0,4,3,1,7,0001-00-0001-71.png,0002-00-0001-15.png
00000009,637,0,1450288688326,1450288688362,880,403,0,0,0,1,4,3,5,0004-00-0001-93.png,0001-00-0001-78.png
00000009,638,0,1450288702080,1450288702886,977,332,0,0,0,3,4,1,7,0002-00-0000-52.png,0001-00-0001-30.png
00000009,639,1,1450288705946,1450288706552,376,347,0,0,0,0,2,2,2,0005-00-0001-47.png,0003-00-0001-92.png
00000009,640,1,1450288707395,1450288708064,890,350,0,0,0,2,1,1,3,0003-00-0000-76.png,0004-00-0001-95.png
00000009,641,1,1450288708981,1450288709785,445,281,0,0,0,2,3,1,5,0003-00-0000-40.png,0002-00-0000-95.png
00000009,642,0,1450288710778,1450288710846,914,500,0,0,0,1,4,3,5,0004-00-0001-83.png,0001-00-0000-39.png
00000009,643,1,1450288726534,1450288727045,1041,326,0,0,0,3,1,2,4,0002-00-0001-45.png,0004-00-0001-41.png
00000009,644,1,1450288727944,1450288728757,487,315,0,0,0,0,3,3,3,0005-00-0001-84.png,0002-00-0000-95.png
00000009,645,1,1450288729690,1450288730421,386,379,0,0,0,0,4,4,4,0005-00-0000-23.png,0001-00-0001-42.png
00000009,646,1,1450288731469,1450288731505,915,420,0,0,0,2,1,1,3,0003-00-0001-44.png,0004-00-0001-16.png
00000009,647,1,1450288732592,1450288733535,490,304,0,0,0,0,1,1,1,0005-00-0001-74.png,0004-00-0000-69.png
00000009,648,1,1450288734468,1450288735037,1016,320,0,0,0,2,0,2,2,0003-00-0001-32.png,0005-00-0001-57.png
00000009,649,0,1450288736009,1450288736061,919,395,0,0,0,1,2,1,3,0004-00-0001-55.png,0003-00-0001-75.png
00000009,650,1,1450288739038,1450288739542,913,349,0,0,0,4,1,3,5,0001-00-0001-63.png,0004-00-0001-61.png
00000009,651,1,1450288740439,1450288741050,868,286,0,0,0,1,0,1,1,0004-00-0000-98.png,0005-00-0001-49.png
00000009,652,1,1450288742002,1450288743042,944,409,0,0,0,4,3,1,7,0001-00-0001-45.png,0002-00-0000-49.png
00000009,653,1,1450288744604,1450288745196,905,352,0,0,0,3,0,3,3,0002-00-0000-93.png,0005-00-0000-15.png
00000009,654,1,1450288746134,1450288746232,978,453,0,0,0,3,2,1,5,0002-00-0001-56.png,0003-00-0000-63.png
00000009,655,1,1450288747873,1450288748469,473,262,0,0,0,1,3,2,4,0004-00-0001-89.png,0002-00-0000-66.png
00000009,656,1,1450288749438,1450288750207,349,370,0,0,0,3,4,1,7,0002-00-0001-07.png,0001-00-0001-27.png
00000009,657,1,1450288751208,1450288752161,486,267,0,0,0,2,4,2,6,0003-00-0001-39.png,0001-00-0000-32.png
00000009,658,1,1450288753130,1450288753742,925,290,0,0,0,4,0,4,4,0001-00-0001-91.png,0005-00-0001-00.png
00000009,659,1,1450288755377,1450288755978,1041,332,0,0,0,4,2,2,6,0001-00-0000-69.png,0003-00-0001-13.png
00000009,660,0,1450288756925,1450288757079,991,553,0,0,0,0,2,2,2,0005-00-0000-98.png,0003-00-0000-19.png
00000009,661,0,1450288764094,1450288764645,913,296,0,0,0,0,3,3,3,0005-00-0001-81.png,0002-00-0001-44.png
00000009,662,1,1450288767599,1450288767635,521,445,0,0,0,1,4,3,5,0004-00-0000-63.png,0001-00-0001-77.png
00000009,663,1,1450288768675,1450288768764,952,475,0,0,0,3,1,2,4,0002-00-0000-23.png,0004-00-0001-09.png
00000009,664,1,1450288770758,1450288771261,885,307,0,0,0,3,0,3,3,0002-00-0000-15.png,0005-00-0001-60.png
00000009,665,0,1450288772211,1450288772248,917,439,0,0,0,1,2,1,3,0004-00-0000-66.png,0003-00-0000-09.png
00000009,666,1,1450288775459,1450288775935,925,384,0,0,0,2,0,2,2,0003-00-0001-71.png,0005-00-0001-29.png
00000009,667,0,1450288777456,1450288778013,504,266,0,0,0,1,0,1,1,0004-00-0001-83.png,0005-00-0000-36.png
00000009,668,1,1450288797532,1450288798163,450,308,0,0,0,2,4,2,6,0003-00-0001-29.png,0001-00-0001-54.png
00000009,669,1,1450288799155,1450288800142,485,260,0,0,0,0,4,4,4,0005-00-0001-61.png,0001-00-0001-48.png
00000009,670,1,1450288801111,1450288801837,344,370,0,0,0,2,3,1,5,0003-00-0000-16.png,0002-00-0000-56.png
00000009,671,1,1450288802804,1450288802832,943,428,0,0,0,4,2,2,6,0001-00-0000-13.png,0003-00-0000-35.png
00000009,672,0,1450288803886,1450288803962,909,475,0,0,0,3,4,1,7,0002-00-0000-37.png,0001-00-0001-82.png
00000009,673,1,1450288806806,1450288807322,364,348,0,0,0,1,3,2,4,0004-00-0000-91.png,0002-00-0001-54.png
00000009,674,1,1450288808165,1450288808901,348,383,0,0,0,0,1,1,1,0005-00-0000-39.png,0004-00-0000-74.png
00000009,675,1,1450288809817,1450288809857,890,468,0,0,0,4,1,3,5,0001-00-0001-36.png,0004-00-0000-14.png
00000009,676,1,1450288810915,1450288811596,913,347,0,0,0,4,0,4,4,0001-00-0000-42.png,0005-00-0000-57.png
00000009,677,1,1450288812557,1450288813357,478,242,0,0,0,0,2,2,2,0005-00-0000-81.png,0003-00-0001-86.png
00000009,678,1,1450288814349,1450288815156,879,381,0,0,0,3,2,1,5,0002-00-0001-17.png,0003-00-0001-33.png
00000009,679,0,1450288816109,1450288816856,361,377,0,0,0,2,1,1,3,0003-00-0000-83.png,0004-00-0001-17.png
00000009,680,0,1450288827662,1450288828269,478,292,0,0,0,4,3,1,7,0001-00-0001-77.png,0002-00-0000-63.png
00000009,681,0,1450288831114,1450288831680,1055,343,0,0,0,3,4,1,7,0002-00-0000-23.png,0001-00-0000-86.png
00000009,682,1,1450288893200,1450288893718,1042,552,0,0,0,4,0,4,4,0001-00-0001-74.png,0005-00-0001-37.png
00000009,683,1,1450288894869,1450288895760,1041,358,0,0,0,2,0,2,2,0003-00-0000-31.png,0005-00-0000-99.png
00000009,684,1,1450288896633,1450288897479,390,371,0,0,0,1,2,1,3,0004-00-0000-32.png,0003-00-0001-72.png
00000009,685,1,1450288898371,1450288899002,907,408,0,0,0,2,1,1,3,0003-00-0000-99.png,0004-00-0000-82.png
00000009,686,1,1450288899870,1450288900728,886,330,0,0,0,4,3,1,7,0001-00-0001-93.png,0002-00-0000-42.png
00000009,687,1,1450288901652,1450288901768,991,522,0,0,0,4,1,3,5,0001-00-0001-90.png,0004-00-0000-58.png
00000009,688,1,1450288902904,1450288921081,901,427,0,0,0,3,0,3,3,0002-00-0000-34.png,0005-00-0001-51.png
00000009,689,1,1450288921953,1450288922667,467,273,0,0,0,0,4,4,4,0005-00-0001-72.png,0001-00-0001-03.png
00000009,690,1,1450288923601,1450288924482,483,289,0,0,0,2,3,1,5,0003-00-0001-64.png,0002-00-0000-43.png
00000009,691,0,1450288925326,1450288925423,862,488,0,0,0,0,2,2,2,0005-00-0001-82.png,0003-00-0000-80.png
00000009,692,0,1450288965624,1450288965693,936,390,0,0,0,0,1,1,1,0005-00-0000-83.png,0004-00-0000-91.png
00000009,693,1,1450288991705,1450288992775,888,394,0,0,0,1,0,1,1,0004-00-0001-13.png,0005-00-0000-81.png
00000009,694,0,1450288993655,1450288994336,425,460,0,0,0,3,2,1,5,0002-00-0001-01.png,0003-00-0001-40.png
00000009,695,1,1450288997590,1450288998234,485,299,0,0,0,2,4,2,6,0003-00-0000-49.png,0001-00-0000-68.png
00000009,696,1,1450288999165,1450289000041,1000,311,0,0,0,3,1,2,4,0002-00-0001-05.png,0004-00-0001-84.png
00000009,697,1,1450289000905,1450289001789,481,302,0,0,0,1,4,3,5,0004-00-0000-10.png,0001-00-0000-97.png
00000009,698,1,1450289002653,1450289003378,1016,253,0,0,0,4,2,2,6,0001-00-0000-00.png,0003-00-0000-62.png
00000009,699,1,1450289004296,1450289005001,387,417,0,0,0,0,3,3,3,0005-00-0001-24.png,0002-00-0001-69.png
00000009,700,1,1450289005864,1450289006581,372,373,0,0,0,1,3,2,4,0004-00-0000-01.png,0002-00-0000-87.png
00000009,701,1,1450289007446,1450289008060,888,315,0,0,0,3,1,2,4,0002-00-0000-45.png,0004-00-0001-77.png
00000009,702,1,1450289008988,1450289009598,913,398,0,0,0,2,0,2,2,0003-00-0001-48.png,0005-00-0001-28.png
00000009,703,0,1450289010482,1450289010606,916,522,0,0,0,0,2,2,2,0005-00-0001-49.png,0003-00-0001-46.png
00000009,704,1,1450289013576,1450289014078,391,378,0,0,0,1,4,3,5,0004-00-0000-94.png,0001-00-0001-46.png
00000009,705,1,1450289015486,1450289016159,471,241,0,0,0,3,4,1,7,0002-00-0001-41.png,0001-00-0000-14.png
00000009,706,1,1450289017113,1450289018087,497,233,0,0,0,1,3,2,4,0004-00-0000-37.png,0002-00-0001-31.png
00000009,707,1,1450289019510,1450289020145,971,286,0,0,0,4,3,1,7,0001-00-0000-21.png,0002-00-0001-53.png
00000009,708,1,1450289020997,1450289021902,514,260,0,0,0,2,3,1,5,0003-00-0001-01.png,0002-00-0001-40.png
00000009,709,0,1450289022749,1450289022892,870,547,0,0,0,1,2,1,3,0004-00-0001-82.png,0003-00-0001-16.png
00000009,710,1,1450289026002,1450289026556,444,314,0,0,0,0,4,4,4,0005-00-0000-59.png,0001-00-0001-34.png
00000009,711,0,1450289028007,1450289028581,891,331,0,0,0,0,1,1,1,0005-00-0001-47.png,0004-00-0001-23.png
00000009,712,1,1450289039542,1450289040099,939,410,0,0,0,4,2,2,6,0001-00-0000-15.png,0003-00-0000-68.png
00000009,713,1,1450289041420,1450289042060,990,265,0,0,0,3,0,3,3,0002-00-0000-56.png,0005-00-0000-00.png
00000009,714,1,1450289042943,1450289043754,1067,269,0,0,0,4,1,3,5,0001-00-0001-70.png,0004-00-0000-51.png
00000009,715,1,1450289044700,1450289045468,1016,279,0,0,0,3,2,1,5,0002-00-0000-41.png,0003-00-0000-33.png
00000009,716,1,1450289046339,1450289046414,895,433,0,0,0,4,0,4,4,0001-00-0000-41.png,0005-00-0001-70.png
00000009,717,1,1450289047273,1450289048091,365,358,0,0,0,0,3,3,3,0005-00-0001-86.png,0002-00-0000-79.png
00000009,718,1,1450289049063,1450289049683,911,363,0,0,0,1,0,1,1,0004-00-0000-65.png,0005-00-0001-13.png
00000009,719,1,1450289050604,1450289051254,903,325,0,0,0,2,1,1,3,0003-00-0000-19.png,0004-00-0001-15.png
00000009,720,0,1450289052205,1450289052273,918,481,0,0,0,2,4,2,6,0003-00-0000-23.png,0001-00-0001-73.png
00000009,721,1,1450289061920,1450289062370,940,306,0,0,0,3,1,2,4,0002-00-0000-21.png,0004-00-0000-52.png
00000009,722,1,1450289063299,1450289064057,453,262,0,0,0,0,3,3,3,0005-00-0001-75.png,0002-00-0000-45.png
00000009,723,0,1450289064953,1450289065065,910,496,0,0,0,0,2,2,2,0005-00-0000-21.png,0003-00-0000-20.png
00000009,724,1,1450289068153,1450289068675,1017,255,0,0,0,4,0,4,4,0001-00-0000-26.png,0005-00-0001-31.png
00000009,725,1,1450289070093,1450289070724,487,252,0,0,0,1,4,3,5,0004-00-0001-37.png,0001-00-0001-76.png
00000009,726,1,1450289071562,1450289072162,923,384,0,0,0,1,0,1,1,0004-00-0000-18.png,0005-00-0000-61.png
00000009,727,1,1450289073032,1450289073994,463,265,0,0,0,1,3,2,4,0004-00-0001-01.png,0002-00-0000-20.png
00000009,728,0,1450289074881,1450289074949,859,511,0,0,0,2,3,1,5,0003-00-0000-79.png,0002-00-0000-71.png
00000009,729,1,1450289078083,1450289078734,453,288,0,0,0,1,2,1,3,0004-00-0001-98.png,0003-00-0001-93.png
00000009,730,0,1450289079629,1450289080294,902,344,0,0,0,2,4,2,6,0003-00-0001-69.png,0001-00-0000-30.png
00000009,731,0,1450289100179,1450289100846,466,307,0,0,0,4,2,2,6,0001-00-0000-25.png,0003-00-0000-68.png
00000009,732,1,1450289103776,1450289104421,478,279,0,0,0,0,1,1,1,0005-00-0000-37.png,0004-00-0000-98.png
00000009,733,1,1450289105440,1450289106392,479,277,0,0,0,3,4,1,7,0002-00-0001-39.png,0001-00-0001-98.png
00000009,734,1,1450289107305,1450289108026,441,267,0,0,0,0,4,4,4,0005-00-0001-86.png,0001-00-0000-22.png
00000009,735,1,1450289108945,1450289109595,924,384,0,0,0,2,1,1,3,0003-00-0001-33.png,0004-00-0001-83.png
00000009,736,1,1450289110574,1450289110661,868,479,0,0,0,4,1,3,5,0001-00-0001-46.png,0004-00-0000-76.png
00000009,737,0,1450289111695,1450289112534,460,272,0,0,0,2,0,2,2,0003-00-0001-17.png,0005-00-0000-55.png
00000009,738,1,1450289119328,1450289119768,1015,317,0,0,0,3,0,3,3,0002-00-0001-03.png,0005-00-0000-36.png
00000009,739,0,1450289120694,1450289121328,427,342,0,0,0,3,2,1,5,0002-00-0000-27.png,0003-00-0000-62.png
00000009,740,1,1450289124268,1450289124795,918,310,0,0,0,4,3,1,7,0001-00-0000-63.png,0002-00-0000-82.png
00000009,741,1,1450289125729,1450289126782,913,410,0,0,0,4,0,4,4,0001-00-0001-64.png,0005-00-0000-97.png
00000009,742,0,1450289127668,1450289128497,491,267,0,0,0,4,3,1,7,0001-00-0001-22.png,0002-00-0000-13.png
00000009,743,1,1450289132301,1450289132969,453,289,0,0,0,1,4,3,5,0004-00-0000-67.png,0001-00-0001-59.png
00000009,744,1,1450289133851,1450289134682,481,269,0,0,0,2,4,2,6,0003-00-0001-12.png,0001-00-0000-47.png
00000009,745,1,1450289135568,1450289136354,507,267,0,0,0,0,3,3,3,0005-00-0001-61.png,0002-00-0000-48.png
00000009,746,1,1450289137297,1450289137873,888,332,0,0,0,3,0,3,3,0002-00-0001-76.png,0005-00-0001-61.png
00000009,747,0,1450289138737,1450289138789,914,430,0,0,0,3,4,1,7,0002-00-0000-79.png,0001-00-0000-61.png
00000009,748,1,1450289147146,1450289147670,370,400,0,0,0,0,1,1,1,0005-00-0000-23.png,0004-00-0000-19.png
00000009,749,0,1450289148618,1450289149333,492,279,0,0,0,4,2,2,6,0001-00-0000-53.png,0003-00-0001-09.png
00000009,750,1,1450289152462,1450289152947,964,293,0,0,0,2,1,1,3,0003-00-0000-31.png,0004-00-0000-25.png
00000009,751,1,1450289153790,1450289154400,1016,320,0,0,0,2,0,2,2,0003-00-0001-87.png,0005-00-0001-79.png
00000009,752,0,1450289155353,1450289155437,889,458,0,0,0,0,2,2,2,0005-00-0000-67.png,0003-00-0001-40.png
00000009,753,1,1450289158462,1450289159088,939,294,0,0,0,1,0,1,1,0004-00-0001-41.png,0005-00-0001-05.png
00000009,754,1,1450289159986,1450289160767,479,252,0,0,0,1,3,2,4,0004-00-0000-47.png,0002-00-0001-08.png
00000009,755,1,1450289161683,1450289162795,478,268,0,0,0,2,3,1,5,0003-00-0001-31.png,0002-00-0000-73.png
00000009,756,1,1450289163763,1450289164682,1025,332,0,0,0,3,2,1,5,0002-00-0001-51.png,0003-00-0000-22.png
00000009,757,0,1450289165628,1450289166601,493,259,0,0,0,3,1,2,4,0002-00-0000-85.png,0004-00-0001-03.png
00000009,758,1,1450289169687,1450289170235,485,297,0,0,0,1,2,1,3,0004-00-0000-30.png,0003-00-0000-43.png
00000009,759,1,1450289171085,1450289171836,387,382,0,0,0,0,4,4,4,0005-00-0001-65.png,0001-00-0001-20.png
00000009,760,1,1450289172754,1450289173338,1016,271,0,0,0,4,1,3,5,0001-00-0001-33.png,0004-00-0000-43.png
00000009,761,1,1450289174377,1450289174985,897,330,0,0,0,2,0,2,2,0003-00-0000-24.png,0005-00-0000-30.png
00000009,762,1,1450289176043,1450289176161,912,535,0,0,0,4,0,4,4,0001-00-0001-77.png,0005-00-0001-20.png
00000009,763,0,1450289177168,1450289177259,923,562,0,0,0,1,2,1,3,0004-00-0000-99.png,0003-00-0001-37.png
00000009,764,1,1450289182068,1450289182633,448,306,0,0,0,1,4,3,5,0004-00-0001-32.png,0001-00-0000-95.png
00000009,765,0,1450289183517,1450289184458,497,261,0,0,0,3,2,1,5,0002-00-0000-65.png,0003-00-0001-19.png
00000009,766,1,1450289187541,1450289188049,970,280,0,0,0,2,1,1,3,0003-00-0001-14.png,0004-00-0001-70.png
00000009,767,1,1450289188953,1450289189096,890,548,0,0,0,3,0,3,3,0002-00-0001-78.png,0005-00-0001-55.png
00000009,768,0,1450289190165,1450289190273,888,502,0,0,0,3,4,1,7,0002-00-0001-74.png,0001-00-0000-63.png
00000009,769,1,1450289222835,1450289223346,1041,332,0,0,0,4,2,2,6,0001-00-0001-57.png,0003-00-0000-34.png
00000009,770,1,1450289224682,1450289225615,453,262,0,0,0,2,4,2,6,0003-00-0001-43.png,0001-00-0000-22.png
00000009,771,1,1450289226658,1450289227354,931,348,0,0,0,3,1,2,4,0002-00-0000-73.png,0004-00-0001-29.png
00000009,772,1,1450289228288,1450289228996,449,249,0,0,0,0,2,2,2,0005-00-0000-91.png,0003-00-0000-46.png
00000009,773,0,1450289229840,1450289230415,891,340,0,0,0,0,1,1,1,0005-00-0001-15.png,0004-00-0001-15.png
00000009,774,1,1450289233637,1450289234314,427,267,0,0,0,1,3,2,4,0004-00-0001-42.png,0002-00-0001-97.png
00000009,775,1,1450289235351,1450289235932,1016,306,0,0,0,1,0,1,1,0004-00-0000-29.png,0005-00-0000-93.png
00000009,776,1,1450289236804,1450289237786,994,284,0,0,0,4,3,1,7,0001-00-0000-16.png,0002-00-0001-99.png
00000009,777,0,1450289238738,1450289238873,950,553,0,0,0,0,3,3,3,0005-00-0000-53.png,0002-00-0001-36.png
00000009,778,0,1450289262904,1450289263427,896,355,0,0,0,0,4,4,4,0005-00-0000-34.png,0001-00-0000-54.png
00000009,779,1,1450289266933,1450289267549,458,306,0,0,0,2,3,1,5,0003-00-0001-33.png,0002-00-0001-32.png
00000009,780,1,1450289268474,1450289269247,913,332,0,0,0,4,1,3,5,0001-00-0001-51.png,0004-00-0001-98.png
00000009,781,1,1450289270202,1450289270246,889,431,0,0,0,3,2,1,5,0002-00-0000-93.png,0003-00-0001-55.png
00000009,782,1,1450289271146,1450289272036,913,332,0,0,0,4,0,4,4,0001-00-0001-73.png,0005-00-0001-88.png
00000009,783,0,1450289273034,1450289273823,399,382,0,0,0,2,1,1,3,0003-00-0000-23.png,0004-00-0000-16.png
00000009,784,0,1450289284299,1450289284850,500,292,0,0,0,4,3,1,7,0001-00-0001-33.png,0002-00-0001-19.png
00000009,785,1,1450289288071,1450289288612,964,444,0,0,0,3,0,3,3,0002-00-0000-09.png,0005-00-0000-33.png
00000009,786,1,1450289289558,1450289290746,415,362,0,0,0,3,4,1,7,0002-00-0000-28.png,0001-00-0000-82.png
00000009,787,1,1450289291655,1450289292557,500,256,0,0,0,0,1,1,1,0005-00-0000-42.png,0004-00-0001-47.png
00000009,788,1,1450289293419,1450289294059,939,398,0,0,0,2,0,2,2,0003-00-0000-88.png,0005-00-0001-16.png
00000009,789,1,1450289294967,1450289295866,390,342,0,0,0,1,2,1,3,0004-00-0001-91.png,0003-00-0001-97.png
00000009,790,1,1450289296884,1450289296929,915,413,0,0,0,4,1,3,5,0001-00-0000-42.png,0004-00-0001-98.png
00000009,791,1,1450289297958,1450289298014,888,454,0,0,0,4,2,2,6,0001-00-0001-80.png,0003-00-0001-11.png
00000009,792,1,1450289299265,1450289299981,449,485,0,0,0,0,4,4,4,0005-00-0000-22.png,0001-00-0001-87.png
00000009,793,0,1450289300846,1450289300874,864,421,0,0,0,0,3,3,3,0005-00-0001-79.png,0002-00-0001-17.png
00000009,794,1,1450289361450,1450289361975,376,408,0,0,0,2,4,2,6,0003-00-0000-35.png,0001-00-0000-61.png
00000009,795,1,1450289363417,1450289364249,491,305,0,0,0,2,3,1,5,0003-00-0001-18.png,0002-00-0001-14.png
00000009,796,1,1450289365166,1450289365769,453,264,0,0,0,1,3,2,4,0004-00-0001-59.png,0002-00-0000-79.png
00000009,797,1,1450289366667,1450289367345,876,357,0,0,0,3,1,2,4,0002-00-0001-81.png,0004-00-0001-88.png
00000009,798,0,1450289368315,1450289369051,466,287,0,0,0,1,0,1,1,0004-00-0001-77.png,0005-00-0001-17.png
00000009,799,0,1450289372028,1450289372582,939,376,0,0,0,0,2,2,2,0005-00-0001-95.png,0003-00-0000-48.png
00000009,800,0,1450289375750,1450289376306,981,381,0,0,0,1,4,3,5,0004-00-0001-06.png,0001-00-0001-17.png
00000009,801,1,1450289397177,1450289397832,939,374,0,0,0,4,2,2,6,0001-00-0000-01.png,0003-00-0000-00.png
00000009,802,1,1450289398916,1450289398996,915,502,0,0,0,4,0,4,4,0001-00-0000-87.png,0005-00-0000-10.png
00000009,803,1,1450289399934,1450289400800,511,281,0,0,0,3,4,1,7,0002-00-0001-44.png,0001-00-0001-05.png
00000009,804,0,1450289401741,1450289402432,1005,253,0,0,0,0,2,2,2,0005-00-0000-15.png,0003-00-0000-62.png
00000009,805,1,1450289416656,1450289417552,504,290,0,0,0,2,4,2,6,0003-00-0000-48.png,0001-00-0000-79.png
00000009,806,1,1450289418549,1450289419608,911,328,0,0,0,2,0,2,2,0003-00-0000-75.png,0005-00-0000-69.png
00000009,807,0,1450289420762,1450289420791,915,393,0,0,0,1,2,1,3,0004-00-0000-60.png,0003-00-0000-88.png
00000009,808,1,1450289492373,1450289492863,419,336,0,0,0,0,1,1,1,0005-00-0000-70.png,0004-00-0001-81.png
00000009,809,1,1450289494258,1450289495060,376,409,0,0,0,2,3,1,5,0003-00-0000-58.png,0002-00-0001-93.png
00000009,810,0,1450289496469,1450289497137,481,251,0,0,0,4,1,3,5,0001-00-0000-64.png,0004-00-0000-24.png
00000009,811,1,1450289500320,1450289500975,927,358,0,0,0,3,2,1,5,0002-00-0001-87.png,0003-00-0000-94.png
00000009,812,1,1450289502016,1450289502076,905,446,0,0,0,2,1,1,3,0003-00-0000-82.png,0004-00-0001-46.png
00000009,813,0,1450289503030,1450289503159,923,523,0,0,0,0,3,3,3,0005-00-0000-62.png,0002-00-0000-48.png
00000009,814,1,1450289506292,1450289506867,495,285,0,0,0,1,4,3,5,0004-00-0000-86.png,0001-00-0000-15.png
00000009,815,1,1450289507906,1450289508578,990,279,0,0,0,1,0,1,1,0004-00-0001-43.png,0005-00-0000-90.png
00000009,816,1,1450289509499,1450289509572,972,402,0,0,0,3,0,3,3,0002-00-0001-69.png,0005-00-0000-33.png
00000009,817,1,1450289510575,1450289510611,912,452,0,0,0,3,1,2,4,0002-00-0000-29.png,0004-00-0001-25.png
00000009,818,1,1450289511696,1450289511736,941,444,0,0,0,4,3,1,7,0001-00-0001-67.png,0002-00-0001-22.png
00000009,819,1,1450289512960,1450289513802,489,251,0,0,0,0,4,4,4,0005-00-0001-66.png,0001-00-0000-49.png
00000009,820,1,1450289514889,1450289515799,457,279,0,0,0,1,3,2,4,0004-00-0001-51.png,0002-00-0000-58.png
00000009,821,0,1450289516843,1450289516911,905,407,0,0,0,0,1,1,1,0005-00-0000-43.png,0004-00-0001-72.png
00000009,822,1,1450289531773,1450289532249,1067,284,0,0,0,4,0,4,4,0001-00-0000-13.png,0005-00-0001-79.png
00000009,823,1,1450289533862,1450289534496,916,322,0,0,0,4,1,3,5,0001-00-0000-94.png,0004-00-0000-83.png
00000009,824,1,1450289535456,1450289535522,922,374,0,0,0,1,0,1,1,0004-00-0000-08.png,0005-00-0000-44.png
00000009,825,1,1450289536615,1450289537578,913,384,0,0,0,4,3,1,7,0001-00-0000-13.png,0002-00-0000-61.png
00000009,826,1,1450289538601,1450289539327,478,266,0,0,0,0,2,2,2,0005-00-0001-92.png,0003-00-0000-11.png
00000009,827,1,1450289540241,1450289540877,368,354,0,0,0,0,4,4,4,0005-00-0001-84.png,0001-00-0001-34.png
00000009,828,1,1450289541882,1450289542799,478,267,0,0,0,2,3,1,5,0003-00-0001-10.png,0002-00-0001-54.png
00000009,829,1,1450289543790,1450289544440,471,261,0,0,0,1,2,1,3,0004-00-0001-60.png,0003-00-0001-17.png
00000009,830,1,1450289545358,1450289545434,860,416,0,0,0,4,2,2,6,0001-00-0001-89.png,0003-00-0001-97.png
00000009,831,1,1450289546473,1450289547277,910,406,0,0,0,3,2,1,5,0002-00-0000-13.png,0003-00-0001-36.png
00000009,832,1,1450289548226,1450289548993,898,418,0,0,0,2,0,2,2,0003-00-0001-16.png,0005-00-0000-92.png
00000009,833,0,1450289549901,1450289549937,939,416,0,0,0,0,3,3,3,0005-00-0000-31.png,0002-00-0001-03.png
00000009,834,1,1450289553069,1450289553595,939,372,0,0,0,3,1,2,4,0002-00-0001-72.png,0004-00-0000-77.png
00000009,835,1,1450289554459,1450289554499,864,544,0,0,0,3,0,3,3,0002-00-0000-24.png,0005-00-0000-16.png
00000009,836,1,1450289555444,1450289556297,448,400,0,0,0,1,4,3,5,0004-00-0000-58.png,0001-00-0001-94.png
00000009,837,1,1450289557261,1450289558044,1016,253,0,0,0,2,1,1,3,0003-00-0000-96.png,0004-00-0000-05.png
00000009,838,1,1450289558963,1450289559754,491,281,0,0,0,3,4,1,7,0002-00-0000-58.png,0001-00-0001-43.png
00000009,839,1,1450289560768,1450289561754,504,265,0,0,0,2,4,2,6,0003-00-0001-47.png,0001-00-0000-92.png
00000009,840,0,1450289562702,1450289562821,891,470,0,0,0,1,3,2,4,0004-00-0001-23.png,0002-00-0001-49.png
00000009,841,1,1450289565666,1450289566242,990,343,0,0,0,2,1,1,3,0003-00-0000-09.png,0004-00-0000-93.png
00000009,842,1,1450289567184,1450289568041,442,384,0,0,0,1,2,1,3,0004-00-0000-33.png,0003-00-0000-96.png
00000009,843,1,1450289568979,1450289569751,478,292,0,0,0,0,1,1,1,0005-00-0001-32.png,0004-00-0001-75.png
00000009,844,0,1450289570710,1450289570836,915,517,0,0,0,0,4,4,4,0005-00-0001-82.png,0001-00-0000-79.png
00000009,845,0,1450289574055,1450289574528,964,367,0,0,0,1,4,3,5,0004-00-0001-67.png,0001-00-0000-38.png
00000009,846,1,1450289587343,1450289587848,964,373,0,0,0,4,0,4,4,0001-00-0001-82.png,0005-00-0000-37.png
00000009,847,1,1450289589163,1450289589198,920,446,0,0,0,2,0,2,2,0003-00-0000-78.png,0005-00-0001-67.png
00000009,848,1,1450289591055,1450289591794,963,378,0,0,0,3,0,3,3,0002-00-0001-34.png,0005-00-0001-83.png
00000009,849,0,1450289592706,1450289593630,470,233,0,0,0,1,0,1,1,0004-00-0001-41.png,0005-00-0001-50.png
00000009,850,1,1450289597001,1450289597613,472,323,0,0,0,1,3,2,4,0004-00-0001-22.png,0002-00-0001-63.png
00000009,851,0,1450289598479,1450289599176,913,394,0,0,0,0,3,3,3,0005-00-0001-35.png,0002-00-0000-70.png
00000009,852,1,1450289602325,1450289603140,394,367,0,0,0,0,2,2,2,0005-00-0001-07.png,0003-00-0000-55.png
00000009,853,0,1450289604555,1450289605080,912,332,0,0,0,3,4,1,7,0002-00-0000-37.png,0001-00-0000-91.png
00000009,854,1,1450289611390,1450289611866,939,399,0,0,0,4,3,1,7,0001-00-0000-70.png,0002-00-0001-93.png
00000009,855,1,1450289613009,1450289613833,520,255,0,0,0,2,3,1,5,0003-00-0000-84.png,0002-00-0001-23.png
00000009,856,1,1450289614847,1450289615751,964,372,0,0,0,3,1,2,4,0002-00-0000-96.png,0004-00-0001-87.png
00000009,857,1,1450289616594,1450289616724,883,466,0,0,0,4,1,3,5,0001-00-0000-52.png,0004-00-0000-85.png
00000009,858,1,1450289617681,1450289618663,504,266,0,0,0,2,4,2,6,0003-00-0000-40.png,0001-00-0000-06.png
00000009,859,1,1450289619652,1450289620434,939,396,0,0,0,4,2,2,6,0001-00-0000-58.png,0003-00-0000-99.png
00000009,860,1,1450289621386,1450289621447,913,450,0,0,0,3,2,1,5,0002-00-0000-65.png,0003-00-0000-23.png
00000009,861,0,1450289622522,1450289622565,914,502,0,0,0,2,4,2,6,0003-00-0000-78.png,0001-00-0000-35.png
00000009,862,0,1450289626161,1450289627175,929,381,0,0,0,3,4,1,7,0002-00-0001-89.png,0001-00-0001-76.png
00000009,863,1,1450289631288,1450289631770,1067,306,0,0,0,3,0,3,3,0002-00-0000-50.png,0005-00-0001-99.png
00000009,864,1,1450289632624,1450289633463,913,322,0,0,0,4,0,4,4,0001-00-0001-27.png,0005-00-0000-23.png
00000009,865,0,1450289634426,1450289634471,903,424,0,0,0,1,4,3,5,0004-00-0000-93.png,0001-00-0000-60.png
00000009,866,1,1450289637665,1450289638313,378,363,0,0,0,0,4,4,4,0005-00-0000-43.png,0001-00-0001-97.png
00000009,867,1,1450289639184,1450289639942,487,260,0,0,0,0,1,1,1,0005-00-0001-83.png,0004-00-0000-46.png
00000009,868,1,1450289640845,1450289641516,404,316,0,0,0,0,2,2,2,0005-00-0001-01.png,0003-00-0001-78.png
00000009,869,1,1450289642473,1450289643161,464,249,0,0,0,1,2,1,3,0004-00-0001-72.png,0003-00-0001-05.png
00000009,870,1,1450289644136,1450289644827,488,242,0,0,0,1,3,2,4,0004-00-0000-53.png,0002-00-0001-07.png
00000009,871,1,1450289645731,1450289646666,942,382,0,0,0,2,1,1,3,0003-00-0001-37.png,0004-00-0000-25.png
00000009,872,0,1450289647604,1450289648304,460,376,0,0,0,3,2,1,5,0002-00-0001-77.png,0003-00-0001-74.png
00000009,873,1,1450289734274,1450289735131,1071,253,0,0,0,3,1,2,4,0002-00-0000-83.png,0004-00-0001-86.png
00000009,874,0,1450289736029,1450289737015,361,357,0,0,0,1,0,1,1,0004-00-0001-64.png,0005-00-0000-13.png
00000009,875,1,1450289739958,1450289740459,1036,281,0,0,0,4,1,3,5,0001-00-0001-29.png,0004-00-0000-77.png
00000009,876,1,1450289741313,1450289742296,888,358,0,0,0,4,2,2,6,0001-00-0000-17.png,0003-00-0001-30.png
00000009,877,1,1450289743208,1450289744527,1041,279,0,0,0,4,3,1,7,0001-00-0000-99.png,0002-00-0001-73.png
00000009,878,1,1450289745569,1450289746479,468,279,0,0,0,2,3,1,5,0003-00-0001-10.png,0002-00-0000-82.png
00000009,879,0,1450289747936,1450289748641,389,353,0,0,0,2,0,2,2,0003-00-0001-24.png,0005-00-0001-39.png
00000009,880,1,1450289871882,1450290002191,330,400,0,0,0,0,3,3,3,0005-00-0000-24.png,0002-00-0001-63.png
00000009,881,1,1450290003260,1450290004110,348,385,0,0,0,1,2,1,3,0004-00-0000-74.png,0003-00-0001-91.png
00000009,882,1,1450290005199,1450290006035,465,296,0,0,0,1,4,3,5,0004-00-0000-05.png,0001-00-0001-70.png
00000009,883,1,1450290006946,1450290007878,1067,315,0,0,0,4,2,2,6,0001-00-0000-61.png,0003-00-0001-22.png
00000009,884,1,1450290008771,1450290008830,932,417,0,0,0,2,0,2,2,0003-00-0001-24.png,0005-00-0001-83.png
00000009,885,0,1450290009799,1450290010668,1041,279,0,0,0,3,4,1,7,0002-00-0001-59.png,0001-00-0001-87.png
00000009,886,1,1450290015083,1450290015606,964,375,0,0,0,3,0,3,3,0002-00-0000-69.png,0005-00-0001-86.png
00000009,887,1,1450290016883,1450290017497,905,326,0,0,0,1,0,1,1,0004-00-0000-58.png,0005-00-0000-00.png
00000009,888,1,1450290018410,1450290019305,518,272,0,0,0,1,3,2,4,0004-00-0000-40.png,0002-00-0001-89.png
00000009,889,1,1450290020209,1450290020996,485,259,0,0,0,0,2,2,2,0005-00-0000-38.png,0003-00-0000-82.png
00000009,890,0,1450290021901,1450290022781,363,347,0,0,0,3,2,1,5,0002-00-0000-16.png,0003-00-0000-57.png
00000009,891,1,1450290026493,1450290027018,939,332,0,0,0,4,0,4,4,0001-00-0001-43.png,0005-00-0001-76.png
00000009,892,0,1450290028460,1450290029124,911,403,0,0,0,0,1,1,1,0005-00-0001-28.png,0004-00-0001-98.png
00000009,893,1,1450290033320,1450290033924,964,306,0,0,0,3,1,2,4,0002-00-0000-33.png,0004-00-0000-87.png
00000009,894,1,1450290035317,1450290035994,1018,277,0,0,0,2,1,1,3,0003-00-0001-45.png,0004-00-0000-71.png
00000009,895,1,1450290036912,1450290037685,490,253,0,0,0,2,3,1,5,0003-00-0001-54.png,0002-00-0001-32.png
00000009,896,0,1450290038605,1450290039450,504,264,0,0,0,4,3,1,7,0001-00-0001-78.png,0002-00-0001-02.png
00000009,897,1,1450290042829,1450290043514,513,279,0,0,0,0,3,3,3,0005-00-0000-32.png,0002-00-0000-44.png
00000009,898,1,1450290044357,1450290044982,925,327,0,0,0,4,1,3,5,0001-00-0001-66.png,0004-00-0001-71.png
00000009,899,1,1450290045950,1450290046665,412,315,0,0,0,2,4,2,6,0003-00-0000-99.png,0001-00-0000-71.png
00000009,900,0,1450290047608,1450290047664,869,465,0,0,0,0,4,4,4,0005-00-0000-55.png,0001-00-0001-23.png
00000009,901,1,1450290050829,1450290051334,937,273,0,0,0,1,0,1,1,0004-00-0000-23.png,0005-00-0000-88.png
00000009,902,1,1450290052226,1450290052886,950,336,0,0,0,4,0,4,4,0001-00-0000-67.png,0005-00-0000-03.png
00000009,903,1,1450290053888,1450290055043,1041,343,0,0,0,3,2,1,5,0002-00-0001-25.png,0003-00-0001-23.png
00000009,904,1,1450290056034,1450290056798,492,264,0,0,0,2,3,1,5,0003-00-0000-50.png,0002-00-0001-37.png
00000009,905,1,1450290057745,1450290058534,399,353,0,0,0,3,4,1,7,0002-00-0001-54.png,0001-00-0001-16.png
00000009,906,1,1450290059593,1450290060705,380,349,0,0,0,1,3,2,4,0004-00-0000-15.png,0002-00-0001-83.png
00000009,907,1,1450290061727,1450290062574,1042,350,0,0,0,4,3,1,7,0001-00-0000-83.png,0002-00-0001-40.png
00000009,908,1,1450290063458,1450290064111,922,384,0,0,0,3,1,2,4,0002-00-0001-61.png,0004-00-0000-04.png
00000009,909,0,1450290065157,1450290065225,871,534,0,0,0,0,1,1,1,0005-00-0001-39.png,0004-00-0001-95.png
00000009,910,1,1450290380416,1450290381244,452,308,0,0,0,2,4,2,6,0003-00-0001-96.png,0001-00-0001-06.png
00000009,911,0,1450290382912,1450290383784,488,306,0,0,0,2,0,2,2,0003-00-0000-70.png,0005-00-0000-36.png
00000009,912,1,1450290535681,1450290734544,990,267,0,0,0,4,2,2,6,0001-00-0000-71.png,0003-00-0000-89.png
00000009,913,1,1450290736200,1450290736761,370,379,0,0,0,1,2,1,3,0004-00-0001-38.png,0003-00-0000-91.png
00000009,914,1,1450290738671,1450290739368,405,366,0,0,0,0,3,3,3,0005-00-0000-09.png,0002-00-0001-82.png
00000009,915,1,1450290741179,1450290741755,491,253,0,0,0,1,4,3,5,0004-00-0001-59.png,0001-00-0001-38.png
00000009,916,1,1450290911352,1450290911958,325,422,0,0,0,0,2,2,2,0005-00-0000-90.png,0003-00-0001-72.png
00000009,917,1,1450290913583,1450290914198,453,410,0,0,0,0,4,4,4,0005-00-0001-68.png,0001-00-0001-97.png
00000009,918,0,1450290915711,1450290916593,484,284,0,0,0,2,1,1,3,0003-00-0001-85.png,0004-00-0001-65.png
00000009,919,1,1450290999792,1450291000310,1091,312,0,0,0,3,0,3,3,0002-00-0000-25.png,0005-00-0000-58.png
00000009,920,0,1450291001296,1450291002008,494,260,0,0,0,4,1,3,5,0001-00-0000-48.png,0004-00-0000-23.png
00000009,921,1,1450291004933,1450291005426,964,295,0,0,0,3,0,3,3,0002-00-0000-58.png,0005-00-0001-59.png
00000009,922,1,1450291006288,1450291007199,504,249,0,0,0,0,1,1,1,0005-00-0001-03.png,0004-00-0001-77.png
00000009,923,1,1450291008171,1450291009359,939,370,0,0,0,2,0,2,2,0003-00-0001-23.png,0005-00-0000-04.png
00000009,924,1,1450291010257,1450291011451,485,245,0,0,0,1,3,2,4,0004-00-0000-29.png,0002-00-0001-67.png
00000009,925,1,1450291012383,1450291012520,867,516,0,0,0,4,3,1,7,0001-00-0000-18.png,0002-00-0000-15.png
00000009,926,1,1450291013525,1450291013684,865,519,0,0,0,2,1,1,3,0003-00-0001-20.png,0004-00-0001-92.png
00000009,927,1,1450291014701,1450291015688,939,399,0,0,0,4,2,2,6,0001-00-0001-03.png,0003-00-0000-36.png
00000009,928,1,1450291016578,1450291017270,964,399,0,0,0,3,1,2,4,0002-00-0000-05.png,0004-00-0001-37.png
00000009,929,0,1450291018165,1450291018367,912,519,0,0,0,0,4,4,4,0005-00-0000-48.png,0001-00-0001-18.png
00000009,930,0,1450291021277,1450291021382,949,461,0,0,0,2,3,1,5,0003-00-0001-17.png,0002-00-0000-66.png
00000009,931,0,1450291024690,1450291025316,939,349,0,0,0,2,4,2,6,0003-00-0000-42.png,0001-00-0000-44.png
00000009,932,1,1450291028694,1450291029218,986,307,0,0,0,4,1,3,5,0001-00-0000-16.png,0004-00-0000-27.png
00000009,933,1,1450291030154,1450291030274,919,454,0,0,0,3,2,1,5,0002-00-0001-87.png,0003-00-0000-19.png
00000009,934,0,1450291031198,1450291031445,891,560,0,0,0,0,3,3,3,0005-00-0001-88.png,0002-00-0000-44.png
00000009,935,1,1450291037737,1450291038242,372,354,0,0,0,1,4,3,5,0004-00-0000-53.png,0001-00-0001-34.png
00000009,936,1,1450291039115,1450291039857,478,384,0,0,0,0,2,2,2,0005-00-0001-64.png,0003-00-0000-58.png
00000009,937,1,1450291040793,1450291041710,504,236,0,0,0,1,2,1,3,0004-00-0001-22.png,0003-00-0000-47.png
00000009,938,1,1450291042614,1450291042706,938,459,0,0,0,1,0,1,1,0004-00-0000-61.png,0005-00-0001-84.png
00000009,939,1,1450291043629,1450291044381,946,402,0,0,0,4,0,4,4,0001-00-0000-65.png,0005-00-0000-73.png
00000009,940,0,1450291045344,1450291046267,1011,341,0,0,0,3,4,1,7,0002-00-0001-89.png,0001-00-0000-88.png
00000009,941,1,1450291097331,1450291098119,453,268,0,0,0,1,4,3,5,0004-00-0000-35.png,0001-00-0000-76.png
00000009,942,1,1450291099065,1450291099774,472,272,0,0,0,0,2,2,2,0005-00-0001-27.png,0003-00-0000-88.png
00000009,943,1,1450291100643,1450291101457,465,279,0,0,0,2,3,1,5,0003-00-0001-54.png,0002-00-0001-42.png
00000009,944,1,1450291102355,1450291102403,863,385,0,0,0,2,1,1,3,0003-00-0001-61.png,0004-00-0000-54.png
00000009,945,1,1450291103468,1450291103572,862,510,0,0,0,2,0,2,2,0003-00-0000-87.png,0005-00-0001-61.png
00000009,946,1,1450291104560,1450291105628,1041,306,0,0,0,3,2,1,5,0002-00-0000-19.png,0003-00-0000-95.png
00000009,947,1,1450291106546,1450291107475,477,275,0,0,0,1,2,1,3,0004-00-0000-44.png,0003-00-0000-30.png
00000009,948,1,1450291108447,1450291109269,478,262,0,0,0,0,1,1,1,0005-00-0000-27.png,0004-00-0000-44.png
00000009,949,0,1450291110175,1450291111235,932,390,0,0,0,1,3,2,4,0004-00-0001-11.png,0002-00-0000-79.png
00000009,950,0,1450291114514,1450291115111,1014,383,0,0,0,3,4,1,7,0002-00-0001-87.png,0001-00-0000-80.png
