subject_id,trial,correct_response,stim_time,response_time,x_coord,y_coord,trial_timeout,timeout_time,interTrial_timeout,left_rank,right_rank,distance,joint_rank,left_image,right_image
00000014,1,1,1450283929163,1450283929171,373,303,0,0,0,1,4,3,5,0004-00-0000-53.png,0001-00-0001-31.png
00000014,2,1,1450283931022,1450283931519,324,413,0,0,0,0,4,4,4,0005-00-0001-19.png,0001-00-0000-75.png
00000014,3,1,1450283932893,1450283933322,350,463,0,0,0,0,1,1,1,0005-00-0000-31.png,0004-00-0000-81.png
00000014,4,0,1450283934165,1450283934719,948,459,0,0,0,1,2,1,3,0004-00-0000-63.png,0003-00-0001-78.png
00000014,5,1,1450283937625,1450283938039,862,395,0,0,0,2,0,2,2,0003-00-0001-93.png,0005-00-0001-29.png
00000014,6,1,1450283938932,1450283939413,413,530,0,0,0,0,2,2,2,0005-00-0001-32.png,0003-00-0001-50.png
00000014,7,1,1450283940267,1450283940767,370,439,0,0,0,0,3,3,3,0005-00-0001-10.png,0002-00-0001-16.png
00000014,8,1,1450283941616,1450283942029,369,451,0,0,0,1,3,2,4,0004-00-0000-11.png,0002-00-0000-15.png
00000014,9,0,1450283942908,1450283943319,396,498,0,0,0,4,2,2,6,0001-00-0000-91.png,0003-00-0001-05.png
00000014,10,1,1450283946713,1450283947084,1007,375,0,0,0,3,1,2,4,0002-00-0000-82.png,0004-00-0000-24.png
00000014,11,0,1450283948034,1450283948596,950,464,0,0,0,2,3,1,5,0003-00-0000-76.png,0002-00-0001-78.png
00000014,12,1,1450283951520,1450283951907,1004,424,0,0,0,1,0,1,1,0004-00-0001-28.png,0005-00-0000-66.png
00000014,13,1,1450283952811,1450283953354,945,415,0,0,0,3,2,1,5,0002-00-0001-81.png,0003-00-0000-22.png
00000014,14,0,1450283954501,1450283954937,348,482,0,0,0,4,0,4,4,0001-00-0001-36.png,0005-00-0000-29.png
00000014,15,1,1450283958765,1450283959192,954,517,0,0,0,4,3,1,7,0001-00-0001-87.png,0002-00-0001-63.png
00000014,16,0,1450283960162,1450283960723,900,541,0,0,0,3,4,1,7,0002-00-0000-02.png,0001-00-0001-25.png
00000014,17,0,1450283963690,1450283964062,951,502,0,0,0,2,4,2,6,0003-00-0000-32.png,0001-00-0000-82.png
00000014,18,1,1450283967044,1450283967443,930,480,0,0,0,3,0,3,3,0002-00-0000-47.png,0005-00-0000-61.png
00000014,19,1,1450283968423,1450283969051,972,443,0,0,0,4,1,3,5,0001-00-0000-43.png,0004-00-0001-39.png
00000014,20,1,1450283970085,1450283970701,940,420,0,0,0,2,1,1,3,0003-00-0001-24.png,0004-00-0000-54.png
00000014,21,1,1450283971751,1450283972172,345,473,0,0,0,1,4,3,5,0004-00-0001-04.png,0001-00-0001-72.png
00000014,22,0,1450283973117,1450283973610,926,437,0,0,0,1,2,1,3,0004-00-0000-63.png,0003-00-0001-14.png
00000014,23,0,1450283976705,1450283977070,1001,403,0,0,0,0,3,3,3,0005-00-0000-38.png,0002-00-0000-29.png
00000014,24,1,1450283980183,1450283980582,948,496,0,0,0,3,2,1,5,0002-00-0000-81.png,0003-00-0000-92.png
00000014,25,1,1450283981505,1450283982061,429,412,0,0,0,3,4,1,7,0002-00-0001-02.png,0001-00-0000-98.png
00000014,26,1,1450283983049,1450283983546,367,439,0,0,0,0,1,1,1,0005-00-0000-54.png,0004-00-0000-34.png
00000014,27,0,1450283984993,1450283985444,381,449,0,0,0,4,1,3,5,0001-00-0000-26.png,0004-00-0000-93.png
00000014,28,0,1450283988394,1450283988778,974,408,0,0,0,2,4,2,6,0003-00-0000-58.png,0001-00-0001-81.png
00000014,29,0,1450283991843,1450283992216,930,532,0,0,0,0,4,4,4,0005-00-0001-58.png,0001-00-0000-37.png
00000014,30,1,1450283995170,1450283995555,950,489,0,0,0,2,0,2,2,0003-00-0001-80.png,0005-00-0001-67.png
00000014,31,1,1450283996523,1450283996963,384,476,0,0,0,1,3,2,4,0004-00-0000-04.png,0002-00-0001-29.png
00000014,32,1,1450283997934,1450283998455,889,527,0,0,0,1,0,1,1,0004-00-0000-80.png,0005-00-0001-48.png
00000014,33,0,1450283999433,1450283999852,394,513,0,0,0,4,0,4,4,0001-00-0001-30.png,0005-00-0001-29.png
00000014,34,1,1450284003392,1450284003824,929,536,0,0,0,3,1,2,4,0002-00-0001-56.png,0004-00-0000-47.png
00000014,35,0,1450284004761,1450284005303,927,416,0,0,0,2,3,1,5,0003-00-0000-28.png,0002-00-0000-56.png
00000014,36,0,1450284008339,1450284008762,959,480,0,0,0,0,2,2,2,0005-00-0000-98.png,0003-00-0000-03.png
00000014,37,1,1450284014508,1450284014912,1003,410,0,0,0,2,1,1,3,0003-00-0001-64.png,0004-00-0001-06.png
00000014,38,1,1450284015870,1450284016446,903,517,0,0,0,3,0,3,3,0002-00-0000-54.png,0005-00-0001-85.png
00000014,39,0,1450284017461,1450284017900,372,475,0,0,0,4,3,1,7,0001-00-0001-85.png,0002-00-0001-24.png
00000014,40,1,1450284020790,1450284021184,1021,462,0,0,0,4,2,2,6,0001-00-0000-13.png,0003-00-0000-23.png
00000014,41,0,1450284022130,1450284022607,951,449,0,0,0,2,4,2,6,0003-00-0000-14.png,0001-00-0001-47.png
00000014,42,1,1450284025447,1450284026011,973,420,0,0,0,4,0,4,4,0001-00-0001-34.png,0005-00-0001-36.png
00000014,43,1,1450284026962,1450284027415,947,420,0,0,0,3,0,3,3,0002-00-0001-91.png,0005-00-0000-32.png
00000014,44,1,1450284028431,1450284028927,867,413,0,0,0,1,0,1,1,0004-00-0000-69.png,0005-00-0000-51.png
00000014,45,1,1450284029972,1450284030542,925,510,0,0,0,3,2,1,5,0002-00-0001-05.png,0003-00-0001-33.png
00000014,46,1,1450284031569,1450284032123,878,361,0,0,0,2,1,1,3,0003-00-0000-63.png,0004-00-0001-22.png
00000014,47,1,1450284033092,1450284033628,932,418,0,0,0,4,1,3,5,0001-00-0001-46.png,0004-00-0001-85.png
00000014,48,1,1450284034624,1450284035060,427,462,0,0,0,0,1,1,1,0005-00-0001-00.png,0004-00-0001-10.png
00000014,49,0,1450284036034,1450284036579,897,511,0,0,0,0,4,4,4,0005-00-0000-77.png,0001-00-0001-01.png
00000014,50,0,1450284039581,1450284039972,979,441,0,0,0,3,4,1,7,0002-00-0001-82.png,0001-00-0000-76.png
00000014,51,1,1450284042991,1450284043363,978,488,0,0,0,4,2,2,6,0001-00-0000-83.png,0003-00-0000-35.png
00000014,52,0,1450284044291,1450284044868,927,435,0,0,0,0,2,2,2,0005-00-0001-35.png,0003-00-0000-71.png
00000014,53,0,1450284047991,1450284048340,998,445,0,0,0,2,3,1,5,0003-00-0001-56.png,0002-00-0000-83.png
00000014,54,1,1450284051260,1450284051638,977,384,0,0,0,3,1,2,4,0002-00-0000-35.png,0004-00-0001-62.png
00000014,55,1,1450284052592,1450284053093,943,399,0,0,0,4,3,1,7,0001-00-0001-61.png,0002-00-0000-35.png
00000014,56,0,1450284054033,1450284054544,918,416,0,0,0,0,3,3,3,0005-00-0000-11.png,0002-00-0001-00.png
00000014,57,0,1450284057795,1450284058169,939,397,0,0,0,1,2,1,3,0004-00-0000-54.png,0003-00-0000-77.png
00000014,58,1,1450284061317,1450284061699,950,501,0,0,0,2,0,2,2,0003-00-0001-34.png,0005-00-0000-43.png
00000014,59,1,1450284062631,1450284063133,384,423,0,0,0,1,4,3,5,0004-00-0000-98.png,0001-00-0001-90.png
00000014,60,1,1450284064081,1450284064532,358,498,0,0,0,1,3,2,4,0004-00-0000-21.png,0002-00-0001-67.png
00000014,61,1,1450284065522,1450284066040,940,421,0,0,0,4,3,1,7,0001-00-0000-70.png,0002-00-0001-83.png
00000014,62,1,1450284067062,1450284067482,350,475,0,0,0,0,3,3,3,0005-00-0000-15.png,0002-00-0001-53.png
00000014,63,0,1450284068463,1450284068899,379,514,0,0,0,3,1,2,4,0002-00-0001-11.png,0004-00-0000-02.png
00000014,64,1,1450284071882,1450284072310,879,480,0,0,0,4,0,4,4,0001-00-0000-98.png,0005-00-0001-70.png
00000014,65,0,1450284073269,1450284073786,877,520,0,0,0,2,4,2,6,0003-00-0000-64.png,0001-00-0001-85.png
00000014,66,1,1450284076818,1450284078016,407,515,0,0,0,0,2,2,2,0005-00-0000-45.png,0003-00-0001-49.png
00000014,67,0,1450284079036,1450284079592,925,411,0,0,0,0,1,1,1,0005-00-0000-82.png,0004-00-0000-48.png
00000014,68,0,1450284082596,1450284083020,954,495,0,0,0,2,3,1,5,0003-00-0000-55.png,0002-00-0000-62.png
00000014,69,1,1450284086511,1450284086893,914,501,0,0,0,3,0,3,3,0002-00-0001-81.png,0005-00-0000-94.png
00000014,70,1,1450284087812,1450284088288,340,469,0,0,0,1,4,3,5,0004-00-0001-67.png,0001-00-0000-53.png
00000014,71,0,1450284089253,1450284089768,917,441,0,0,0,3,4,1,7,0002-00-0001-74.png,0001-00-0001-73.png
00000014,72,1,1450284092693,1450284093072,1003,436,0,0,0,2,0,2,2,0003-00-0001-15.png,0005-00-0000-83.png
00000014,73,1,1450284094080,1450284094594,434,512,0,0,0,1,3,2,4,0004-00-0001-53.png,0002-00-0000-76.png
00000014,74,0,1450284095645,1450284096029,395,515,0,0,0,3,2,1,5,0002-00-0000-41.png,0003-00-0001-10.png
00000014,75,1,1450284098943,1450284099371,973,438,0,0,0,1,0,1,1,0004-00-0000-26.png,0005-00-0001-97.png
00000014,76,1,1450284100347,1450284100774,369,445,0,0,0,0,4,4,4,0005-00-0000-25.png,0001-00-0000-95.png
00000014,77,0,1450284101887,1450284102307,428,471,0,0,0,4,2,2,6,0001-00-0001-82.png,0003-00-0001-32.png
00000014,78,1,1450284105385,1450284105842,922,540,0,0,0,2,1,1,3,0003-00-0001-80.png,0004-00-0001-16.png
00000014,79,1,1450284106859,1450284107333,925,410,0,0,0,4,1,3,5,0001-00-0000-84.png,0004-00-0000-24.png
00000014,80,1,1450284108397,1450284108857,369,474,0,0,0,1,2,1,3,0004-00-0001-52.png,0003-00-0000-02.png
00000014,81,0,1450284109878,1450284110354,401,541,0,0,0,3,1,2,4,0002-00-0001-90.png,0004-00-0001-95.png
00000014,82,1,1450284113367,1450284113748,1016,436,0,0,0,4,0,4,4,0001-00-0000-09.png,0005-00-0000-39.png
00000014,83,0,1450284114696,1450284115109,453,486,0,0,0,4,3,1,7,0001-00-0001-71.png,0002-00-0001-42.png
00000014,84,1,1450284119607,1450284120004,923,418,0,0,0,2,1,1,3,0003-00-0000-36.png,0004-00-0000-25.png
00000014,85,0,1450284121484,1450284121889,862,384,0,0,0,2,4,2,6,0003-00-0000-35.png,0001-00-0001-03.png
00000014,86,1,1450284124765,1450284125386,966,423,0,0,0,3,2,1,5,0002-00-0000-60.png,0003-00-0001-73.png
00000014,87,1,1450284126406,1450284126873,370,449,0,0,0,0,1,1,1,0005-00-0001-45.png,0004-00-0000-95.png
00000014,88,1,1450284127897,1450284128387,924,404,0,0,0,4,2,2,6,0001-00-0001-47.png,0003-00-0001-96.png
00000014,89,1,1450284129438,1450284129901,356,464,0,0,0,1,2,1,3,0004-00-0000-53.png,0003-00-0001-30.png
00000014,90,1,1450284130898,1450284131333,335,483,0,0,0,1,4,3,5,0004-00-0000-10.png,0001-00-0001-87.png
00000014,91,1,1450284132399,1450284132854,427,449,0,0,0,1,3,2,4,0004-00-0000-28.png,0002-00-0001-73.png
00000014,92,1,1450284133879,1450284134427,902,520,0,0,0,3,0,3,3,0002-00-0001-63.png,0005-00-0000-53.png
00000014,93,0,1450284135362,1450284135831,389,488,0,0,0,4,1,3,5,0001-00-0001-24.png,0004-00-0000-89.png
00000014,94,1,1450284138811,1450284139226,434,419,0,0,0,0,3,3,3,0005-00-0001-85.png,0002-00-0000-20.png
00000014,95,1,1450284140158,1450284140741,381,398,0,0,0,3,4,1,7,0002-00-0001-29.png,0001-00-0001-94.png
00000014,96,0,1450284141770,1450284142320,924,538,0,0,0,2,3,1,5,0003-00-0000-63.png,0002-00-0001-58.png
00000014,97,1,1450284145187,1450284145595,966,438,0,0,0,2,0,2,2,0003-00-0000-65.png,0005-00-0001-92.png
00000014,98,1,1450284146491,1450284146971,366,466,0,0,0,0,4,4,4,0005-00-0001-56.png,0001-00-0000-04.png
00000014,99,0,1450284147993,1450284148481,427,436,0,0,0,1,0,1,1,0004-00-0001-28.png,0005-00-0000-11.png
00000014,100,0,1450284151541,1450284151980,966,497,0,0,0,0,2,2,2,0005-00-0001-69.png,0003-00-0000-52.png
00000014,101,0,1450284155496,1450284155888,976,438,0,0,0,1,3,2,4,0004-00-0001-82.png,0002-00-0001-32.png
00000014,102,1,1450284158895,1450284159280,926,433,0,0,0,1,0,1,1,0004-00-0000-02.png,0005-00-0000-29.png
00000014,103,1,1450284160217,1450284160739,878,519,0,0,0,4,3,1,7,0001-00-0000-18.png,0002-00-0000-30.png
00000014,104,0,1450284161708,1450284162318,926,463,0,0,0,3,4,1,7,0002-00-0000-27.png,0001-00-0001-03.png
00000014,105,1,1450284165323,1450284165732,976,412,0,0,0,4,2,2,6,0001-00-0000-57.png,0003-00-0001-64.png
00000014,106,1,1450284166675,1450284167142,939,410,0,0,0,4,1,3,5,0001-00-0000-65.png,0004-00-0000-46.png
00000014,107,1,1450284168228,1450284168659,927,410,0,0,0,2,0,2,2,0003-00-0001-24.png,0005-00-0001-70.png
00000014,108,0,1450284169725,1450284170291,954,468,0,0,0,0,3,3,3,0005-00-0001-15.png,0002-00-0000-73.png
00000014,109,1,1450284173366,1450284173716,966,423,0,0,0,3,1,2,4,0002-00-0001-65.png,0004-00-0000-25.png
00000014,110,1,1450284174716,1450284175190,344,487,0,0,0,0,1,1,1,0005-00-0000-68.png,0004-00-0001-30.png
00000014,111,1,1450284176209,1450284176754,401,410,0,0,0,0,2,2,2,0005-00-0001-75.png,0003-00-0001-57.png
00000014,112,0,1450284177838,1450284178304,878,547,0,0,0,2,3,1,5,0003-00-0001-23.png,0002-00-0000-41.png
00000014,113,1,1450284181436,1450284181812,966,423,0,0,0,3,2,1,5,0002-00-0001-29.png,0003-00-0000-61.png
00000014,114,1,1450284182816,1450284183409,401,397,0,0,0,1,2,1,3,0004-00-0001-76.png,0003-00-0001-30.png
00000014,115,1,1450284184509,1450284185047,955,441,0,0,0,3,0,3,3,0002-00-0000-23.png,0005-00-0001-79.png
00000014,116,1,1450284186134,1450284186532,351,478,0,0,0,0,4,4,4,0005-00-0000-65.png,0001-00-0000-98.png
00000014,117,0,1450284187649,1450284188123,385,472,0,0,0,4,0,4,4,0001-00-0001-88.png,0005-00-0001-07.png
00000014,118,1,1450284191228,1450284191644,926,529,0,0,0,2,1,1,3,0003-00-0001-18.png,0004-00-0000-34.png
00000014,119,0,1450284192659,1450284193172,941,418,0,0,0,2,4,2,6,0003-00-0000-51.png,0001-00-0001-26.png
00000014,120,0,1450284196255,1450284196663,977,438,0,0,0,1,4,3,5,0004-00-0000-44.png,0001-00-0000-11.png
00000014,121,0,1450284202297,1450284202668,900,539,0,0,0,3,4,1,7,0002-00-0001-10.png,0001-00-0000-69.png
00000014,122,1,1450284206324,1450284206823,976,457,0,0,0,2,1,1,3,0003-00-0001-11.png,0004-00-0001-25.png
00000014,123,1,1450284207914,1450284208448,376,448,0,0,0,1,2,1,3,0004-00-0000-93.png,0003-00-0001-01.png
00000014,124,1,1450284209381,1450284209801,427,476,0,0,0,0,1,1,1,0005-00-0000-23.png,0004-00-0001-60.png
00000014,125,1,1450284210955,1450284211482,873,534,0,0,0,4,2,2,6,0001-00-0001-02.png,0003-00-0000-42.png
00000014,126,1,1450284212466,1450284212892,363,476,0,0,0,1,3,2,4,0004-00-0000-00.png,0002-00-0001-61.png
00000014,127,1,1450284213886,1450284214431,922,446,0,0,0,4,1,3,5,0001-00-0000-70.png,0004-00-0000-27.png
00000014,128,0,1450284215435,1450284215857,385,466,0,0,0,4,3,1,7,0001-00-0001-88.png,0002-00-0000-28.png
00000014,129,1,1450284218830,1450284219462,1028,437,0,0,0,3,2,1,5,0002-00-0000-59.png,0003-00-0001-52.png
00000014,130,0,1450284220382,1450284220960,876,529,0,0,0,2,3,1,5,0003-00-0000-95.png,0002-00-0000-39.png
00000014,131,1,1450284224288,1450284224718,376,399,0,0,0,0,2,2,2,0005-00-0000-60.png,0003-00-0000-93.png
00000014,132,0,1450284225673,1450284226157,873,537,0,0,0,2,4,2,6,0003-00-0000-38.png,0001-00-0000-34.png
00000014,133,0,1450284229669,1450284230068,418,434,0,0,0,4,0,4,4,0001-00-0000-26.png,0005-00-0001-63.png
00000014,134,1,1450284233096,1450284233520,409,420,0,0,0,0,3,3,3,0005-00-0001-29.png,0002-00-0001-81.png
00000014,135,1,1450284234430,1450284234983,919,438,0,0,0,1,0,1,1,0004-00-0000-58.png,0005-00-0001-11.png
00000014,136,1,1450284235968,1450284236416,350,494,0,0,0,0,4,4,4,0005-00-0001-32.png,0001-00-0000-65.png
00000014,137,0,1450284237440,1450284237882,359,497,0,0,0,2,0,2,2,0003-00-0000-28.png,0005-00-0000-06.png
00000014,138,1,1450284240739,1450284241194,957,450,0,0,0,3,0,3,3,0002-00-0001-86.png,0005-00-0000-79.png
00000014,139,0,1450284242222,1450284242718,949,432,0,0,0,1,4,3,5,0004-00-0001-33.png,0001-00-0001-10.png
00000014,140,1,1450284246683,1450284247083,953,437,0,0,0,3,1,2,4,0002-00-0000-27.png,0004-00-0000-92.png
00000014,141,0,1450284247986,1450284248429,403,441,0,0,0,4,2,2,6,0001-00-0000-65.png,0003-00-0000-22.png
00000014,142,0,1450284252030,1450284252472,862,447,0,0,0,0,1,1,1,0005-00-0001-99.png,0004-00-0001-84.png
00000014,143,0,1450284255528,1450284255952,899,516,0,0,0,1,4,3,5,0004-00-0000-44.png,0001-00-0000-46.png
00000014,144,1,1450284258956,1450284259391,953,516,0,0,0,2,1,1,3,0003-00-0001-54.png,0004-00-0000-28.png
00000014,145,1,1450284260243,1450284260830,951,437,0,0,0,3,2,1,5,0002-00-0000-50.png,0003-00-0000-56.png
00000014,146,1,1450284261931,1450284262397,886,483,0,0,0,1,0,1,1,0004-00-0000-64.png,0005-00-0000-21.png
00000014,147,0,1450284263488,1450284263946,896,420,0,0,0,2,4,2,6,0003-00-0000-14.png,0001-00-0000-74.png
00000014,148,0,1450284266895,1450284267298,965,412,0,0,0,1,3,2,4,0004-00-0000-45.png,0002-00-0000-87.png
00000014,149,0,1450284270368,1450284270779,990,410,0,0,0,1,2,1,3,0004-00-0001-83.png,0003-00-0000-41.png
00000014,150,1,1450284273821,1450284274229,985,448,0,0,0,3,1,2,4,0002-00-0000-08.png,0004-00-0001-80.png
00000014,151,1,1450284275184,1450284275686,945,415,0,0,0,2,0,2,2,0003-00-0001-59.png,0005-00-0000-71.png
00000014,152,1,1450284276724,1450284277238,881,531,0,0,0,4,3,1,7,0001-00-0001-50.png,0002-00-0001-89.png
00000014,153,0,1450284278332,1450284278736,363,446,0,0,0,4,1,3,5,0001-00-0001-87.png,0004-00-0000-59.png
00000014,154,0,1450284281756,1450284282167,975,432,0,0,0,0,2,2,2,0005-00-0000-46.png,0003-00-0000-28.png
00000014,155,1,1450284285217,1450284285680,416,525,0,0,0,0,4,4,4,0005-00-0000-09.png,0001-00-0000-52.png
00000014,156,1,1450284286576,1450284287107,876,529,0,0,0,4,0,4,4,0001-00-0001-38.png,0005-00-0000-10.png
00000014,157,1,1450284288118,1450284288611,875,555,0,0,0,3,0,3,3,0002-00-0001-75.png,0005-00-0001-51.png
00000014,158,1,1450284289589,1450284290034,360,482,0,0,0,0,3,3,3,0005-00-0000-81.png,0002-00-0001-99.png
00000014,159,0,1450284291111,1450284291641,952,436,0,0,0,3,4,1,7,0002-00-0001-24.png,0001-00-0001-95.png
00000014,160,0,1450284294658,1450284295086,979,415,0,0,0,2,3,1,5,0003-00-0000-19.png,0002-00-0000-97.png
00000014,161,1,1450284298047,1450284298444,979,436,0,0,0,1,0,1,1,0004-00-0000-76.png,0005-00-0000-33.png
00000014,162,0,1450284299389,1450284299914,874,554,0,0,0,2,3,1,5,0003-00-0001-36.png,0002-00-0001-31.png
00000014,163,0,1450284302806,1450284303210,925,476,0,0,0,0,3,3,3,0005-00-0001-95.png,0002-00-0000-92.png
00000014,164,0,1450284306447,1450284306875,925,502,0,0,0,2,4,2,6,0003-00-0000-15.png,0001-00-0001-37.png
00000014,165,1,1450284309804,1450284310212,440,410,0,0,0,3,4,1,7,0002-00-0001-31.png,0001-00-0001-14.png
00000014,166,1,1450284311085,1450284311580,356,463,0,0,0,0,4,4,4,0005-00-0001-72.png,0001-00-0000-58.png
00000014,167,0,1450284312577,1450284313000,413,475,0,0,0,4,2,2,6,0001-00-0000-98.png,0003-00-0000-77.png
00000014,168,0,1450284316124,1450284316516,979,443,0,0,0,0,2,2,2,0005-00-0000-76.png,0003-00-0001-92.png
00000014,169,1,1450284319494,1450284319942,926,527,0,0,0,2,0,2,2,0003-00-0000-00.png,0005-00-0000-78.png
00000014,170,1,1450284320855,1450284321303,413,555,0,0,0,0,1,1,1,0005-00-0001-64.png,0004-00-0001-38.png
00000014,171,0,1450284322296,1450284322756,901,441,0,0,0,1,2,1,3,0004-00-0001-41.png,0003-00-0000-74.png
00000014,172,1,1450284326063,1450284326517,955,495,0,0,0,3,0,3,3,0002-00-0000-12.png,0005-00-0000-12.png
00000014,173,0,1450284327463,1450284327928,405,475,0,0,0,4,3,1,7,0001-00-0001-52.png,0002-00-0000-34.png
00000014,174,0,1450284331567,1450284332005,947,550,0,0,0,1,4,3,5,0004-00-0001-55.png,0001-00-0000-63.png
00000014,175,1,1450284334917,1450284335343,951,501,0,0,0,3,2,1,5,0002-00-0001-87.png,0003-00-0000-63.png
00000014,176,1,1450284336184,1450284336800,892,537,0,0,0,4,0,4,4,0001-00-0001-10.png,0005-00-0000-99.png
00000014,177,1,1450284337759,1450284338251,862,553,0,0,0,3,1,2,4,0002-00-0000-41.png,0004-00-0001-06.png
00000014,178,0,1450284339179,1450284339624,461,483,0,0,0,4,1,3,5,0001-00-0000-32.png,0004-00-0001-93.png
00000014,179,1,1450284346745,1450284347162,968,426,0,0,0,2,1,1,3,0003-00-0000-06.png,0004-00-0001-78.png
00000014,180,1,1450284348113,1450284348627,378,447,0,0,0,1,3,2,4,0004-00-0001-21.png,0002-00-0000-98.png
00000014,181,1,1450284349674,1450284350196,925,463,0,0,0,4,2,2,6,0001-00-0001-27.png,0003-00-0001-59.png
00000014,182,1,1450284351581,1450284352080,926,489,0,0,0,3,1,2,4,0002-00-0001-68.png,0004-00-0001-68.png
00000014,183,1,1450284353001,1450284353405,457,492,0,0,0,1,3,2,4,0004-00-0001-15.png,0002-00-0001-36.png
00000014,184,1,1450284354403,1450284354928,900,534,0,0,0,1,0,1,1,0004-00-0000-73.png,0005-00-0001-57.png
00000014,185,1,1450284355873,1450284356251,401,475,0,0,0,1,2,1,3,0004-00-0000-24.png,0003-00-0000-57.png
00000014,186,1,1450284357222,1450284357287,504,488,0,0,0,0,4,4,4,0005-00-0001-11.png,0001-00-0000-82.png
00000014,187,0,1450284358393,1450284358846,401,482,0,0,0,4,0,4,4,0001-00-0000-93.png,0005-00-0000-84.png
00000014,188,1,1450284363614,1450284364052,930,548,0,0,0,4,1,3,5,0001-00-0001-58.png,0004-00-0000-86.png
00000014,189,1,1450284365116,1450284365603,953,442,0,0,0,3,2,1,5,0002-00-0001-19.png,0003-00-0001-49.png
00000014,190,0,1450284366683,1450284367217,877,545,0,0,0,2,3,1,5,0003-00-0000-76.png,0002-00-0000-62.png
00000014,191,1,1450284370173,1450284370588,952,501,0,0,0,3,0,3,3,0002-00-0000-98.png,0005-00-0001-78.png
00000014,192,1,1450284371645,1450284372106,397,443,0,0,0,3,4,1,7,0002-00-0001-78.png,0001-00-0001-19.png
00000014,193,1,1450284373014,1450284373492,357,498,0,0,0,0,1,1,1,0005-00-0001-36.png,0004-00-0001-44.png
00000014,194,1,1450284374509,1450284374976,376,476,0,0,0,0,3,3,3,0005-00-0001-49.png,0002-00-0000-02.png
00000014,195,1,1450284376028,1450284376478,883,473,0,0,0,2,0,2,2,0003-00-0000-35.png,0005-00-0001-29.png
00000014,196,0,1450284377935,1450284378409,926,455,0,0,0,2,4,2,6,0003-00-0000-45.png,0001-00-0000-75.png
00000014,197,0,1450284381453,1450284381828,990,475,0,0,0,1,4,3,5,0004-00-0000-82.png,0001-00-0001-25.png
00000014,198,1,1450284384734,1450284385179,979,443,0,0,0,4,3,1,7,0001-00-0000-14.png,0002-00-0000-99.png
00000014,199,1,1450284386221,1450284386733,879,532,0,0,0,2,1,1,3,0003-00-0001-16.png,0004-00-0001-99.png
00000014,200,1,1450284387706,1450284387754,504,540,0,0,0,0,2,2,2,0005-00-0000-25.png,0003-00-0000-86.png
00000014,201,1,1450284388890,1450284389396,875,539,0,0,0,2,0,2,2,0003-00-0000-24.png,0005-00-0001-20.png
00000014,202,1,1450284390328,1450284390748,453,476,0,0,0,0,2,2,2,0005-00-0001-25.png,0003-00-0000-01.png
00000014,203,0,1450284391710,1450284391726,504,436,0,0,0,4,1,3,5,0001-00-0001-03.png,0004-00-0000-15.png
00000014,204,1,1450284395132,1450284395136,520,428,0,0,0,3,4,1,7,0002-00-0000-24.png,0001-00-0000-23.png
00000014,205,0,1450284396041,1450284396578,900,541,0,0,0,2,4,2,6,0003-00-0001-58.png,0001-00-0001-31.png
00000014,206,1,1450284399802,1450284400184,912,528,0,0,0,1,0,1,1,0004-00-0000-39.png,0005-00-0001-35.png
00000014,207,1,1450284401187,1450284401638,364,430,0,0,0,0,1,1,1,0005-00-0001-54.png,0004-00-0000-47.png
00000014,208,0,1450284402674,1450284403188,898,484,0,0,0,2,3,1,5,0003-00-0000-26.png,0002-00-0000-80.png
00000014,209,0,1450284406643,1450284407040,901,555,0,0,0,1,2,1,3,0004-00-0001-92.png,0003-00-0001-94.png
00000014,210,0,1450284410566,1450284410669,453,514,0,0,0,3,2,1,5,0002-00-0000-62.png,0003-00-0001-74.png
00000014,211,1,1450284413964,1450284414388,926,527,0,0,0,2,1,1,3,0003-00-0000-58.png,0004-00-0000-16.png
00000014,212,1,1450284415416,1450284415897,886,523,0,0,0,3,0,3,3,0002-00-0000-16.png,0005-00-0000-60.png
00000014,213,1,1450284416846,1450284417403,897,561,0,0,0,3,1,2,4,0002-00-0001-62.png,0004-00-0000-44.png
00000014,214,1,1450284418359,1450284418819,392,433,0,0,0,1,4,3,5,0004-00-0000-77.png,0001-00-0001-11.png
00000014,215,1,1450284419769,1450284420221,453,462,0,0,0,0,3,3,3,0005-00-0001-94.png,0002-00-0000-96.png
00000014,216,1,1450284421171,1450284421716,877,544,0,0,0,4,0,4,4,0001-00-0000-17.png,0005-00-0001-41.png
00000014,217,1,1450284422678,1450284423218,902,442,0,0,0,4,2,2,6,0001-00-0000-30.png,0003-00-0001-67.png
00000014,218,1,1450284424199,1450284425020,352,430,0,0,0,0,4,4,4,0005-00-0000-10.png,0001-00-0000-98.png
00000014,219,0,1450284425991,1450284426482,407,438,0,0,0,4,3,1,7,0001-00-0000-49.png,0002-00-0001-69.png
00000014,220,0,1450284429527,1450284429908,927,513,0,0,0,1,3,2,4,0004-00-0001-77.png,0002-00-0000-14.png
00000014,221,0,1450284432775,1450284433195,991,445,0,0,0,0,3,3,3,0005-00-0000-44.png,0002-00-0001-00.png
00000014,222,0,1450284436534,1450284436987,897,443,0,0,0,0,1,1,1,0005-00-0000-05.png,0004-00-0000-26.png
00000014,223,0,1450284439882,1450284440390,908,531,0,0,0,0,4,4,4,0005-00-0000-57.png,0001-00-0001-78.png
00000014,224,1,1450284443500,1450284443875,1003,423,0,0,0,1,0,1,1,0004-00-0001-59.png,0005-00-0000-74.png
00000014,225,1,1450284444842,1450284445396,874,490,0,0,0,3,2,1,5,0002-00-0001-15.png,0003-00-0000-82.png
00000014,226,1,1450284446392,1450284446868,902,416,0,0,0,2,0,2,2,0003-00-0000-76.png,0005-00-0001-05.png
00000014,227,0,1450284447923,1450284447996,467,484,0,0,0,4,3,1,7,0001-00-0000-86.png,0002-00-0000-01.png
00000014,228,1,1450284451561,1450284451953,356,407,0,0,0,0,2,2,2,0005-00-0000-45.png,0003-00-0001-58.png
00000014,229,1,1450284452931,1450284453480,896,446,0,0,0,3,0,3,3,0002-00-0000-09.png,0005-00-0001-12.png
00000014,230,0,1450284454450,1450284454948,925,410,0,0,0,2,3,1,5,0003-00-0000-70.png,0002-00-0000-93.png
00000014,231,0,1450284458100,1450284458520,914,543,0,0,0,1,4,3,5,0004-00-0000-96.png,0001-00-0001-07.png
00000014,232,1,1450284461535,1450284461942,936,508,0,0,0,4,0,4,4,0001-00-0001-18.png,0005-00-0001-19.png
00000014,233,1,1450284462829,1450284463319,875,528,0,0,0,2,1,1,3,0003-00-0000-66.png,0004-00-0001-15.png
00000014,234,1,1450284464408,1450284464896,876,555,0,0,0,4,1,3,5,0001-00-0000-26.png,0004-00-0000-35.png
00000014,235,1,1450284465861,1450284466415,876,545,0,0,0,3,1,2,4,0002-00-0000-23.png,0004-00-0001-42.png
00000014,236,1,1450284467482,1450284467928,386,479,0,0,0,3,4,1,7,0002-00-0000-91.png,0001-00-0001-98.png
00000014,237,1,1450284468941,1450284469457,902,414,0,0,0,4,2,2,6,0001-00-0000-69.png,0003-00-0000-10.png
00000014,238,1,1450284470474,1450284470542,497,532,0,0,0,1,2,1,3,0004-00-0000-16.png,0003-00-0000-33.png
00000014,239,0,1450284471645,1450284472190,877,547,0,0,0,1,3,2,4,0004-00-0000-49.png,0002-00-0000-98.png
00000014,240,0,1450284475229,1450284475647,902,546,0,0,0,2,4,2,6,0003-00-0000-22.png,0001-00-0000-71.png
00000014,241,1,1450284478570,1450284478948,902,520,0,0,0,4,2,2,6,0001-00-0000-56.png,0003-00-0001-12.png
00000014,242,1,1450284479841,1450284480300,427,450,0,0,0,1,3,2,4,0004-00-0001-66.png,0002-00-0000-45.png
00000014,243,1,1450284481316,1450284481785,900,462,0,0,0,4,3,1,7,0001-00-0001-46.png,0002-00-0001-51.png
00000014,244,1,1450284482857,1450284483428,912,450,0,0,0,3,1,2,4,0002-00-0001-17.png,0004-00-0001-19.png
00000014,245,1,1450284484426,1450284484896,875,463,0,0,0,1,0,1,1,0004-00-0000-34.png,0005-00-0001-52.png
00000014,246,0,1450284485882,1450284486478,875,489,0,0,0,1,4,3,5,0004-00-0001-51.png,0001-00-0000-89.png
00000014,247,1,1450284491038,1450284491550,362,448,0,0,0,0,3,3,3,0005-00-0000-07.png,0002-00-0001-21.png
00000014,248,1,1450284492462,1450284492976,873,536,0,0,0,2,1,1,3,0003-00-0000-96.png,0004-00-0001-13.png
00000014,249,1,1450284493974,1450284494002,518,462,0,0,0,0,2,2,2,0005-00-0001-21.png,0003-00-0000-60.png
00000014,250,1,1450284495168,1450284495565,377,474,0,0,0,0,4,4,4,0005-00-0000-99.png,0001-00-0001-06.png
00000014,251,0,1450284496701,1450284497177,405,562,0,0,0,3,2,1,5,0002-00-0001-11.png,0003-00-0000-79.png
00000014,252,0,1450284502066,1450284502487,964,476,0,0,0,1,2,1,3,0004-00-0001-03.png,0003-00-0001-74.png
00000014,253,0,1450284505624,1450284506048,966,450,0,0,0,3,4,1,7,0002-00-0001-92.png,0001-00-0000-70.png
00000014,254,1,1450284508873,1450284509326,966,449,0,0,0,3,0,3,3,0002-00-0001-12.png,0005-00-0001-89.png
00000014,255,0,1450284510227,1450284510687,897,470,0,0,0,2,3,1,5,0003-00-0000-66.png,0002-00-0001-27.png
00000014,256,1,1450284513793,1450284514256,982,473,0,0,0,4,1,3,5,0001-00-0001-81.png,0004-00-0000-78.png
00000014,257,1,1450284515183,1450284515211,504,422,0,0,0,2,4,2,6,0003-00-0001-43.png,0001-00-0001-96.png
00000014,258,1,1450284516427,1450284516883,900,449,0,0,0,4,0,4,4,0001-00-0001-87.png,0005-00-0000-39.png
00000014,259,1,1450284518280,1450284518706,376,475,0,0,0,0,1,1,1,0005-00-0001-41.png,0004-00-0001-17.png
00000014,260,1,1450284519737,1450284520238,875,534,0,0,0,2,0,2,2,0003-00-0001-74.png,0005-00-0000-29.png
00000014,261,1,1450284521275,1450284521894,902,491,0,0,0,3,1,2,4,0002-00-0001-01.png,0004-00-0001-86.png
00000014,262,0,1450284522909,1450284523380,869,545,0,0,0,1,4,3,5,0004-00-0000-51.png,0001-00-0001-81.png
00000014,263,1,1450284526325,1450284526717,921,524,0,0,0,2,1,1,3,0003-00-0000-60.png,0004-00-0000-14.png
00000014,264,1,1450284527673,1450284528223,416,422,0,0,0,3,4,1,7,0002-00-0001-27.png,0001-00-0001-83.png
00000014,265,0,1450284529277,1450284529301,504,473,0,0,0,4,0,4,4,0001-00-0000-47.png,0005-00-0000-12.png
00000014,266,1,1450284532288,1450284532714,977,475,0,0,0,3,2,1,5,0002-00-0001-60.png,0003-00-0000-01.png
00000014,267,1,1450284533699,1450284534153,427,489,0,0,0,0,1,1,1,0005-00-0000-97.png,0004-00-0000-30.png
00000014,268,1,1450284535210,1450284535714,900,516,0,0,0,4,2,2,6,0001-00-0000-58.png,0003-00-0001-31.png
00000014,269,1,1450284536770,1450284537190,382,487,0,0,0,0,3,3,3,0005-00-0000-70.png,0002-00-0000-73.png
00000014,270,1,1450284538211,1450284538630,359,497,0,0,0,0,2,2,2,0005-00-0000-35.png,0003-00-0001-16.png
00000014,271,0,1450284539722,1450284540189,389,446,0,0,0,1,0,1,1,0004-00-0000-84.png,0005-00-0000-65.png
00000014,272,1,1450284543200,1450284543629,420,419,0,0,0,1,2,1,3,0004-00-0000-76.png,0003-00-0001-81.png
00000014,273,1,1450284544581,1450284545108,862,528,0,0,0,4,1,3,5,0001-00-0000-48.png,0004-00-0001-64.png
00000014,274,0,1450284546173,1450284546655,926,462,0,0,0,2,3,1,5,0003-00-0001-34.png,0002-00-0000-69.png
00000014,275,0,1450284549628,1450284550042,902,519,0,0,0,1,3,2,4,0004-00-0001-08.png,0002-00-0001-98.png
00000014,276,1,1450284553107,1450284553600,985,448,0,0,0,2,0,2,2,0003-00-0000-89.png,0005-00-0000-64.png
00000014,277,1,1450284554611,1450284555068,925,411,0,0,0,3,0,3,3,0002-00-0000-73.png,0005-00-0000-54.png
00000014,278,1,1450284556101,1450284556518,376,475,0,0,0,0,4,4,4,0005-00-0001-97.png,0001-00-0001-39.png
00000014,279,0,1450284557652,1450284557660,507,472,0,0,0,4,3,1,7,0001-00-0001-43.png,0002-00-0001-43.png
00000014,280,0,1450284560791,1450284561198,951,438,0,0,0,2,4,2,6,0003-00-0000-59.png,0001-00-0000-47.png
00000014,281,0,1450284564330,1450284564748,925,543,0,0,0,0,3,3,3,0005-00-0001-91.png,0002-00-0000-04.png
00000014,282,0,1450284568127,1450284568582,897,464,0,0,0,1,2,1,3,0004-00-0001-70.png,0003-00-0001-50.png
00000014,283,0,1450284571606,1450284572061,991,448,0,0,0,1,4,3,5,0004-00-0000-17.png,0001-00-0001-73.png
00000014,284,0,1450284575242,1450284575712,447,416,0,0,0,4,2,2,6,0001-00-0001-10.png,0003-00-0001-99.png
00000014,285,0,1450284578707,1450284579142,949,456,0,0,0,1,3,2,4,0004-00-0001-40.png,0002-00-0000-79.png
00000014,286,1,1450284582061,1450284582736,413,512,0,0,0,3,4,1,7,0002-00-0000-51.png,0001-00-0000-83.png
00000014,287,0,1450284583700,1450284584141,374,407,0,0,0,3,2,1,5,0002-00-0001-15.png,0003-00-0000-43.png
00000014,288,1,1450284587089,1450284587475,999,445,0,0,0,2,1,1,3,0003-00-0001-75.png,0004-00-0000-85.png
00000014,289,1,1450284588441,1450284588901,381,436,0,0,0,0,4,4,4,0005-00-0001-33.png,0001-00-0001-46.png
00000014,290,0,1450284590001,1450284590546,872,562,0,0,0,2,3,1,5,0003-00-0000-17.png,0002-00-0000-80.png
00000014,291,1,1450284593709,1450284594134,930,519,0,0,0,4,3,1,7,0001-00-0001-64.png,0002-00-0001-43.png
00000014,292,1,1450284595090,1450284595579,919,429,0,0,0,4,1,3,5,0001-00-0001-09.png,0004-00-0001-58.png
00000014,293,1,1450284596700,1450284597280,890,529,0,0,0,4,0,4,4,0001-00-0001-05.png,0005-00-0000-73.png
00000014,294,1,1450284598302,1450284598782,867,542,0,0,0,3,0,3,3,0002-00-0001-27.png,0005-00-0000-79.png
00000014,295,1,1450284599801,1450284600265,350,449,0,0,0,0,2,2,2,0005-00-0001-80.png,0003-00-0000-41.png
00000014,296,1,1450284601352,1450284601778,344,447,0,0,0,0,1,1,1,0005-00-0000-78.png,0004-00-0001-11.png
00000014,297,1,1450284602843,1450284603356,870,550,0,0,0,1,0,1,1,0004-00-0001-47.png,0005-00-0001-72.png
00000014,298,1,1450284604462,1450284604995,893,440,0,0,0,3,1,2,4,0002-00-0001-55.png,0004-00-0000-88.png
00000014,299,0,1450284606070,1450284606589,875,463,0,0,0,2,4,2,6,0003-00-0000-97.png,0001-00-0001-33.png
00000014,300,1,1450284609678,1450284610053,977,449,0,0,0,2,0,2,2,0003-00-0000-29.png,0005-00-0001-14.png
00000014,301,1,1450284611041,1450284611565,857,566,0,0,0,1,0,1,1,0004-00-0001-36.png,0005-00-0001-54.png
00000014,302,1,1450284612583,1450284612976,376,476,0,0,0,0,3,3,3,0005-00-0001-94.png,0002-00-0000-40.png
00000014,303,1,1450284614073,1450284614588,896,550,0,0,0,4,0,4,4,0001-00-0000-56.png,0005-00-0001-84.png
00000014,304,1,1450284615882,1450284616392,892,505,0,0,0,4,3,1,7,0001-00-0000-28.png,0002-00-0001-38.png
00000014,305,0,1450284617572,1450284618059,902,466,0,0,0,2,3,1,5,0003-00-0000-98.png,0002-00-0000-51.png
00000014,306,0,1450284620897,1450284621378,410,419,0,0,0,3,1,2,4,0002-00-0000-60.png,0004-00-0000-63.png
00000014,307,1,1450284624638,1450284625069,950,490,0,0,0,3,0,3,3,0002-00-0000-79.png,0005-00-0001-93.png
00000014,308,1,1450284625977,1450284626421,338,476,0,0,0,0,2,2,2,0005-00-0000-31.png,0003-00-0000-12.png
00000014,309,1,1450284627530,1450284627945,386,450,0,0,0,0,4,4,4,0005-00-0001-29.png,0001-00-0001-18.png
00000014,310,0,1450284629179,1450284629637,872,536,0,0,0,2,4,2,6,0003-00-0001-36.png,0001-00-0000-84.png
00000014,311,0,1450284632524,1450284632941,926,554,0,0,0,3,4,1,7,0002-00-0000-53.png,0001-00-0000-69.png
00000014,312,0,1450284635818,1450284636216,952,409,0,0,0,0,1,1,1,0005-00-0000-30.png,0004-00-0000-21.png
00000014,313,1,1450284640211,1450284640666,938,528,0,0,0,2,1,1,3,0003-00-0001-06.png,0004-00-0000-76.png
00000014,314,1,1450284641652,1450284642109,415,410,0,0,0,1,4,3,5,0004-00-0001-35.png,0001-00-0001-68.png
00000014,315,0,1450284643140,1450284643180,504,514,0,0,0,4,2,2,6,0001-00-0001-08.png,0003-00-0000-56.png
00000014,316,1,1450284646019,1450284646487,932,448,0,0,0,3,2,1,5,0002-00-0001-12.png,0003-00-0000-66.png
00000014,317,1,1450284647486,1450284647977,382,488,0,0,0,1,2,1,3,0004-00-0000-61.png,0003-00-0001-03.png
00000014,318,1,1450284649068,1450284649542,895,550,0,0,0,4,1,3,5,0001-00-0001-61.png,0004-00-0001-11.png
00000014,319,1,1450284650628,1450284651124,453,462,0,0,0,1,3,2,4,0004-00-0000-87.png,0002-00-0001-37.png
00000014,320,1,1450284652377,1450284652852,887,554,0,0,0,2,0,2,2,0003-00-0000-36.png,0005-00-0000-20.png
00000014,321,1,1450284653878,1450284654366,919,469,0,0,0,3,2,1,5,0002-00-0000-56.png,0003-00-0001-92.png
00000014,322,0,1450284655489,1450284655834,428,476,0,0,0,4,1,3,5,0001-00-0001-31.png,0004-00-0001-07.png
00000014,323,0,1450284658906,1450284659327,959,427,0,0,0,1,3,2,4,0004-00-0001-27.png,0002-00-0000-75.png
00000014,324,1,1450284662355,1450284662712,884,421,0,0,0,2,1,1,3,0003-00-0000-36.png,0004-00-0001-25.png
00000014,325,1,1450284663678,1450284664125,390,468,0,0,0,0,1,1,1,0005-00-0001-76.png,0004-00-0001-55.png
00000014,326,1,1450284665225,1450284665660,384,456,0,0,0,0,3,3,3,0005-00-0001-04.png,0002-00-0000-14.png
00000014,327,0,1450284666724,1450284667205,899,490,0,0,0,0,4,4,4,0005-00-0000-33.png,0001-00-0001-42.png
00000014,328,1,1450284670320,1450284670775,409,403,0,0,0,1,2,1,3,0004-00-0000-27.png,0003-00-0001-90.png
00000014,329,1,1450284671749,1450284672270,873,563,0,0,0,3,0,3,3,0002-00-0000-10.png,0005-00-0000-56.png
00000014,330,1,1450284673357,1450284673785,383,498,0,0,0,3,4,1,7,0002-00-0001-00.png,0001-00-0000-04.png
00000014,331,0,1450284674859,1450284675290,351,429,0,0,0,4,3,1,7,0001-00-0001-01.png,0002-00-0000-96.png
00000014,332,1,1450284678358,1450284678774,914,537,0,0,0,2,0,2,2,0003-00-0000-34.png,0005-00-0000-72.png
00000014,333,0,1450284679795,1450284680349,386,392,0,0,0,4,0,4,4,0001-00-0001-41.png,0005-00-0000-11.png
00000014,334,0,1450284683395,1450284683798,912,555,0,0,0,1,4,3,5,0004-00-0000-60.png,0001-00-0001-52.png
00000014,335,1,1450284686723,1450284687181,413,422,0,0,0,0,2,2,2,0005-00-0000-64.png,0003-00-0000-81.png
00000014,336,1,1450284688088,1450284688611,394,435,0,0,0,2,3,1,5,0003-00-0001-37.png,0002-00-0001-06.png
00000014,337,0,1450284689638,1450284690121,862,410,0,0,0,2,4,2,6,0003-00-0001-68.png,0001-00-0000-90.png
00000014,338,1,1450284693458,1450284693890,951,462,0,0,0,3,1,2,4,0002-00-0001-79.png,0004-00-0000-80.png
00000014,339,1,1450284694885,1450284695380,868,538,0,0,0,4,2,2,6,0001-00-0001-50.png,0003-00-0001-76.png
00000014,340,0,1450284696456,1450284696882,470,469,0,0,0,1,0,1,1,0004-00-0000-00.png,0005-00-0001-57.png
00000014,341,0,1450284699995,1450284700375,894,529,0,0,0,0,2,2,2,0005-00-0000-49.png,0003-00-0001-36.png
00000014,342,1,1450284703353,1450284703377,512,402,0,0,0,2,3,1,5,0003-00-0001-56.png,0002-00-0000-51.png
00000014,343,1,1450284704403,1450284705036,862,462,0,0,0,3,1,2,4,0002-00-0000-23.png,0004-00-0000-61.png
00000014,344,0,1450284706097,1450284706593,877,468,0,0,0,1,2,1,3,0004-00-0001-42.png,0003-00-0000-88.png
00000014,345,0,1450284709843,1450284710358,878,480,0,0,0,1,4,3,5,0004-00-0001-67.png,0001-00-0001-07.png
00000014,346,0,1450284713442,1450284713985,967,520,0,0,0,3,4,1,7,0002-00-0000-74.png,0001-00-0001-00.png
00000014,347,1,1450284717108,1450284717520,914,475,0,0,0,3,0,3,3,0002-00-0000-12.png,0005-00-0000-80.png
00000014,348,1,1450284718490,1450284718931,908,474,0,0,0,4,2,2,6,0001-00-0001-71.png,0003-00-0000-85.png
00000014,349,1,1450284719971,1450284720453,898,457,0,0,0,2,0,2,2,0003-00-0000-56.png,0005-00-0000-47.png
00000014,350,0,1450284721472,1450284721935,347,407,0,0,0,1,0,1,1,0004-00-0001-59.png,0005-00-0000-44.png
00000014,351,1,1450284725182,1450284725633,382,395,0,0,0,0,4,4,4,0005-00-0000-17.png,0001-00-0000-22.png
00000014,352,0,1450284726651,1450284727219,903,493,0,0,0,2,4,2,6,0003-00-0001-06.png,0001-00-0000-51.png
00000014,353,1,1450284730289,1450284730821,376,395,0,0,0,1,3,2,4,0004-00-0000-05.png,0002-00-0001-92.png
00000014,354,1,1450284731789,1450284732235,925,423,0,0,0,4,0,4,4,0001-00-0000-09.png,0005-00-0000-33.png
00000014,355,0,1450284733320,1450284733846,925,463,0,0,0,0,1,1,1,0005-00-0000-00.png,0004-00-0001-73.png
00000014,356,0,1450284736698,1450284736714,511,406,0,0,0,2,1,1,3,0003-00-0000-86.png,0004-00-0001-61.png
00000014,357,1,1450284739691,1450284740131,438,439,0,0,0,0,3,3,3,0005-00-0001-31.png,0002-00-0000-93.png
00000014,358,1,1450284741091,1450284741684,872,534,0,0,0,4,1,3,5,0001-00-0001-96.png,0004-00-0000-10.png
00000014,359,1,1450284742673,1450284743186,892,444,0,0,0,4,3,1,7,0001-00-0000-77.png,0002-00-0001-95.png
00000014,360,0,1450284744263,1450284744299,504,514,0,0,0,3,2,1,5,0002-00-0000-44.png,0003-00-0000-15.png
00000014,361,1,1450284747636,1450284748068,983,526,0,0,0,2,1,1,3,0003-00-0000-37.png,0004-00-0000-14.png
00000014,362,0,1450284749065,1450284749527,901,468,0,0,0,1,4,3,5,0004-00-0001-95.png,0001-00-0000-49.png
00000014,363,1,1450284752574,1450284753037,364,410,0,0,0,3,4,1,7,0002-00-0001-91.png,0001-00-0000-58.png
00000014,364,1,1450284754073,1450284754653,924,482,0,0,0,4,3,1,7,0001-00-0001-55.png,0002-00-0000-85.png
00000014,365,1,1450284755712,1450284755740,510,473,0,0,0,2,3,1,5,0003-00-0001-43.png,0002-00-0001-87.png
00000014,366,1,1450284756956,1450284757428,389,449,0,0,0,0,2,2,2,0005-00-0000-03.png,0003-00-0001-13.png
00000014,367,1,1450284758616,1450284759102,862,529,0,0,0,4,0,4,4,0001-00-0000-05.png,0005-00-0001-32.png
00000014,368,1,1450284760170,1450284760655,912,476,0,0,0,2,0,2,2,0003-00-0001-13.png,0005-00-0001-44.png
00000014,369,1,1450284761716,1450284762108,453,450,0,0,0,1,2,1,3,0004-00-0000-00.png,0003-00-0000-10.png
00000014,370,1,1450284763228,1450284763766,888,450,0,0,0,3,2,1,5,0002-00-0000-02.png,0003-00-0001-05.png
00000014,371,1,1450284764879,1450284765380,872,534,0,0,0,4,1,3,5,0001-00-0001-09.png,0004-00-0000-55.png
00000014,372,1,1450284766488,1450284766974,467,548,0,0,0,0,1,1,1,0005-00-0001-08.png,0004-00-0001-30.png
00000014,373,1,1450284768119,1450284768521,444,480,0,0,0,0,4,4,4,0005-00-0000-55.png,0001-00-0001-90.png
00000014,374,0,1450284769728,1450284770122,385,474,0,0,0,1,0,1,1,0004-00-0001-04.png,0005-00-0001-83.png
00000014,375,0,1450284773318,1450284773757,950,500,0,0,0,0,3,3,3,0005-00-0000-78.png,0002-00-0001-00.png
00000014,376,1,1450284776804,1450284777402,464,545,0,0,0,1,3,2,4,0004-00-0000-50.png,0002-00-0000-13.png
00000014,377,0,1450284778401,1450284778914,876,546,0,0,0,2,4,2,6,0003-00-0000-69.png,0001-00-0001-53.png
00000014,378,1,1450284781894,1450284782335,937,517,0,0,0,3,1,2,4,0002-00-0000-40.png,0004-00-0001-25.png
00000014,379,1,1450284783794,1450284784248,901,461,0,0,0,3,0,3,3,0002-00-0001-92.png,0005-00-0000-55.png
00000014,380,0,1450284785325,1450284786090,369,421,0,0,0,4,2,2,6,0001-00-0000-26.png,0003-00-0001-73.png
00000014,381,1,1450284789164,1450284789579,411,534,0,0,0,0,2,2,2,0005-00-0000-51.png,0003-00-0001-24.png
00000014,382,1,1450284790601,1450284791138,338,396,0,0,0,0,1,1,1,0005-00-0001-74.png,0004-00-0000-94.png
00000014,383,1,1450284792253,1450284792736,917,465,0,0,0,3,0,3,3,0002-00-0001-54.png,0005-00-0001-55.png
00000014,384,1,1450284793823,1450284794448,453,462,0,0,0,1,4,3,5,0004-00-0001-64.png,0001-00-0000-88.png
00000014,385,1,1450284795592,1450284796072,894,442,0,0,0,2,1,1,3,0003-00-0001-43.png,0004-00-0000-66.png
00000014,386,1,1450284797209,1450284797739,440,455,0,0,0,1,3,2,4,0004-00-0000-19.png,0002-00-0001-49.png
00000014,387,0,1450284798905,1450284799284,439,488,0,0,0,3,2,1,5,0002-00-0001-68.png,0003-00-0001-52.png
00000014,388,1,1450284802239,1450284802713,408,444,0,0,0,2,3,1,5,0003-00-0001-73.png,0002-00-0000-51.png
00000014,389,0,1450284803701,1450284804255,900,461,0,0,0,3,4,1,7,0002-00-0000-06.png,0001-00-0001-09.png
00000014,390,1,1450284807359,1450284807791,956,484,0,0,0,3,1,2,4,0002-00-0001-00.png,0004-00-0001-18.png
00000014,391,0,1450284809011,1450284809601,920,494,0,0,0,2,4,2,6,0003-00-0000-84.png,0001-00-0000-85.png
00000014,392,1,1450284812544,1450284813105,418,501,0,0,0,0,4,4,4,0005-00-0000-04.png,0001-00-0000-91.png
00000014,393,1,1450284814095,1450284814496,407,471,0,0,0,0,3,3,3,0005-00-0000-25.png,0002-00-0000-87.png
00000014,394,1,1450284815727,1450284816409,887,524,0,0,0,4,1,3,5,0001-00-0000-72.png,0004-00-0000-67.png
00000014,395,1,1450284817447,1450284817923,902,476,0,0,0,2,0,2,2,0003-00-0000-38.png,0005-00-0000-09.png
00000014,396,1,1450284818969,1450284819537,880,506,0,0,0,4,2,2,6,0001-00-0000-18.png,0003-00-0000-57.png
00000014,397,1,1450284820615,1450284821030,460,498,0,0,0,1,2,1,3,0004-00-0001-99.png,0003-00-0001-19.png
00000014,398,1,1450284822228,1450284822694,889,463,0,0,0,4,0,4,4,0001-00-0000-48.png,0005-00-0001-54.png
00000014,399,1,1450284823820,1450284824361,905,480,0,0,0,1,0,1,1,0004-00-0000-95.png,0005-00-0000-68.png
00000014,400,1,1450284825450,1450284825995,888,476,0,0,0,4,3,1,7,0001-00-0000-60.png,0002-00-0000-09.png
00000014,401,0,1450284827170,1450284827841,454,437,0,0,0,4,2,2,6,0001-00-0000-58.png,0003-00-0001-58.png
00000014,402,1,1450284830867,1450284831748,390,390,0,0,0,2,4,2,6,0003-00-0001-44.png,0001-00-0000-12.png
00000014,403,0,1450284832784,1450284833208,427,489,0,0,0,4,1,3,5,0001-00-0001-22.png,0004-00-0000-63.png
00000014,404,1,1450284836312,1450284836776,985,447,0,0,0,3,2,1,5,0002-00-0001-53.png,0003-00-0000-93.png
00000014,405,1,1450284837744,1450284838223,414,436,0,0,0,0,3,3,3,0005-00-0001-53.png,0002-00-0000-39.png
00000014,406,1,1450284839474,1450284839931,299,541,0,0,0,0,4,4,4,0005-00-0000-91.png,0001-00-0001-24.png
00000014,407,1,1450284841053,1450284841993,444,440,0,0,0,1,3,2,4,0004-00-0001-87.png,0002-00-0000-34.png
00000014,408,0,1450284843124,1450284843753,925,516,0,0,0,2,3,1,5,0003-00-0000-29.png,0002-00-0001-49.png
00000014,409,1,1450284846809,1450284847245,947,462,0,0,0,3,0,3,3,0002-00-0001-17.png,0005-00-0000-49.png
00000014,410,1,1450284848236,1450284848638,356,462,0,0,0,1,2,1,3,0004-00-0001-77.png,0003-00-0000-70.png
00000014,411,1,1450284849839,1450284850314,871,472,0,0,0,2,1,1,3,0003-00-0001-83.png,0004-00-0001-81.png
00000014,412,1,1450284851560,1450284852186,383,445,0,0,0,0,1,1,1,0005-00-0000-76.png,0004-00-0000-58.png
00000014,413,0,1450284853318,1450284853342,503,515,0,0,0,4,3,1,7,0001-00-0000-46.png,0002-00-0001-76.png
00000014,414,1,1450284856467,1450284856845,953,477,0,0,0,1,0,1,1,0004-00-0000-49.png,0005-00-0000-25.png
00000014,415,1,1450284857897,1450284858429,872,536,0,0,0,3,1,2,4,0002-00-0000-55.png,0004-00-0000-68.png
00000014,416,1,1450284859550,1450284860025,877,467,0,0,0,2,0,2,2,0003-00-0000-58.png,0005-00-0001-73.png
00000014,417,1,1450284861167,1450284861763,913,502,0,0,0,4,0,4,4,0001-00-0000-95.png,0005-00-0001-95.png
00000014,418,0,1450284863422,1450284863959,896,472,0,0,0,3,4,1,7,0002-00-0001-80.png,0001-00-0001-79.png
00000014,419,1,1450284867014,1450284867485,440,443,0,0,0,0,2,2,2,0005-00-0000-21.png,0003-00-0000-57.png
00000014,420,1,1450284868396,1450284868887,427,410,0,0,0,1,4,3,5,0004-00-0001-72.png,0001-00-0000-09.png
00000014,421,0,1450284869966,1450284870475,875,469,0,0,0,2,3,1,5,0003-00-0001-64.png,0002-00-0001-11.png
00000014,422,1,1450284873815,1450284874278,939,450,0,0,0,4,0,4,4,0001-00-0000-89.png,0005-00-0000-84.png
00000014,423,0,1450284875252,1450284875800,900,464,0,0,0,1,3,2,4,0004-00-0000-37.png,0002-00-0000-94.png
00000014,424,1,1450284878761,1450284879293,976,491,0,0,0,4,1,3,5,0001-00-0000-62.png,0004-00-0001-26.png
00000014,425,1,1450284880257,1450284880802,470,530,0,0,0,1,4,3,5,0004-00-0001-59.png,0001-00-0001-70.png
00000014,426,1,1450284881967,1450284882415,410,562,0,0,0,0,1,1,1,0005-00-0000-88.png,0004-00-0000-75.png
00000014,427,1,1450284883502,1450284883895,350,476,0,0,0,0,3,3,3,0005-00-0000-47.png,0002-00-0001-13.png
00000014,428,1,1450284885112,1450284886183,896,498,0,0,0,2,1,1,3,0003-00-0000-86.png,0004-00-0000-72.png
00000014,429,0,1450284887289,1450284887689,414,485,0,0,0,4,2,2,6,0001-00-0000-06.png,0003-00-0001-49.png
00000014,430,1,1450284891450,1450284891844,947,471,0,0,0,3,1,2,4,0002-00-0000-68.png,0004-00-0000-70.png
00000014,431,1,1450284892834,1450284893268,905,454,0,0,0,2,0,2,2,0003-00-0000-26.png,0005-00-0000-72.png
00000014,432,0,1450284894323,1450284894738,387,477,0,0,0,3,0,3,3,0002-00-0000-33.png,0005-00-0000-90.png
00000014,433,1,1450284897851,1450284898247,440,449,0,0,0,0,2,2,2,0005-00-0000-83.png,0003-00-0000-82.png
00000014,434,1,1450284899245,1450284899836,389,423,0,0,0,0,4,4,4,0005-00-0000-36.png,0001-00-0001-68.png
00000014,435,0,1450284901041,1450284901445,433,490,0,0,0,3,2,1,5,0002-00-0001-11.png,0003-00-0000-04.png
00000014,436,1,1450284905140,1450284905584,953,493,0,0,0,1,0,1,1,0004-00-0001-93.png,0005-00-0001-41.png
00000014,437,0,1450284906576,1450284907056,411,458,0,0,0,4,3,1,7,0001-00-0000-03.png,0002-00-0000-23.png
00000014,438,1,1450284910785,1450284911299,390,413,0,0,0,1,2,1,3,0004-00-0001-71.png,0003-00-0000-19.png
00000014,439,0,1450284912226,1450284912732,863,527,0,0,0,3,4,1,7,0002-00-0000-05.png,0001-00-0001-15.png
00000014,440,0,1450284915852,1450284916295,963,472,0,0,0,2,4,2,6,0003-00-0000-26.png,0001-00-0001-24.png
00000014,441,1,1450284919172,1450284919180,521,416,0,0,0,0,1,1,1,0005-00-0001-59.png,0004-00-0001-23.png
00000014,442,1,1450284920168,1450284920716,873,535,0,0,0,3,0,3,3,0002-00-0001-99.png,0005-00-0000-43.png
00000014,443,0,1450284921755,1450284922163,358,484,0,0,0,4,3,1,7,0001-00-0000-03.png,0002-00-0000-35.png
00000014,444,1,1450284925043,1450284925091,504,462,0,0,0,2,3,1,5,0003-00-0000-58.png,0002-00-0001-64.png
00000014,445,1,1450284926137,1450284926573,427,488,0,0,0,1,4,3,5,0004-00-0000-93.png,0001-00-0000-22.png
00000014,446,1,1450284927689,1450284928228,899,463,0,0,0,3,2,1,5,0002-00-0001-08.png,0003-00-0000-86.png
00000014,447,1,1450284929280,1450284929752,365,466,0,0,0,0,3,3,3,0005-00-0000-42.png,0002-00-0000-84.png
00000014,448,0,1450284930830,1450284931298,377,468,0,0,0,4,2,2,6,0001-00-0001-69.png,0003-00-0000-67.png
00000014,449,0,1450284934349,1450284934822,903,544,0,0,0,3,4,1,7,0002-00-0001-89.png,0001-00-0000-44.png
00000014,450,1,1450284937677,1450284938222,425,541,0,0,0,1,3,2,4,0004-00-0000-83.png,0002-00-0000-06.png
00000014,451,1,1450284939237,1450284940270,975,483,0,0,0,3,1,2,4,0002-00-0000-03.png,0004-00-0001-33.png
00000014,452,1,1450284941313,1450284941725,382,488,0,0,0,1,2,1,3,0004-00-0000-26.png,0003-00-0001-11.png
00000014,453,1,1450284942837,1450284943320,397,473,0,0,0,2,4,2,6,0003-00-0000-75.png,0001-00-0001-13.png
00000014,454,0,1450284944446,1450284944474,515,488,0,0,0,2,1,1,3,0003-00-0001-22.png,0004-00-0001-64.png
00000014,455,1,1450284948671,1450284949083,401,462,0,0,0,0,2,2,2,0005-00-0001-92.png,0003-00-0001-75.png
00000014,456,1,1450284950116,1450284950531,392,476,0,0,0,0,4,4,4,0005-00-0001-85.png,0001-00-0001-47.png
00000014,457,1,1450284951589,1450284952231,892,469,0,0,0,4,1,3,5,0001-00-0000-84.png,0004-00-0001-43.png
00000014,458,1,1450284953273,1450284953797,892,463,0,0,0,2,0,2,2,0003-00-0000-97.png,0005-00-0001-69.png
00000014,459,1,1450284954973,1450284955457,874,553,0,0,0,4,0,4,4,0001-00-0000-20.png,0005-00-0000-75.png
00000014,460,1,1450284956663,1450284957624,913,462,0,0,0,1,0,1,1,0004-00-0001-97.png,0005-00-0000-70.png
00000014,461,1,1450284958707,1450284959219,895,467,0,0,0,4,2,2,6,0001-00-0000-66.png,0003-00-0000-46.png
00000014,462,1,1450284960405,1450284960799,386,497,0,0,0,0,2,2,2,0005-00-0000-61.png,0003-00-0000-83.png
00000014,463,1,1450284961831,1450284962238,390,462,0,0,0,1,2,1,3,0004-00-0001-71.png,0003-00-0000-71.png
00000014,464,1,1450284963415,1450284963966,476,414,0,0,0,2,3,1,5,0003-00-0000-04.png,0002-00-0001-26.png
00000014,465,1,1450284965046,1450284965573,879,453,0,0,0,3,2,1,5,0002-00-0001-05.png,0003-00-0000-93.png
00000014,466,1,1450284966727,1450284967174,396,487,0,0,0,0,4,4,4,0005-00-0001-77.png,0001-00-0001-91.png
00000014,467,1,1450284968293,1450284968818,899,483,0,0,0,2,0,2,2,0003-00-0001-85.png,0005-00-0000-06.png
00000014,468,0,1450284969934,1450284970384,394,473,0,0,0,1,0,1,1,0004-00-0001-77.png,0005-00-0000-81.png
00000014,469,1,1450284974099,1450284974505,875,449,0,0,0,4,1,3,5,0001-00-0001-61.png,0004-00-0001-20.png
00000014,470,0,1450284975520,1450284975992,878,443,0,0,0,2,4,2,6,0003-00-0000-86.png,0001-00-0000-29.png
00000014,471,0,1450284978966,1450284979401,950,465,0,0,0,1,4,3,5,0004-00-0000-15.png,0001-00-0001-31.png
00000014,472,0,1450284982784,1450284983228,965,475,0,0,0,0,3,3,3,0005-00-0000-50.png,0002-00-0000-89.png
00000014,473,0,1450284986224,1450284986268,517,407,0,0,0,3,0,3,3,0002-00-0000-64.png,0005-00-0000-05.png
00000014,474,0,1450284989453,1450284989885,924,509,0,0,0,3,4,1,7,0002-00-0001-93.png,0001-00-0001-65.png
00000014,475,1,1450284992802,1450284993226,975,431,0,0,0,4,3,1,7,0001-00-0000-87.png,0002-00-0000-53.png
00000014,476,1,1450284994243,1450284994786,377,441,0,0,0,1,3,2,4,0004-00-0001-12.png,0002-00-0001-53.png
00000014,477,1,1450284995944,1450284996381,376,474,0,0,0,0,1,1,1,0005-00-0001-65.png,0004-00-0001-70.png
00000014,478,1,1450284997526,1450284998041,902,474,0,0,0,4,0,4,4,0001-00-0000-43.png,0005-00-0001-64.png
00000014,479,1,1450284999694,1450285000283,901,487,0,0,0,3,1,2,4,0002-00-0001-34.png,0004-00-0000-74.png
00000014,480,1,1450285001377,1450285001864,900,462,0,0,0,2,1,1,3,0003-00-0000-11.png,0004-00-0000-98.png
00000014,481,1,1450285003001,1450285003930,409,419,0,0,0,2,4,2,6,0003-00-0000-96.png,0001-00-0001-13.png
00000014,482,0,1450285005016,1450285005513,873,474,0,0,0,1,3,2,4,0004-00-0000-63.png,0002-00-0000-16.png
00000014,483,1,1450285008553,1450285008981,975,431,0,0,0,3,2,1,5,0002-00-0000-61.png,0003-00-0000-93.png
00000014,484,0,1450285009973,1450285010523,886,450,0,0,0,2,3,1,5,0003-00-0000-91.png,0002-00-0000-48.png
00000014,485,1,1450285013819,1450285014231,901,529,0,0,0,4,1,3,5,0001-00-0000-15.png,0004-00-0001-99.png
00000014,486,1,1450285015196,1450285015702,879,428,0,0,0,4,0,4,4,0001-00-0001-27.png,0005-00-0001-22.png
00000014,487,1,1450285016714,1450285017137,421,469,0,0,0,0,1,1,1,0005-00-0000-32.png,0004-00-0000-41.png
00000014,488,1,1450285018377,1450285018895,905,480,0,0,0,3,1,2,4,0002-00-0001-20.png,0004-00-0000-64.png
00000014,489,1,1450285019977,1450285020401,370,462,0,0,0,1,2,1,3,0004-00-0001-45.png,0003-00-0000-59.png
00000014,490,1,1450285021469,1450285021948,880,469,0,0,0,2,0,2,2,0003-00-0000-83.png,0005-00-0000-18.png
00000014,491,0,1450285022941,1450285023440,875,469,0,0,0,1,4,3,5,0004-00-0001-73.png,0001-00-0001-24.png
00000014,492,1,1450285026388,1450285026826,903,545,0,0,0,3,0,3,3,0002-00-0001-64.png,0005-00-0001-14.png
00000014,493,1,1450285027849,1450285028383,873,542,0,0,0,2,1,1,3,0003-00-0000-31.png,0004-00-0001-14.png
00000014,494,1,1450285029470,1450285029554,514,562,0,0,0,0,2,2,2,0005-00-0000-28.png,0003-00-0000-64.png
00000014,495,1,1450285030772,1450285031161,424,463,0,0,0,0,4,4,4,0005-00-0000-38.png,0001-00-0001-48.png
00000014,496,1,1450285032314,1450285032814,875,555,0,0,0,4,3,1,7,0001-00-0001-54.png,0002-00-0000-33.png
00000014,497,0,1450285033961,1450285034057,503,554,0,0,0,4,2,2,6,0001-00-0001-04.png,0003-00-0000-75.png
00000014,498,1,1450285037539,1450285037985,951,464,0,0,0,1,0,1,1,0004-00-0001-40.png,0005-00-0000-77.png
00000014,499,0,1450285039076,1450285039604,905,454,0,0,0,3,4,1,7,0002-00-0001-16.png,0001-00-0000-06.png
00000014,500,1,1450285045004,1450285045438,342,401,0,0,0,0,3,3,3,0005-00-0000-87.png,0002-00-0000-12.png
00000014,501,0,1450285046434,1450285046965,878,467,0,0,0,1,2,1,3,0004-00-0000-49.png,0003-00-0001-72.png
00000014,502,1,1450285052299,1450285052867,883,544,0,0,0,4,2,2,6,0001-00-0001-33.png,0003-00-0001-20.png
00000014,503,0,1450285053949,1450285054442,921,446,0,0,0,3,4,1,7,0002-00-0001-52.png,0001-00-0000-84.png
00000014,504,1,1450285057873,1450285058357,963,474,0,0,0,4,3,1,7,0001-00-0001-86.png,0002-00-0000-30.png
00000014,505,1,1450285059343,1450285059801,405,462,0,0,0,1,3,2,4,0004-00-0000-18.png,0002-00-0001-76.png
00000014,506,1,1450285060988,1450285061640,939,488,0,0,0,3,0,3,3,0002-00-0001-20.png,0005-00-0000-28.png
00000014,507,1,1450285062693,1450285063207,878,441,0,0,0,3,2,1,5,0002-00-0001-59.png,0003-00-0001-59.png
00000014,508,1,1450285064504,1450285064935,334,455,0,0,0,0,2,2,2,0005-00-0000-24.png,0003-00-0000-61.png
00000014,509,1,1450285066105,1450285066558,376,496,0,0,0,0,4,4,4,0005-00-0001-83.png,0001-00-0001-97.png
00000014,510,1,1450285067732,1450285068272,875,490,0,0,0,2,0,2,2,0003-00-0001-88.png,0005-00-0001-95.png
00000014,511,1,1450285069403,1450285069944,901,461,0,0,0,4,0,4,4,0001-00-0001-57.png,0005-00-0000-85.png
00000014,512,1,1450285071169,1450285071691,877,515,0,0,0,2,1,1,3,0003-00-0000-38.png,0004-00-0000-43.png
00000014,513,1,1450285072912,1450285073331,369,498,0,0,0,2,3,1,5,0003-00-0001-19.png,0002-00-0000-77.png
00000014,514,1,1450285074482,1450285074927,363,476,0,0,0,1,4,3,5,0004-00-0000-72.png,0001-00-0001-58.png
00000014,515,1,1450285076142,1450285076543,427,462,0,0,0,0,3,3,3,0005-00-0001-29.png,0002-00-0000-44.png
00000014,516,0,1450285077801,1450285078394,873,500,0,0,0,2,4,2,6,0003-00-0000-89.png,0001-00-0001-90.png
00000014,517,1,1450285081669,1450285082067,862,410,0,0,0,4,1,3,5,0001-00-0000-28.png,0004-00-0000-01.png
00000014,518,1,1450285083126,1450285083638,899,464,0,0,0,3,1,2,4,0002-00-0001-79.png,0004-00-0001-84.png
00000014,519,1,1450285084771,1450285085203,367,481,0,0,0,0,1,1,1,0005-00-0000-10.png,0004-00-0001-17.png
00000014,520,0,1450285086311,1450285086804,360,482,0,0,0,1,0,1,1,0004-00-0000-11.png,0005-00-0000-84.png
00000014,521,1,1450285089826,1450285090337,392,429,0,0,0,1,4,3,5,0004-00-0000-99.png,0001-00-0001-62.png
00000014,522,0,1450285091366,1450285091798,395,531,0,0,0,3,1,2,4,0002-00-0000-33.png,0004-00-0000-41.png
00000014,523,0,1450285094847,1450285095317,963,477,0,0,0,2,4,2,6,0003-00-0001-70.png,0001-00-0001-18.png
00000014,524,1,1450285098450,1450285099029,453,424,0,0,0,0,2,2,2,0005-00-0001-13.png,0003-00-0001-62.png
00000014,525,1,1450285100105,1450285100525,427,462,0,0,0,1,3,2,4,0004-00-0000-11.png,0002-00-0001-69.png
00000014,526,1,1450285101696,1450285102230,887,450,0,0,0,4,2,2,6,0001-00-0001-35.png,0003-00-0001-47.png
00000014,527,1,1450285103572,1450285104058,360,424,0,0,0,1,2,1,3,0004-00-0000-35.png,0003-00-0000-24.png
00000014,528,1,1450285105170,1450285105624,413,472,0,0,0,3,4,1,7,0002-00-0000-25.png,0001-00-0001-18.png
00000014,529,1,1450285106882,1450285107405,900,463,0,0,0,2,1,1,3,0003-00-0000-20.png,0004-00-0001-97.png
00000014,530,1,1450285108524,1450285109009,896,472,0,0,0,3,0,3,3,0002-00-0000-49.png,0005-00-0000-91.png
00000014,531,0,1450285110172,1450285110637,876,460,0,0,0,2,3,1,5,0003-00-0000-67.png,0002-00-0000-51.png
00000014,532,1,1450285114329,1450285114791,899,542,0,0,0,3,2,1,5,0002-00-0001-13.png,0003-00-0001-97.png
00000014,533,1,1450285115796,1450285116281,899,474,0,0,0,4,1,3,5,0001-00-0000-28.png,0004-00-0001-45.png
00000014,534,1,1450285117369,1450285117771,364,475,0,0,0,0,3,3,3,0005-00-0000-35.png,0002-00-0001-85.png
00000014,535,1,1450285118970,1450285119474,875,554,0,0,0,2,0,2,2,0003-00-0000-26.png,0005-00-0000-52.png
00000014,536,1,1450285120570,1450285120634,504,535,0,0,0,0,1,1,1,0005-00-0001-38.png,0004-00-0001-53.png
00000014,537,0,1450285121918,1450285121946,522,489,0,0,0,4,3,1,7,0001-00-0001-79.png,0002-00-0000-28.png
00000014,538,1,1450285125300,1450285125789,407,359,0,0,0,0,4,4,4,0005-00-0001-88.png,0001-00-0001-01.png
00000014,539,1,1450285126812,1450285127350,860,554,0,0,0,4,0,4,4,0001-00-0000-90.png,0005-00-0000-59.png
00000014,540,0,1450285128471,1450285129007,380,512,0,0,0,1,0,1,1,0004-00-0000-43.png,0005-00-0000-51.png
00000014,541,1,1450285132011,1450285132482,446,436,0,0,0,3,4,1,7,0002-00-0001-70.png,0001-00-0000-81.png
00000014,542,1,1450285133571,1450285134042,865,546,0,0,0,4,0,4,4,0001-00-0001-50.png,0005-00-0001-65.png
00000014,543,1,1450285135141,1450285135653,901,462,0,0,0,3,2,1,5,0002-00-0001-32.png,0003-00-0001-97.png
00000014,544,1,1450285136762,1450285137252,901,468,0,0,0,2,0,2,2,0003-00-0001-56.png,0005-00-0001-69.png
00000014,545,0,1450285138625,1450285139119,391,398,0,0,0,1,0,1,1,0004-00-0001-96.png,0005-00-0000-65.png
00000014,546,1,1450285142174,1450285142622,350,397,0,0,0,0,4,4,4,0005-00-0001-56.png,0001-00-0001-78.png
00000014,547,0,1450285143588,1450285143608,486,465,0,0,0,4,1,3,5,0001-00-0001-01.png,0004-00-0001-12.png
00000014,548,1,1450285146968,1450285147374,952,436,0,0,0,3,0,3,3,0002-00-0001-35.png,0005-00-0000-20.png
00000014,549,1,1450285148438,1450285148849,369,462,0,0,0,1,4,3,5,0004-00-0000-73.png,0001-00-0000-46.png
00000014,550,1,1450285150364,1450285150879,875,534,0,0,0,4,3,1,7,0001-00-0001-50.png,0002-00-0001-86.png
00000014,551,1,1450285152047,1450285152504,880,453,0,0,0,3,1,2,4,0002-00-0001-37.png,0004-00-0000-79.png
00000014,552,1,1450285153700,1450285154075,444,505,0,0,0,0,1,1,1,0005-00-0000-15.png,0004-00-0000-01.png
00000014,553,0,1450285155618,1450285156061,898,458,0,0,0,2,4,2,6,0003-00-0001-88.png,0001-00-0000-22.png
00000014,554,1,1450285159135,1450285159578,951,397,0,0,0,2,1,1,3,0003-00-0000-69.png,0004-00-0001-62.png
00000014,555,1,1450285160676,1450285161198,905,453,0,0,0,4,2,2,6,0001-00-0000-09.png,0003-00-0000-15.png
00000014,556,1,1450285162226,1450285162702,411,454,0,0,0,0,3,3,3,0005-00-0000-10.png,0002-00-0000-97.png
00000014,557,1,1450285163855,1450285164267,427,462,0,0,0,1,3,2,4,0004-00-0000-69.png,0002-00-0000-44.png
00000014,558,1,1450285165425,1450285166363,395,460,0,0,0,2,3,1,5,0003-00-0001-20.png,0002-00-0000-95.png
00000014,559,1,1450285167601,1450285168044,401,455,0,0,0,1,2,1,3,0004-00-0001-29.png,0003-00-0000-91.png
00000014,560,1,1450285169255,1450285169717,401,436,0,0,0,0,2,2,2,0005-00-0000-34.png,0003-00-0000-41.png
00000014,561,1,1450285170882,1450285171403,900,462,0,0,0,3,1,2,4,0002-00-0001-43.png,0004-00-0000-53.png
00000014,562,1,1450285172455,1450285172981,438,450,0,0,0,3,4,1,7,0002-00-0000-77.png,0001-00-0001-80.png
00000014,563,1,1450285174195,1450285174684,896,473,0,0,0,1,0,1,1,0004-00-0000-62.png,0005-00-0001-03.png
00000014,564,1,1450285175796,1450285176200,421,514,0,0,0,0,3,3,3,0005-00-0001-10.png,0002-00-0001-38.png
00000014,565,1,1450285177369,1450285177742,401,473,0,0,0,1,4,3,5,0004-00-0000-64.png,0001-00-0000-58.png
00000014,566,1,1450285178937,1450285179363,478,462,0,0,0,1,2,1,3,0004-00-0001-71.png,0003-00-0000-93.png
00000014,567,1,1450285180508,1450285180994,879,454,0,0,0,4,3,1,7,0001-00-0000-39.png,0002-00-0000-98.png
00000014,568,1,1450285182228,1450285182687,491,565,0,0,0,2,4,2,6,0003-00-0001-43.png,0001-00-0000-29.png
00000014,569,1,1450285183900,1450285184402,897,472,0,0,0,3,0,3,3,0002-00-0000-80.png,0005-00-0000-51.png
00000014,570,0,1450285185644,1450285186246,920,493,0,0,0,0,4,4,4,0005-00-0000-43.png,0001-00-0000-53.png
00000014,571,0,1450285189254,1450285189770,427,387,0,0,0,4,2,2,6,0001-00-0001-06.png,0003-00-0000-53.png
00000014,572,1,1450285193163,1450285193616,972,497,0,0,0,3,2,1,5,0002-00-0000-91.png,0003-00-0000-89.png
00000014,573,1,1450285194691,1450285195107,361,469,0,0,0,0,2,2,2,0005-00-0001-00.png,0003-00-0000-58.png
00000014,574,0,1450285196312,1450285196364,503,495,0,0,0,2,0,2,2,0003-00-0000-99.png,0005-00-0000-68.png
00000014,575,0,1450285199412,1450285199949,946,477,0,0,0,0,1,1,1,0005-00-0000-33.png,0004-00-0000-71.png
00000014,576,0,1450285203069,1450285203535,984,444,0,0,0,2,3,1,5,0003-00-0000-17.png,0002-00-0001-41.png
00000014,577,1,1450285208259,1450285208743,966,490,0,0,0,4,0,4,4,0001-00-0000-72.png,0005-00-0000-73.png
00000014,578,1,1450285209937,1450285210650,913,500,0,0,0,4,1,3,5,0001-00-0000-87.png,0004-00-0000-27.png
00000014,579,1,1450285211689,1450285212199,858,527,0,0,0,2,1,1,3,0003-00-0001-87.png,0004-00-0000-58.png
00000014,580,1,1450285213818,1450285214256,421,531,0,0,0,1,3,2,4,0004-00-0001-53.png,0002-00-0000-34.png
00000014,581,0,1450285215413,1450285215928,879,480,0,0,0,1,4,3,5,0004-00-0001-33.png,0001-00-0000-41.png
00000014,582,0,1450285219031,1450285219496,944,465,0,0,0,2,3,1,5,0003-00-0001-07.png,0002-00-0001-01.png
00000014,583,1,1450285222400,1450285222416,504,348,0,0,0,1,2,1,3,0004-00-0000-58.png,0003-00-0000-67.png
00000014,584,0,1450285223449,1450285223979,873,536,0,0,0,3,4,1,7,0002-00-0001-39.png,0001-00-0000-72.png
00000014,585,0,1450285227048,1450285227574,398,393,0,0,0,3,2,1,5,0002-00-0000-79.png,0003-00-0001-77.png
00000014,586,1,1450285230548,1450285230957,922,472,0,0,0,2,0,2,2,0003-00-0001-16.png,0005-00-0000-03.png
00000014,587,1,1450285231931,1450285232525,890,532,0,0,0,4,2,2,6,0001-00-0000-47.png,0003-00-0000-44.png
00000014,588,1,1450285233520,1450285234082,879,452,0,0,0,4,1,3,5,0001-00-0001-78.png,0004-00-0000-35.png
00000014,589,1,1450285235128,1450285235539,350,461,0,0,0,0,2,2,2,0005-00-0001-25.png,0003-00-0001-38.png
00000014,590,0,1450285236622,1450285237137,875,449,0,0,0,2,4,2,6,0003-00-0001-62.png,0001-00-0000-34.png
00000014,591,0,1450285240237,1450285240676,909,525,0,0,0,1,3,2,4,0004-00-0001-56.png,0002-00-0000-16.png
00000014,592,0,1450285243858,1450285244278,926,436,0,0,0,0,1,1,1,0005-00-0001-36.png,0004-00-0001-03.png
00000014,593,1,1450285247422,1450285247841,938,502,0,0,0,2,1,1,3,0003-00-0000-28.png,0004-00-0000-67.png
00000014,594,1,1450285248887,1450285249334,902,450,0,0,0,1,0,1,1,0004-00-0001-81.png,0005-00-0000-83.png
00000014,595,1,1450285250448,1450285250520,506,561,0,0,0,0,3,3,3,0005-00-0000-15.png,0002-00-0001-94.png
00000014,596,1,1450285251667,1450285252124,895,473,0,0,0,3,0,3,3,0002-00-0000-36.png,0005-00-0000-38.png
00000014,597,1,1450285253189,1450285253674,886,451,0,0,0,4,0,4,4,0001-00-0000-34.png,0005-00-0001-93.png
00000014,598,0,1450285254893,1450285255862,478,462,0,0,0,4,3,1,7,0001-00-0000-82.png,0002-00-0001-03.png
00000014,599,1,1450285258708,1450285258724,512,443,0,0,0,0,4,4,4,0005-00-0001-82.png,0001-00-0000-94.png
00000014,600,1,1450285259842,1450285260331,903,470,0,0,0,3,1,2,4,0002-00-0001-39.png,0004-00-0000-78.png
00000014,601,1,1450285261492,1450285261945,900,462,0,0,0,4,1,3,5,0001-00-0001-34.png,0004-00-0000-21.png
00000014,602,0,1450285263061,1450285263575,870,472,0,0,0,2,4,2,6,0003-00-0000-13.png,0001-00-0000-46.png
00000014,603,0,1450285266479,1450285267061,898,535,0,0,0,0,1,1,1,0005-00-0001-25.png,0004-00-0000-42.png
00000014,604,1,1450285270078,1450285270536,925,528,0,0,0,4,3,1,7,0001-00-0001-79.png,0002-00-0001-58.png
00000014,605,1,1450285271528,1450285272103,381,415,0,0,0,1,2,1,3,0004-00-0001-38.png,0003-00-0000-38.png
00000014,606,1,1450285273219,1450285273612,453,477,0,0,0,0,3,3,3,0005-00-0001-48.png,0002-00-0001-40.png
00000014,607,1,1450285274734,1450285275219,894,457,0,0,0,2,1,1,3,0003-00-0001-81.png,0004-00-0001-86.png
00000014,608,1,1450285276405,1450285276933,906,464,0,0,0,3,0,3,3,0002-00-0001-74.png,0005-00-0001-61.png
00000014,609,1,1450285278014,1450285278511,435,457,0,0,0,2,3,1,5,0003-00-0001-59.png,0002-00-0001-75.png
00000014,610,1,1450285279661,1450285280081,453,514,0,0,0,3,4,1,7,0002-00-0000-36.png,0001-00-0000-36.png
00000014,611,1,1450285281246,1450285281662,427,475,0,0,0,1,3,2,4,0004-00-0001-21.png,0002-00-0001-46.png
00000014,612,1,1450285282819,1450285283302,875,476,0,0,0,2,0,2,2,0003-00-0001-32.png,0005-00-0001-39.png
00000014,613,1,1450285284519,1450285284935,386,462,0,0,0,0,2,2,2,0005-00-0001-82.png,0003-00-0001-82.png
00000014,614,1,1450285286047,1450285286646,365,406,0,0,0,0,4,4,4,0005-00-0001-16.png,0001-00-0000-67.png
00000014,615,0,1450285287804,1450285288177,427,502,0,0,0,4,0,4,4,0001-00-0001-05.png,0005-00-0001-62.png
00000014,616,1,1450285291329,1450285291774,952,501,0,0,0,3,2,1,5,0002-00-0000-12.png,0003-00-0000-07.png
00000014,617,1,1450285292788,1450285293321,905,453,0,0,0,3,1,2,4,0002-00-0001-97.png,0004-00-0001-20.png
00000014,618,1,1450285294559,1450285295071,418,441,0,0,0,1,4,3,5,0004-00-0000-78.png,0001-00-0001-72.png
00000014,619,0,1450285296154,1450285296540,380,464,0,0,0,4,2,2,6,0001-00-0001-97.png,0003-00-0001-57.png
00000014,620,0,1450285299477,1450285299970,343,427,0,0,0,1,0,1,1,0004-00-0000-09.png,0005-00-0001-62.png
00000014,621,0,1450285302915,1450285303391,925,501,0,0,0,2,4,2,6,0003-00-0000-07.png,0001-00-0001-95.png
00000014,622,1,1450285306572,1450285307054,364,424,0,0,0,0,2,2,2,0005-00-0001-99.png,0003-00-0001-75.png
00000014,623,1,1450285308113,1450285308557,379,503,0,0,0,0,3,3,3,0005-00-0000-72.png,0002-00-0000-67.png
00000014,624,1,1450285309644,1450285310120,894,431,0,0,0,3,2,1,5,0002-00-0001-59.png,0003-00-0000-29.png
00000014,625,0,1450285311342,1450285311859,375,411,0,0,0,4,2,2,6,0001-00-0000-17.png,0003-00-0001-75.png
00000014,626,1,1450285314900,1450285315273,899,527,0,0,0,4,0,4,4,0001-00-0001-60.png,0005-00-0000-00.png
00000014,627,1,1450285316254,1450285316718,395,424,0,0,0,1,3,2,4,0004-00-0001-75.png,0002-00-0001-99.png
00000014,628,0,1450285317764,1450285318216,453,488,0,0,0,4,3,1,7,0001-00-0000-40.png,0002-00-0000-37.png
00000014,629,1,1450285321241,1450285321677,926,507,0,0,0,1,0,1,1,0004-00-0000-23.png,0005-00-0000-06.png
00000014,630,0,1450285322695,1450285323222,901,449,0,0,0,2,3,1,5,0003-00-0000-27.png,0002-00-0001-94.png
00000014,631,0,1450285326076,1450285326100,507,400,0,0,0,3,0,3,3,0002-00-0001-91.png,0005-00-0000-30.png
00000014,632,1,1450285329193,1450285329708,913,486,0,0,0,3,1,2,4,0002-00-0001-83.png,0004-00-0000-51.png
00000014,633,1,1450285330743,1450285331266,362,444,0,0,0,1,2,1,3,0004-00-0000-02.png,0003-00-0001-20.png
00000014,634,1,1450285332345,1450285332818,900,449,0,0,0,2,0,2,2,0003-00-0001-05.png,0005-00-0000-97.png
00000014,635,0,1450285333875,1450285334346,904,453,0,0,0,3,4,1,7,0002-00-0001-73.png,0001-00-0001-79.png
00000014,636,1,1450285337224,1450285337252,479,421,0,0,0,1,4,3,5,0004-00-0000-46.png,0001-00-0000-65.png
00000014,637,1,1450285338258,1450285338784,920,455,0,0,0,4,1,3,5,0001-00-0001-62.png,0004-00-0000-89.png
00000014,638,1,1450285339872,1450285340284,442,468,0,0,0,0,1,1,1,0005-00-0000-28.png,0004-00-0000-61.png
00000014,639,1,1450285341413,1450285341821,356,464,0,0,0,0,4,4,4,0005-00-0001-07.png,0001-00-0001-13.png
00000014,640,0,1450285342922,1450285343457,425,428,0,0,0,2,1,1,3,0003-00-0000-84.png,0004-00-0001-61.png
00000014,641,0,1450285346661,1450285347115,963,448,0,0,0,1,4,3,5,0004-00-0000-07.png,0001-00-0001-22.png
00000014,642,0,1450285354122,1450285354515,898,536,0,0,0,0,4,4,4,0005-00-0001-86.png,0001-00-0000-00.png
00000014,643,0,1450285357575,1450285358082,888,502,0,0,0,2,4,2,6,0003-00-0001-69.png,0001-00-0000-42.png
00000014,644,0,1450285361135,1450285361163,491,507,0,0,0,2,0,2,2,0003-00-0000-41.png,0005-00-0001-50.png
00000014,645,1,1450285364217,1450285364660,913,476,0,0,0,4,0,4,4,0001-00-0001-70.png,0005-00-0001-70.png
00000014,646,1,1450285365598,1450285366107,875,539,0,0,0,1,0,1,1,0004-00-0000-77.png,0005-00-0000-85.png
00000014,647,0,1450285367107,1450285367641,869,524,0,0,0,2,3,1,5,0003-00-0001-51.png,0002-00-0000-95.png
00000014,648,0,1450285370565,1450285371124,941,422,0,0,0,1,3,2,4,0004-00-0001-48.png,0002-00-0000-61.png
00000014,649,0,1450285375792,1450285376199,982,454,0,0,0,0,1,1,1,0005-00-0001-34.png,0004-00-0001-29.png
00000014,650,0,1450285381648,1450285382115,939,475,0,0,0,0,3,3,3,0005-00-0001-21.png,0002-00-0000-79.png
00000014,651,0,1450285385214,1450285385665,419,428,0,0,0,3,2,1,5,0002-00-0000-25.png,0003-00-0001-39.png
00000014,652,1,1450285388532,1450285389010,939,502,0,0,0,4,3,1,7,0001-00-0001-19.png,0002-00-0001-68.png
00000014,653,1,1450285389923,1450285390428,881,540,0,0,0,2,1,1,3,0003-00-0000-51.png,0004-00-0000-12.png
00000014,654,1,1450285391424,1450285391846,379,499,0,0,0,0,2,2,2,0005-00-0001-63.png,0003-00-0000-32.png
00000014,655,1,1450285392874,1450285393290,407,475,0,0,0,1,2,1,3,0004-00-0001-85.png,0003-00-0001-85.png
00000014,656,0,1450285394278,1450285394645,453,476,0,0,0,4,2,2,6,0001-00-0000-41.png,0003-00-0000-77.png
00000014,657,1,1450285401265,1450285401706,918,510,0,0,0,3,0,3,3,0002-00-0001-33.png,0005-00-0000-46.png
00000014,658,0,1450285402842,1450285403480,449,479,0,0,0,4,1,3,5,0001-00-0000-10.png,0004-00-0000-06.png
00000014,659,0,1450285407958,1450285408413,905,532,0,0,0,3,4,1,7,0002-00-0001-60.png,0001-00-0000-34.png
00000014,660,1,1450285411255,1450285411709,985,420,0,0,0,3,1,2,4,0002-00-0000-82.png,0004-00-0001-37.png
00000014,661,1,1450285412679,1450285413089,465,476,0,0,0,0,2,2,2,0005-00-0000-45.png,0003-00-0000-14.png
00000014,662,1,1450285414201,1450285414610,444,506,0,0,0,0,1,1,1,0005-00-0000-79.png,0004-00-0000-68.png
00000014,663,0,1450285415543,1450285415998,375,481,0,0,0,1,0,1,1,0004-00-0001-34.png,0005-00-0001-67.png
00000014,664,0,1450285418850,1450285419276,950,405,0,0,0,2,3,1,5,0003-00-0001-72.png,0002-00-0001-35.png
00000014,665,0,1450285422688,1450285423173,412,418,0,0,0,3,2,1,5,0002-00-0000-21.png,0003-00-0001-84.png
00000014,666,1,1450285426374,1450285426826,958,447,0,0,0,2,0,2,2,0003-00-0001-13.png,0005-00-0000-08.png
00000014,667,1,1450285427856,1450285428346,922,445,0,0,0,4,3,1,7,0001-00-0000-61.png,0002-00-0001-95.png
00000014,668,0,1450285429844,1450285430334,427,474,0,0,0,3,0,3,3,0002-00-0001-47.png,0005-00-0001-55.png
00000014,669,1,1450285434167,1450285434638,374,403,0,0,0,0,4,4,4,0005-00-0001-99.png,0001-00-0001-55.png
00000014,670,0,1450285435710,1450285436173,875,435,0,0,0,1,2,1,3,0004-00-0001-56.png,0003-00-0001-66.png
00000014,671,1,1450285439166,1450285439584,950,406,0,0,0,3,1,2,4,0002-00-0001-25.png,0004-00-0000-61.png
00000014,672,1,1450285440569,1450285441102,902,460,0,0,0,4,2,2,6,0001-00-0001-62.png,0003-00-0001-34.png
00000014,673,1,1450285442139,1450285442557,453,489,0,0,0,1,4,3,5,0004-00-0001-10.png,0001-00-0000-15.png
00000014,674,0,1450285443601,1450285444054,384,485,0,0,0,4,0,4,4,0001-00-0000-03.png,0005-00-0000-26.png
00000014,675,1,1450285451137,1450285451562,937,453,0,0,0,2,1,1,3,0003-00-0000-01.png,0004-00-0001-79.png
00000014,676,1,1450285452681,1450285453314,431,415,0,0,0,2,4,2,6,0003-00-0001-02.png,0001-00-0001-83.png
00000014,677,0,1450285454469,1450285454962,900,455,0,0,0,3,4,1,7,0002-00-0000-48.png,0001-00-0000-34.png
00000014,678,1,1450285459081,1450285459565,950,438,0,0,0,4,1,3,5,0001-00-0000-93.png,0004-00-0001-59.png
00000014,679,1,1450285460717,1450285461200,401,462,0,0,0,0,3,3,3,0005-00-0000-57.png,0002-00-0001-00.png
00000014,680,1,1450285462197,1450285462784,355,371,0,0,0,1,3,2,4,0004-00-0001-71.png,0002-00-0001-18.png
00000014,681,1,1450285464010,1450285465110,401,410,0,0,0,0,2,2,2,0005-00-0000-14.png,0003-00-0001-77.png
00000014,682,0,1450285466442,1450285466927,403,441,0,0,0,4,2,2,6,0001-00-0001-02.png,0003-00-0000-61.png
00000014,683,1,1450285470311,1450285470805,453,529,0,0,0,0,1,1,1,0005-00-0000-05.png,0004-00-0001-29.png
00000014,684,1,1450285472496,1450285472963,915,552,0,0,0,1,0,1,1,0004-00-0000-58.png,0005-00-0001-27.png
00000014,685,0,1450285474600,1450285475008,908,473,0,0,0,2,4,2,6,0003-00-0001-09.png,0001-00-0001-10.png
00000014,686,0,1450285479853,1450285480286,896,524,0,0,0,1,4,3,5,0004-00-0001-22.png,0001-00-0000-16.png
00000014,687,1,1450285483816,1450285484296,960,395,0,0,0,3,0,3,3,0002-00-0000-37.png,0005-00-0000-48.png
00000014,688,1,1450285485665,1450285486127,924,458,0,0,0,3,1,2,4,0002-00-0000-94.png,0004-00-0000-02.png
00000014,689,0,1450285487948,1450285488435,944,399,0,0,0,1,2,1,3,0004-00-0001-81.png,0003-00-0000-86.png
00000014,690,1,1450285492499,1450285493026,459,536,0,0,0,2,3,1,5,0003-00-0001-71.png,0002-00-0000-15.png
00000014,691,1,1450285496062,1450285496486,926,423,0,0,0,4,3,1,7,0001-00-0000-48.png,0002-00-0000-84.png
00000014,692,0,1450285497879,1450285498351,331,515,0,0,0,4,1,3,5,0001-00-0001-23.png,0004-00-0000-03.png
00000014,693,1,1450285501920,1450285502340,912,476,0,0,0,2,0,2,2,0003-00-0000-06.png,0005-00-0001-75.png
00000014,694,1,1450285503467,1450285503923,348,475,0,0,0,1,3,2,4,0004-00-0001-17.png,0002-00-0001-29.png
00000014,695,0,1450285505492,1450285505958,900,412,0,0,0,0,3,3,3,0005-00-0000-43.png,0002-00-0000-85.png
00000014,696,1,1450285508851,1450285509291,938,422,0,0,0,2,1,1,3,0003-00-0001-57.png,0004-00-0000-22.png
00000014,697,1,1450285510272,1450285510773,902,461,0,0,0,4,0,4,4,0001-00-0001-21.png,0005-00-0000-48.png
00000014,698,1,1450285511803,1450285512314,908,480,0,0,0,3,2,1,5,0002-00-0001-83.png,0003-00-0001-32.png
00000014,699,1,1450285513384,1450285513791,408,481,0,0,0,0,4,4,4,0005-00-0001-78.png,0001-00-0001-90.png
00000014,700,1,1450285514848,1450285515414,418,428,0,0,0,3,4,1,7,0002-00-0000-53.png,0001-00-0001-66.png
00000014,701,1,1450285516542,1450285517504,879,401,0,0,0,4,0,4,4,0001-00-0001-40.png,0005-00-0001-93.png
00000014,702,0,1450285518554,1450285519059,430,560,0,0,0,4,1,3,5,0001-00-0001-91.png,0004-00-0001-16.png
00000014,703,0,1450285522848,1450285523289,898,534,0,0,0,1,3,2,4,0004-00-0001-55.png,0002-00-0000-29.png
00000014,704,1,1450285527674,1450285528160,913,527,0,0,0,2,1,1,3,0003-00-0001-20.png,0004-00-0000-74.png
00000014,705,0,1450285529347,1450285530071,354,430,0,0,0,4,3,1,7,0001-00-0001-36.png,0002-00-0001-56.png
00000014,706,0,1450285533858,1450285534343,882,503,0,0,0,3,4,1,7,0002-00-0001-52.png,0001-00-0001-13.png
00000014,707,1,1450285539822,1450285540274,939,532,0,0,0,2,0,2,2,0003-00-0000-60.png,0005-00-0000-53.png
00000014,708,0,1450285541319,1450285541801,899,429,0,0,0,0,1,1,1,0005-00-0000-40.png,0004-00-0000-52.png
00000014,709,1,1450285553746,1450285554175,981,454,0,0,0,1,0,1,1,0004-00-0000-75.png,0005-00-0000-45.png
00000014,710,0,1450285555686,1450285556132,907,501,0,0,0,2,3,1,5,0003-00-0001-50.png,0002-00-0000-55.png
00000014,711,1,1450285559225,1450285559645,967,416,0,0,0,3,1,2,4,0002-00-0001-62.png,0004-00-0001-81.png
00000014,712,0,1450285560914,1450285561411,901,547,0,0,0,2,4,2,6,0003-00-0001-86.png,0001-00-0001-09.png
00000014,713,1,1450285566648,1450285567083,938,476,0,0,0,3,2,1,5,0002-00-0001-16.png,0003-00-0001-21.png
00000014,714,0,1450285568287,1450285568943,399,387,0,0,0,4,2,2,6,0001-00-0001-09.png,0003-00-0001-42.png
00000014,715,0,1450285572452,1450285572875,953,527,0,0,0,1,4,3,5,0004-00-0000-79.png,0001-00-0001-61.png
00000014,716,1,1450285575758,1450285576197,410,450,0,0,0,0,3,3,3,0005-00-0000-61.png,0002-00-0000-93.png
00000014,717,1,1450285577342,1450285577845,321,472,0,0,0,0,4,4,4,0005-00-0000-92.png,0001-00-0000-63.png
00000014,718,1,1450285579121,1450285579617,383,449,0,0,0,1,2,1,3,0004-00-0001-47.png,0003-00-0001-43.png
00000014,719,1,1450285580702,1450285581153,359,483,0,0,0,0,2,2,2,0005-00-0001-17.png,0003-00-0000-18.png
00000014,720,1,1450285582629,1450285583056,905,428,0,0,0,3,0,3,3,0002-00-0001-60.png,0005-00-0000-06.png
00000014,721,1,1450285584170,1450285584545,440,495,0,0,0,1,2,1,3,0004-00-0000-55.png,0003-00-0000-71.png
00000014,722,1,1450285585542,1450285586025,939,488,0,0,0,4,0,4,4,0001-00-0000-91.png,0005-00-0000-80.png
00000014,723,1,1450285587084,1450285587459,369,487,0,0,0,1,4,3,5,0004-00-0001-41.png,0001-00-0000-82.png
00000014,724,1,1450285588543,1450285588962,453,475,0,0,0,0,1,1,1,0005-00-0001-11.png,0004-00-0001-90.png
00000014,725,1,1450285590193,1450285590655,414,466,0,0,0,0,4,4,4,0005-00-0001-90.png,0001-00-0000-25.png
00000014,726,1,1450285591716,1450285592141,362,492,0,0,0,1,3,2,4,0004-00-0000-53.png,0002-00-0001-99.png
00000014,727,1,1450285593236,1450285593756,901,437,0,0,0,2,1,1,3,0003-00-0001-77.png,0004-00-0001-25.png
00000014,728,1,1450285594819,1450285595380,876,462,0,0,0,4,2,2,6,0001-00-0000-38.png,0003-00-0000-05.png
00000014,729,0,1450285596493,1450285597006,415,514,0,0,0,3,0,3,3,0002-00-0001-27.png,0005-00-0001-06.png
00000014,730,1,1450285601534,1450285601919,972,446,0,0,0,2,0,2,2,0003-00-0000-84.png,0005-00-0000-97.png
00000014,731,1,1450285602878,1450285603319,900,434,0,0,0,4,1,3,5,0001-00-0000-27.png,0004-00-0000-42.png
00000014,732,0,1450285604186,1450285604591,392,495,0,0,0,1,0,1,1,0004-00-0000-12.png,0005-00-0001-18.png
00000014,733,0,1450285610479,1450285610874,977,475,0,0,0,2,4,2,6,0003-00-0001-76.png,0001-00-0000-70.png
00000014,734,0,1450285614523,1450285614968,926,410,0,0,0,0,2,2,2,0005-00-0001-35.png,0003-00-0000-27.png
00000014,735,0,1450285618251,1450285618658,975,406,0,0,0,3,4,1,7,0002-00-0000-20.png,0001-00-0000-53.png
00000014,736,0,1450285621927,1450285622309,880,523,0,0,0,2,3,1,5,0003-00-0000-35.png,0002-00-0000-55.png
00000014,737,0,1450285625456,1450285625869,981,403,0,0,0,0,3,3,3,0005-00-0000-65.png,0002-00-0001-41.png
00000014,738,1,1450285628943,1450285629491,930,493,0,0,0,3,2,1,5,0002-00-0000-61.png,0003-00-0001-14.png
00000014,739,1,1450285630484,1450285630945,860,555,0,0,0,3,1,2,4,0002-00-0001-57.png,0004-00-0001-29.png
00000014,740,1,1450285632085,1450285632727,925,464,0,0,0,4,3,1,7,0001-00-0001-13.png,0002-00-0001-86.png
00000014,741,0,1450285633875,1450285634456,881,488,0,0,0,1,4,3,5,0004-00-0001-54.png,0001-00-0001-49.png
00000014,742,0,1450285639279,1450285640235,400,410,0,0,0,4,3,1,7,0001-00-0000-74.png,0002-00-0000-25.png
00000014,743,0,1450285649615,1450285650030,438,440,0,0,0,3,2,1,5,0002-00-0000-73.png,0003-00-0001-24.png
00000014,744,1,1450285655276,1450285655710,929,493,0,0,0,2,1,1,3,0003-00-0000-25.png,0004-00-0001-23.png
00000014,745,1,1450285656775,1450285657296,376,468,0,0,0,1,2,1,3,0004-00-0001-55.png,0003-00-0000-86.png
00000014,746,1,1450285658326,1450285658859,905,453,0,0,0,4,1,3,5,0001-00-0000-10.png,0004-00-0000-99.png
00000014,747,0,1450285659969,1450285660457,866,536,0,0,0,2,4,2,6,0003-00-0001-25.png,0001-00-0001-07.png
00000014,748,1,1450285669685,1450285670140,432,547,0,0,0,0,1,1,1,0005-00-0000-87.png,0004-00-0000-99.png
00000014,749,1,1450285671457,1450285671960,945,481,0,0,0,3,0,3,3,0002-00-0000-09.png,0005-00-0000-30.png
00000014,750,1,1450285673192,1450285673606,396,442,0,0,0,2,3,1,5,0003-00-0000-04.png,0002-00-0000-30.png
00000014,751,1,1450285674906,1450285675378,925,539,0,0,0,2,0,2,2,0003-00-0001-52.png,0005-00-0001-76.png
00000014,752,0,1450285676503,1450285676912,427,462,0,0,0,4,2,2,6,0001-00-0001-03.png,0003-00-0001-47.png
00000014,753,1,1450285680412,1450285680887,396,421,0,0,0,0,3,3,3,0005-00-0001-54.png,0002-00-0000-19.png
00000014,754,1,1450285682020,1450285682506,384,472,0,0,0,0,4,4,4,0005-00-0001-47.png,0001-00-0001-59.png
00000014,755,1,1450285683483,1450285683977,913,503,0,0,0,1,0,1,1,0004-00-0001-54.png,0005-00-0000-33.png
00000014,756,1,1450285684973,1450285685431,385,518,0,0,0,0,2,2,2,0005-00-0000-55.png,0003-00-0001-72.png
00000014,757,0,1450285686376,1450285686879,872,528,0,0,0,3,4,1,7,0002-00-0001-52.png,0001-00-0001-80.png
00000014,758,1,1450285692508,1450285693042,996,424,0,0,0,3,1,2,4,0002-00-0000-36.png,0004-00-0001-38.png
00000014,759,0,1450285694158,1450285694711,897,545,0,0,0,1,3,2,4,0004-00-0001-47.png,0002-00-0001-79.png
00000014,760,1,1450285699633,1450285700098,882,480,0,0,0,4,0,4,4,0001-00-0000-41.png,0005-00-0001-28.png
00000014,761,0,1450285701066,1450285701579,904,440,0,0,0,3,4,1,7,0002-00-0000-51.png,0001-00-0000-08.png
00000014,762,1,1450285707416,1450285708591,365,417,0,0,0,0,4,4,4,0005-00-0001-18.png,0001-00-0001-20.png
00000014,763,0,1450285709961,1450285710502,910,471,0,0,0,2,4,2,6,0003-00-0001-27.png,0001-00-0000-93.png
00000014,764,0,1450285731532,1450285732016,409,403,0,0,0,3,1,2,4,0002-00-0001-67.png,0004-00-0000-62.png
00000014,765,1,1450285739040,1450285739473,974,436,0,0,0,2,0,2,2,0003-00-0000-08.png,0005-00-0001-83.png
00000014,766,0,1450285740497,1450285741061,903,546,0,0,0,0,1,1,1,0005-00-0001-75.png,0004-00-0001-14.png
00000014,767,0,1450285744505,1450285744921,952,442,0,0,0,1,3,2,4,0004-00-0001-07.png,0002-00-0001-57.png
00000014,768,1,1450285758263,1450285758667,961,447,0,0,0,4,0,4,4,0001-00-0001-44.png,0005-00-0000-20.png
00000014,769,0,1450285759589,1450285760137,929,468,0,0,0,0,2,2,2,0005-00-0000-69.png,0003-00-0001-54.png
00000014,770,1,1450285766677,1450285767108,997,419,0,0,0,4,1,3,5,0001-00-0000-22.png,0004-00-0000-02.png
00000014,771,1,1450285768143,1450285768636,954,446,0,0,0,4,2,2,6,0001-00-0000-78.png,0003-00-0001-63.png
00000014,772,1,1450285769638,1450285770155,906,553,0,0,0,4,3,1,7,0001-00-0001-85.png,0002-00-0001-54.png
00000014,773,1,1450285771147,1450285771623,913,484,0,0,0,1,0,1,1,0004-00-0000-24.png,0005-00-0001-74.png
00000014,774,0,1450285772680,1450285773154,862,398,0,0,0,2,3,1,5,0003-00-0000-15.png,0002-00-0001-87.png
00000014,775,0,1450285779436,1450285779998,429,360,0,0,0,3,2,1,5,0002-00-0000-47.png,0003-00-0000-46.png
00000014,776,0,1450285783538,1450285783951,961,403,0,0,0,1,2,1,3,0004-00-0001-64.png,0003-00-0001-16.png
00000014,777,1,1450285789848,1450285790309,397,445,0,0,0,0,3,3,3,0005-00-0000-37.png,0002-00-0001-09.png
00000014,778,1,1450285791489,1450285792069,869,551,0,0,0,2,1,1,3,0003-00-0000-34.png,0004-00-0001-08.png
00000014,779,1,1450285793378,1450285793861,863,469,0,0,0,3,0,3,3,0002-00-0000-77.png,0005-00-0001-26.png
00000014,780,0,1450285794881,1450285795442,892,449,0,0,0,1,4,3,5,0004-00-0001-43.png,0001-00-0000-89.png
00000014,781,1,1450285800612,1450285801037,953,415,0,0,0,1,0,1,1,0004-00-0001-51.png,0005-00-0001-01.png
00000014,782,1,1450285802085,1450285802639,898,456,0,0,0,4,0,4,4,0001-00-0001-63.png,0005-00-0001-87.png
00000014,783,1,1450285803753,1450285804189,400,448,0,0,0,0,3,3,3,0005-00-0001-56.png,0002-00-0000-74.png
00000014,784,0,1450285805333,1450285806296,498,531,0,0,0,3,2,1,5,0002-00-0000-40.png,0003-00-0000-30.png
00000014,785,0,1450285812492,1450285812885,392,405,0,0,0,4,2,2,6,0001-00-0000-40.png,0003-00-0001-91.png
00000014,786,1,1450285815988,1450285816632,964,449,0,0,0,4,1,3,5,0001-00-0000-90.png,0004-00-0001-63.png
00000014,787,0,1450285817785,1450285818252,927,442,0,0,0,2,4,2,6,0003-00-0000-24.png,0001-00-0000-09.png
00000014,788,1,1450285823254,1450285823789,977,398,0,0,0,4,3,1,7,0001-00-0000-98.png,0002-00-0000-04.png
00000014,789,1,1450285824844,1450285825266,376,477,0,0,0,0,4,4,4,0005-00-0001-94.png,0001-00-0001-77.png
00000014,790,1,1450285826283,1450285826750,876,410,0,0,0,2,1,1,3,0003-00-0000-63.png,0004-00-0000-79.png
00000014,791,1,1450285828212,1450285828679,908,448,0,0,0,2,0,2,2,0003-00-0000-95.png,0005-00-0001-83.png
00000014,792,1,1450285829605,1450285830109,901,410,0,0,0,3,0,3,3,0002-00-0000-32.png,0005-00-0001-58.png
00000014,793,1,1450285831065,1450285831446,420,478,0,0,0,0,1,1,1,0005-00-0000-57.png,0004-00-0001-20.png
00000014,794,1,1450285832446,1450285832962,384,392,0,0,0,1,4,3,5,0004-00-0001-92.png,0001-00-0000-29.png
00000014,795,1,1450285833987,1450285834377,401,501,0,0,0,0,2,2,2,0005-00-0001-97.png,0003-00-0000-60.png
00000014,796,0,1450285835427,1450285835928,928,443,0,0,0,3,4,1,7,0002-00-0000-16.png,0001-00-0000-42.png
00000014,797,0,1450285839654,1450285840080,976,412,0,0,0,2,3,1,5,0003-00-0000-63.png,0002-00-0000-65.png
00000014,798,0,1450285843367,1450285843776,953,418,0,0,0,1,3,2,4,0004-00-0000-78.png,0002-00-0001-53.png
00000014,799,0,1450285848032,1450285848823,975,432,0,0,0,1,2,1,3,0004-00-0001-39.png,0003-00-0000-21.png
00000014,800,1,1450285851965,1450285852390,951,462,0,0,0,3,1,2,4,0002-00-0001-29.png,0004-00-0000-24.png
00000014,801,1,1450285853439,1450285853879,401,436,0,0,0,0,3,3,3,0005-00-0000-47.png,0002-00-0001-45.png
00000014,802,1,1450285855326,1450285855774,939,436,0,0,0,3,1,2,4,0002-00-0001-62.png,0004-00-0001-29.png
00000014,803,1,1450285856775,1450285857230,415,463,0,0,0,0,4,4,4,0005-00-0000-62.png,0001-00-0001-08.png
00000014,804,1,1450285858278,1450285858684,410,561,0,0,0,1,4,3,5,0004-00-0001-45.png,0001-00-0001-73.png
00000014,805,1,1450285859765,1450285860235,868,546,0,0,0,2,0,2,2,0003-00-0000-02.png,0005-00-0000-62.png
00000014,806,0,1450285861218,1450285861607,358,471,0,0,0,4,3,1,7,0001-00-0000-44.png,0002-00-0001-85.png
00000014,807,1,1450285867318,1450285867774,926,528,0,0,0,4,1,3,5,0001-00-0000-13.png,0004-00-0000-06.png
00000014,808,0,1450285868872,1450285869430,952,466,0,0,0,2,4,2,6,0003-00-0000-87.png,0001-00-0000-95.png
00000014,809,1,1450285874537,1450285875202,437,507,0,0,0,1,2,1,3,0004-00-0000-63.png,0003-00-0000-22.png
00000014,810,1,1450285876265,1450285876750,896,524,0,0,0,3,0,3,3,0002-00-0000-82.png,0005-00-0000-21.png
00000014,811,0,1450285877917,1450285878352,383,432,0,0,0,3,2,1,5,0002-00-0001-31.png,0003-00-0000-33.png
00000014,812,1,1450285883036,1450285883460,895,440,0,0,0,4,0,4,4,0001-00-0000-28.png,0005-00-0001-38.png
00000014,813,1,1450285884442,1450285884868,382,472,0,0,0,0,1,1,1,0005-00-0000-74.png,0004-00-0001-64.png
00000014,814,1,1450285885857,1450285886344,902,554,0,0,0,4,2,2,6,0001-00-0001-27.png,0003-00-0000-80.png
00000014,815,1,1450285887397,1450285887828,393,481,0,0,0,0,2,2,2,0005-00-0001-49.png,0003-00-0000-86.png
00000014,816,0,1450285888789,1450285889286,901,461,0,0,0,1,3,2,4,0004-00-0001-68.png,0002-00-0001-33.png
00000014,817,1,1450285892497,1450285892889,897,418,0,0,0,2,1,1,3,0003-00-0000-16.png,0004-00-0000-64.png
00000014,818,0,1450285894297,1450285894718,875,423,0,0,0,3,4,1,7,0002-00-0000-04.png,0001-00-0001-80.png
00000014,819,1,1450285898927,1450285899360,924,535,0,0,0,1,0,1,1,0004-00-0001-96.png,0005-00-0001-82.png
00000014,820,0,1450285900839,1450285901260,939,470,0,0,0,2,3,1,5,0003-00-0000-25.png,0002-00-0001-14.png
00000014,821,0,1450285904904,1450285905340,947,465,0,0,0,2,4,2,6,0003-00-0001-60.png,0001-00-0001-98.png
00000014,822,1,1450285911142,1450285911561,937,516,0,0,0,3,0,3,3,0002-00-0000-81.png,0005-00-0001-38.png
00000014,823,1,1450285912472,1450285912944,901,475,0,0,0,3,2,1,5,0002-00-0000-08.png,0003-00-0001-76.png
00000014,824,1,1450285914023,1450285914477,420,452,0,0,0,1,4,3,5,0004-00-0000-25.png,0001-00-0001-80.png
00000014,825,0,1450285915452,1450285915894,386,483,0,0,0,1,0,1,1,0004-00-0001-22.png,0005-00-0001-05.png
00000014,826,1,1450285919627,1450285920020,979,417,0,0,0,4,2,2,6,0001-00-0001-11.png,0003-00-0001-88.png
00000014,827,0,1450285921010,1450285921477,895,421,0,0,0,3,4,1,7,0002-00-0001-06.png,0001-00-0001-23.png
00000014,828,0,1450285924727,1450285925160,876,401,0,0,0,2,3,1,5,0003-00-0000-59.png,0002-00-0000-03.png
00000014,829,1,1450285929011,1450285929488,978,450,0,0,0,2,1,1,3,0003-00-0001-89.png,0004-00-0001-09.png
00000014,830,1,1450285930927,1450285931344,927,450,0,0,0,3,1,2,4,0002-00-0001-88.png,0004-00-0000-03.png
00000014,831,1,1450285932653,1450285933100,427,477,0,0,0,0,2,2,2,0005-00-0001-43.png,0003-00-0000-76.png
00000014,832,0,1450285934067,1450285934463,459,516,0,0,0,4,0,4,4,0001-00-0000-05.png,0005-00-0001-94.png
00000014,833,1,1450285939985,1450285940502,516,528,0,0,0,0,3,3,3,0005-00-0001-14.png,0002-00-0000-45.png
00000014,834,0,1450285942160,1450285942622,886,451,0,0,0,1,3,2,4,0004-00-0001-68.png,0002-00-0000-53.png
00000014,835,1,1450285962762,1450285963220,858,464,0,0,0,4,1,3,5,0001-00-0001-50.png,0004-00-0001-91.png
00000014,836,1,1450285964564,1450285965080,956,495,0,0,0,4,3,1,7,0001-00-0000-86.png,0002-00-0000-96.png
00000014,837,0,1450285966355,1450285967026,938,562,0,0,0,0,1,1,1,0005-00-0000-70.png,0004-00-0000-53.png
00000014,838,1,1450285970245,1450285970706,368,473,0,0,0,0,4,4,4,0005-00-0001-19.png,0001-00-0000-88.png
00000014,839,1,1450285972326,1450285972807,437,495,0,0,0,1,2,1,3,0004-00-0000-74.png,0003-00-0000-29.png
00000014,840,1,1450285973907,1450285974313,902,434,0,0,0,2,0,2,2,0003-00-0001-07.png,0005-00-0000-57.png
00000014,841,1,1450285975361,1450285975877,872,562,0,0,0,2,1,1,3,0003-00-0001-87.png,0004-00-0001-80.png
00000014,842,0,1450285976929,1450285977352,418,455,0,0,0,3,0,3,3,0002-00-0001-09.png,0005-00-0001-82.png
00000014,843,0,1450285982914,1450285983356,975,432,0,0,0,1,3,2,4,0004-00-0001-63.png,0002-00-0001-77.png
00000014,844,0,1450285986442,1450285986933,391,415,0,0,0,4,0,4,4,0001-00-0000-90.png,0005-00-0001-23.png
00000014,845,1,1450285990863,1450285991509,980,440,0,0,0,4,2,2,6,0001-00-0000-47.png,0003-00-0001-91.png
00000014,846,1,1450285993059,1450285993517,928,416,0,0,0,2,0,2,2,0003-00-0001-52.png,0005-00-0000-73.png
00000014,847,1,1450285994745,1450285995241,393,404,0,0,0,0,2,2,2,0005-00-0001-72.png,0003-00-0000-89.png
00000014,848,0,1450285996467,1450285997027,924,516,0,0,0,3,4,1,7,0002-00-0001-92.png,0001-00-0000-35.png
00000014,849,0,1450286001430,1450286001838,977,423,0,0,0,1,4,3,5,0004-00-0001-07.png,0001-00-0000-17.png
00000014,850,1,1450286005087,1450286005500,976,397,0,0,0,3,1,2,4,0002-00-0001-58.png,0004-00-0001-23.png
00000014,851,1,1450286006894,1450286007370,929,443,0,0,0,4,3,1,7,0001-00-0000-86.png,0002-00-0001-57.png
00000014,852,1,1450286008414,1450286008830,401,436,0,0,0,0,4,4,4,0005-00-0001-00.png,0001-00-0000-53.png
00000014,853,1,1450286009848,1450286010251,388,474,0,0,0,0,3,3,3,0005-00-0000-66.png,0002-00-0000-15.png
00000014,854,0,1450286011308,1450286011733,388,501,0,0,0,4,1,3,5,0001-00-0000-53.png,0004-00-0000-10.png
00000014,855,0,1450286015583,1450286016149,445,422,0,0,0,3,2,1,5,0002-00-0001-55.png,0003-00-0000-45.png
00000014,856,1,1450286019350,1450286019822,971,409,0,0,0,1,0,1,1,0004-00-0000-49.png,0005-00-0000-34.png
00000014,857,1,1450286020850,1450286021330,399,470,0,0,0,0,1,1,1,0005-00-0000-36.png,0004-00-0000-39.png
00000014,858,0,1450286022463,1450286023003,945,476,0,0,0,2,4,2,6,0003-00-0001-89.png,0001-00-0001-11.png
00000014,859,0,1450286027400,1450286027899,980,466,0,0,0,1,2,1,3,0004-00-0001-94.png,0003-00-0001-67.png
00000014,860,0,1450286031394,1450286031855,950,494,0,0,0,2,3,1,5,0003-00-0000-53.png,0002-00-0000-87.png
00000014,861,1,1450286035390,1450286035838,952,461,0,0,0,2,0,2,2,0003-00-0000-68.png,0005-00-0000-70.png
00000014,862,0,1450286037507,1450286037939,930,427,0,0,0,2,3,1,5,0003-00-0001-43.png,0002-00-0000-44.png
00000014,863,1,1450286045119,1450286045593,416,383,0,0,0,0,2,2,2,0005-00-0001-35.png,0003-00-0000-62.png
00000014,864,1,1450286046700,1450286047283,948,439,0,0,0,4,1,3,5,0001-00-0001-99.png,0004-00-0000-99.png
00000014,865,1,1450286048532,1450286048957,401,436,0,0,0,0,3,3,3,0005-00-0001-83.png,0002-00-0000-23.png
00000014,866,1,1450286050131,1450286050992,430,509,0,0,0,1,3,2,4,0004-00-0000-76.png,0002-00-0001-62.png
00000014,867,0,1450286052129,1450286053248,411,399,0,0,0,1,0,1,1,0004-00-0000-01.png,0005-00-0001-77.png
00000014,868,1,1450286057126,1450286057657,990,397,0,0,0,3,2,1,5,0002-00-0001-06.png,0003-00-0000-80.png
00000014,869,1,1450286058776,1450286059239,939,448,0,0,0,2,1,1,3,0003-00-0001-14.png,0004-00-0000-90.png
00000014,870,1,1450286060795,1450286061266,879,409,0,0,0,3,1,2,4,0002-00-0000-05.png,0004-00-0000-70.png
00000014,871,1,1450286062634,1450286063086,394,416,0,0,0,0,1,1,1,0005-00-0000-73.png,0004-00-0001-82.png
00000014,872,1,1450286064214,1450286064622,444,446,0,0,0,1,4,3,5,0004-00-0000-93.png,0001-00-0001-61.png
00000014,873,1,1450286065704,1450286066105,396,489,0,0,0,0,4,4,4,0005-00-0001-83.png,0001-00-0000-09.png
00000014,874,1,1450286067117,1450286067613,870,524,0,0,0,4,2,2,6,0001-00-0001-46.png,0003-00-0001-04.png
00000014,875,1,1450286069061,1450286069532,871,526,0,0,0,3,0,3,3,0002-00-0000-51.png,0005-00-0000-79.png
00000014,876,0,1450286070525,1450286070896,468,494,0,0,0,4,3,1,7,0001-00-0000-47.png,0002-00-0001-00.png
00000014,877,1,1450286075175,1450286075629,968,451,0,0,0,4,0,4,4,0001-00-0000-92.png,0005-00-0001-46.png
00000014,878,0,1450286076688,1450286077204,917,471,0,0,0,3,4,1,7,0002-00-0001-95.png,0001-00-0001-12.png
00000014,879,0,1450286080832,1450286081227,969,399,0,0,0,1,2,1,3,0004-00-0001-65.png,0003-00-0001-29.png
00000014,880,0,1450286084578,1450286085046,958,446,0,0,0,2,4,2,6,0003-00-0000-46.png,0001-00-0000-91.png
00000014,881,1,1450286088635,1450286089035,957,421,0,0,0,2,1,1,3,0003-00-0001-05.png,0004-00-0001-37.png
00000014,882,1,1450286090443,1450286091014,978,435,0,0,0,4,3,1,7,0001-00-0001-86.png,0002-00-0001-37.png
00000014,883,1,1450286092101,1450286092505,413,415,0,0,0,0,3,3,3,0005-00-0000-84.png,0002-00-0000-71.png
00000014,884,1,1450286093554,1450286094069,901,461,0,0,0,4,0,4,4,0001-00-0000-05.png,0005-00-0000-73.png
00000014,885,1,1450286095041,1450286095428,443,493,0,0,0,1,4,3,5,0004-00-0001-04.png,0001-00-0000-14.png
00000014,886,1,1450286096425,1450286096847,878,443,0,0,0,2,0,2,2,0003-00-0001-57.png,0005-00-0001-59.png
00000014,887,0,1450286097763,1450286098186,441,498,0,0,0,4,2,2,6,0001-00-0001-59.png,0003-00-0001-02.png
00000014,888,0,1450286102023,1450286102441,959,453,0,0,0,1,3,2,4,0004-00-0000-80.png,0002-00-0000-98.png
00000014,889,1,1450286106154,1450286106598,950,510,0,0,0,3,2,1,5,0002-00-0001-61.png,0003-00-0001-19.png
00000014,890,1,1450286107643,1450286108141,904,520,0,0,0,4,1,3,5,0001-00-0000-82.png,0004-00-0001-04.png
00000014,891,1,1450286109632,1450286110051,407,436,0,0,0,3,4,1,7,0002-00-0000-28.png,0001-00-0000-05.png
00000014,892,0,1450286111631,1450286112064,963,450,0,0,0,1,2,1,3,0004-00-0000-08.png,0003-00-0001-73.png
00000014,893,0,1450286115410,1450286115840,953,413,0,0,0,2,3,1,5,0003-00-0000-21.png,0002-00-0000-90.png
00000014,894,1,1450286119778,1450286120181,954,416,0,0,0,3,0,3,3,0002-00-0000-06.png,0005-00-0000-78.png
00000014,895,1,1450286121111,1450286121538,467,476,0,0,0,0,4,4,4,0005-00-0000-36.png,0001-00-0001-50.png
00000014,896,1,1450286122591,1450286123056,478,488,0,0,0,0,1,1,1,0005-00-0001-18.png,0004-00-0000-92.png
00000014,897,1,1450286124086,1450286124586,930,470,0,0,0,1,0,1,1,0004-00-0001-31.png,0005-00-0000-72.png
00000014,898,1,1450286125564,1450286125958,384,497,0,0,0,0,2,2,2,0005-00-0001-94.png,0003-00-0001-76.png
00000014,899,0,1450286126966,1450286127534,924,509,0,0,0,2,4,2,6,0003-00-0001-93.png,0001-00-0001-06.png
00000014,900,1,1450286131145,1450286131594,975,440,0,0,0,3,1,2,4,0002-00-0000-76.png,0004-00-0001-75.png
00000014,901,1,1450286132657,1450286133025,367,495,0,0,0,0,4,4,4,0005-00-0001-76.png,0001-00-0001-11.png
00000014,902,1,1450286133934,1450286134435,928,450,0,0,0,4,3,1,7,0001-00-0000-16.png,0002-00-0001-83.png
00000014,903,1,1450286135585,1450286136023,923,457,0,0,0,3,1,2,4,0002-00-0001-63.png,0004-00-0001-56.png
00000014,904,1,1450286137036,1450286137395,405,471,0,0,0,0,3,3,3,0005-00-0001-70.png,0002-00-0001-90.png
00000014,905,1,1450286138398,1450286138926,888,450,0,0,0,3,2,1,5,0002-00-0000-18.png,0003-00-0001-87.png
00000014,906,0,1450286140053,1450286140527,915,464,0,0,0,3,4,1,7,0002-00-0001-94.png,0001-00-0000-90.png
00000014,907,1,1450286144448,1450286144870,965,449,0,0,0,1,0,1,1,0004-00-0001-46.png,0005-00-0001-85.png
00000014,908,0,1450286146019,1450286146477,948,463,0,0,0,2,3,1,5,0003-00-0000-01.png,0002-00-0001-61.png
00000014,909,0,1450286151113,1450286151564,947,456,0,0,0,1,3,2,4,0004-00-0001-18.png,0002-00-0000-29.png
00000014,910,0,1450286155281,1450286155313,510,494,0,0,0,4,1,3,5,0001-00-0000-12.png,0004-00-0000-92.png
00000014,911,1,1450286158551,1450286159002,929,494,0,0,0,2,1,1,3,0003-00-0000-35.png,0004-00-0000-27.png
00000014,912,1,1450286160070,1450286160584,947,419,0,0,0,4,2,2,6,0001-00-0000-47.png,0003-00-0000-78.png
00000014,913,1,1450286161621,1450286161975,391,475,0,0,0,0,2,2,2,0005-00-0000-10.png,0003-00-0000-74.png
00000014,914,1,1450286163023,1450286163395,379,475,0,0,0,1,2,1,3,0004-00-0000-60.png,0003-00-0001-64.png
00000014,915,1,1450286164384,1450286165373,902,441,0,0,0,4,0,4,4,0001-00-0000-44.png,0005-00-0000-61.png
00000014,916,1,1450286166825,1450286167232,427,460,0,0,0,0,1,1,1,0005-00-0000-35.png,0004-00-0001-83.png
00000014,917,1,1450286168310,1450286168795,862,442,0,0,0,3,0,3,3,0002-00-0001-10.png,0005-00-0001-65.png
00000014,918,1,1450286170205,1450286170682,926,458,0,0,0,2,0,2,2,0003-00-0001-61.png,0005-00-0000-82.png
00000014,919,0,1450286172125,1450286172608,882,472,0,0,0,1,4,3,5,0004-00-0000-44.png,0001-00-0000-21.png
00000014,920,1,1450286175613,1450286176020,440,413,0,0,0,2,4,2,6,0003-00-0001-11.png,0001-00-0001-33.png
00000014,921,0,1450286177077,1450286177480,405,473,0,0,0,4,2,2,6,0001-00-0000-63.png,0003-00-0001-28.png
00000014,922,1,1450286181560,1450286182045,465,539,0,0,0,0,4,4,4,0005-00-0001-80.png,0001-00-0001-76.png
00000014,923,0,1450286183107,1450286183523,429,498,0,0,0,3,2,1,5,0002-00-0000-08.png,0003-00-0000-18.png
00000014,924,0,1450286187692,1450286188114,928,493,0,0,0,3,4,1,7,0002-00-0000-75.png,0001-00-0001-48.png
00000014,925,1,1450286191497,1450286191932,953,414,0,0,0,3,0,3,3,0002-00-0001-87.png,0005-00-0001-01.png
00000014,926,1,1450286192919,1450286193394,890,544,0,0,0,1,0,1,1,0004-00-0001-09.png,0005-00-0001-98.png
00000014,927,1,1450286194467,1450286195385,491,443,0,0,0,1,4,3,5,0004-00-0000-45.png,0001-00-0000-85.png
00000014,928,0,1450286196365,1450286196844,876,548,0,0,0,1,2,1,3,0004-00-0000-06.png,0003-00-0001-03.png
00000014,929,1,1450286199855,1450286200314,409,415,0,0,0,0,2,2,2,0005-00-0001-76.png,0003-00-0000-43.png
00000014,930,1,1450286201298,1450286201781,889,449,0,0,0,2,0,2,2,0003-00-0001-89.png,0005-00-0000-91.png
00000014,931,1,1450286202758,1450286203321,868,532,0,0,0,4,3,1,7,0001-00-0001-36.png,0002-00-0000-06.png
00000014,932,1,1450286204802,1450286205315,925,449,0,0,0,2,1,1,3,0003-00-0001-74.png,0004-00-0001-83.png
00000014,933,1,1450286206398,1450286206860,907,461,0,0,0,3,1,2,4,0002-00-0000-64.png,0004-00-0001-07.png
00000014,934,1,1450286207973,1450286208367,453,501,0,0,0,1,3,2,4,0004-00-0000-15.png,0002-00-0000-24.png
00000014,935,0,1450286209498,1450286209990,887,450,0,0,0,2,4,2,6,0003-00-0001-94.png,0001-00-0000-23.png
00000014,936,1,1450286212854,1450286213410,440,423,0,0,0,2,3,1,5,0003-00-0001-23.png,0002-00-0001-46.png
00000014,937,1,1450286214657,1450286215040,405,464,0,0,0,0,1,1,1,0005-00-0001-19.png,0004-00-0000-13.png
00000014,938,1,1450286216563,1450286216946,423,456,0,0,0,0,3,3,3,0005-00-0001-73.png,0002-00-0000-44.png
00000014,939,1,1450286218105,1450286218688,926,469,0,0,0,4,0,4,4,0001-00-0001-84.png,0005-00-0001-68.png
00000014,940,1,1450286220349,1450286220806,913,476,0,0,0,4,1,3,5,0001-00-0001-60.png,0004-00-0000-84.png
00000014,941,0,1450286221802,1450286222282,889,475,0,0,0,1,3,2,4,0004-00-0001-46.png,0002-00-0000-93.png
00000014,942,1,1450286228304,1450286228308,453,479,0,0,0,2,4,2,6,0003-00-0001-27.png,0001-00-0001-29.png
00000014,943,1,1450286229556,1450286230035,927,442,0,0,0,3,1,2,4,0002-00-0001-12.png,0004-00-0000-21.png
00000014,944,0,1450286231124,1450286231636,401,410,0,0,0,2,0,2,2,0003-00-0001-66.png,0005-00-0000-11.png
00000014,945,1,1450286234474,1450286234926,453,370,0,0,0,1,4,3,5,0004-00-0001-68.png,0001-00-0001-83.png
00000014,946,1,1450286235936,1450286236433,908,433,0,0,0,4,2,2,6,0001-00-0000-76.png,0003-00-0001-24.png
00000014,947,1,1450286237481,1450286237901,337,515,0,0,0,0,2,2,2,0005-00-0000-35.png,0003-00-0000-41.png
00000014,948,0,1450286238889,1450286239336,392,508,0,0,0,4,1,3,5,0001-00-0001-17.png,0004-00-0001-12.png
00000014,949,0,1450286242415,1450286242822,905,497,0,0,0,0,3,3,3,0005-00-0001-56.png,0002-00-0000-66.png
00000014,950,0,1450286245708,1450286246181,408,419,0,0,0,4,3,1,7,0001-00-0001-27.png,0002-00-0000-23.png
00000014,951,0,1450286249626,1450286249669,498,459,0,0,0,3,2,1,5,0002-00-0000-66.png,0003-00-0001-36.png
