subject_id,trial,correct_response,stim_time,response_time,x_coord,y_coord,trial_timeout,timeout_time,interTrial_timeout,left_rank,right_rank,distance,joint_rank,left_image,right_image
00000014,1,1,1450106111091,1450106111099,401,227,0,0,0,1,4,3,5,0004-00-0001-42.png,0001-00-0000-16.png
00000014,2,0,1450106113197,1450106113643,954,443,0,0,0,1,2,1,3,0004-00-0001-51.png,0003-00-0000-72.png
00000014,3,1,1450106116745,1450106117148,978,357,0,0,0,3,0,3,3,0002-00-0001-98.png,0005-00-0000-78.png
00000014,4,1,1450106118256,1450106118762,975,410,0,0,0,3,2,1,5,0002-00-0001-43.png,0003-00-0000-63.png
00000014,5,1,1450106119790,1450106120563,897,400,0,0,0,4,3,1,7,0001-00-0001-16.png,0002-00-0000-13.png
00000014,6,0,1450106121489,1450106122118,873,511,0,0,0,3,4,1,7,0002-00-0001-20.png,0001-00-0000-24.png
00000014,7,0,1450106125234,1450106125678,999,419,0,0,0,0,1,1,1,0005-00-0001-09.png,0004-00-0000-47.png
00000014,8,1,1450106129805,1450106130192,954,520,0,0,0,2,0,2,2,0003-00-0000-49.png,0005-00-0000-01.png
00000014,9,1,1450106131781,1450106132303,397,421,0,0,0,1,3,2,4,0004-00-0000-21.png,0002-00-0001-79.png
00000014,10,1,1450106133355,1450106133819,372,428,0,0,0,0,3,3,3,0005-00-0000-98.png,0002-00-0001-88.png
00000014,11,0,1450106134784,1450106135409,923,428,0,0,0,2,4,2,6,0003-00-0001-09.png,0001-00-0000-89.png
00000014,12,1,1450106139067,1450106139603,906,414,0,0,0,4,2,2,6,0001-00-0001-51.png,0003-00-0001-41.png
00000014,13,1,1450106140569,1450106141361,366,411,0,0,0,0,2,2,2,0005-00-0000-34.png,0003-00-0001-79.png
00000014,14,0,1450106142366,1450106142927,884,530,0,0,0,2,3,1,5,0003-00-0001-61.png,0002-00-0000-87.png
00000014,15,1,1450106145785,1450106146216,888,332,0,0,0,2,1,1,3,0003-00-0001-57.png,0004-00-0001-14.png
00000014,16,1,1450106147575,1450106148157,924,437,0,0,0,4,1,3,5,0001-00-0001-60.png,0004-00-0000-22.png
00000014,17,1,1450106149287,1450106149969,927,463,0,0,0,4,0,4,4,0001-00-0000-32.png,0005-00-0000-70.png
00000014,18,1,1450106150995,1450106151570,900,436,0,0,0,3,1,2,4,0002-00-0000-43.png,0004-00-0001-74.png
00000014,19,1,1450106152766,1450106153445,905,427,0,0,0,1,0,1,1,0004-00-0000-42.png,0005-00-0000-49.png
00000014,20,1,1450106154595,1450106155055,369,532,0,0,0,0,4,4,4,0005-00-0000-18.png,0001-00-0000-40.png
00000014,21,0,1450106156195,1450106156717,898,405,0,0,0,1,2,1,3,0004-00-0001-74.png,0003-00-0001-82.png
00000014,22,1,1450106159743,1450106160196,965,423,0,0,0,4,2,2,6,0001-00-0001-47.png,0003-00-0000-58.png
00000014,23,1,1450106161313,1450106161819,329,436,0,0,0,1,4,3,5,0004-00-0001-11.png,0001-00-0000-95.png
00000014,24,0,1450106162944,1450106163446,365,451,0,0,0,4,3,1,7,0001-00-0000-21.png,0002-00-0001-73.png
00000014,25,0,1450106166563,1450106166986,973,421,0,0,0,0,1,1,1,0005-00-0000-47.png,0004-00-0001-03.png
00000014,26,1,1450106170008,1450106170476,925,490,0,0,0,1,0,1,1,0004-00-0001-96.png,0005-00-0000-00.png
00000014,27,1,1450106171501,1450106172032,376,450,0,0,0,0,2,2,2,0005-00-0001-21.png,0003-00-0001-72.png
00000014,28,1,1450106173089,1450106174233,492,435,0,0,0,2,4,2,6,0003-00-0001-75.png,0001-00-0000-97.png
00000014,29,1,1450106175280,1450106175807,922,446,0,0,0,3,2,1,5,0002-00-0000-48.png,0003-00-0001-79.png
00000014,30,1,1450106176908,1450106177411,401,423,0,0,0,1,3,2,4,0004-00-0000-12.png,0002-00-0000-29.png
00000014,31,0,1450106178538,1450106178993,376,476,0,0,0,3,1,2,4,0002-00-0000-49.png,0004-00-0001-52.png
00000014,32,0,1450106182065,1450106182547,899,419,0,0,0,2,3,1,5,0003-00-0000-24.png,0002-00-0000-97.png
00000014,33,0,1450106186707,1450106187161,966,527,0,0,0,0,4,4,4,0005-00-0001-89.png,0001-00-0001-68.png
00000014,34,1,1450106190185,1450106190645,910,378,0,0,0,4,1,3,5,0001-00-0000-04.png,0004-00-0001-28.png
00000014,35,1,1450106191646,1450106192188,925,412,0,0,0,2,1,1,3,0003-00-0001-79.png,0004-00-0001-45.png
00000014,36,1,1450106193186,1450106193640,401,553,0,0,0,0,3,3,3,0005-00-0000-10.png,0002-00-0000-66.png
00000014,37,1,1450106194737,1450106195300,882,511,0,0,0,3,0,3,3,0002-00-0000-24.png,0005-00-0000-31.png
00000014,38,1,1450106196426,1450106196869,369,454,0,0,0,3,4,1,7,0002-00-0001-41.png,0001-00-0000-28.png
00000014,39,1,1450106198008,1450106198621,961,420,0,0,0,4,0,4,4,0001-00-0001-25.png,0005-00-0000-39.png
00000014,40,1,1450106199697,1450106200333,888,358,0,0,0,2,0,2,2,0003-00-0000-99.png,0005-00-0001-87.png
00000014,41,0,1450106201426,1450106202006,929,417,0,0,0,2,3,1,5,0003-00-0000-78.png,0002-00-0000-13.png
00000014,42,1,1450106205051,1450106205500,927,502,0,0,0,3,1,2,4,0002-00-0001-36.png,0004-00-0001-02.png
00000014,43,1,1450106206606,1450106207107,420,426,0,0,0,0,3,3,3,0005-00-0001-96.png,0002-00-0000-05.png
00000014,44,1,1450106208255,1450106208781,879,402,0,0,0,2,1,1,3,0003-00-0000-58.png,0004-00-0001-50.png
00000014,45,0,1450106209866,1450106210368,383,559,0,0,0,4,2,2,6,0001-00-0001-36.png,0003-00-0001-99.png
00000014,46,1,1450106213353,1450106213825,925,502,0,0,0,3,2,1,5,0002-00-0000-57.png,0003-00-0000-49.png
00000014,47,0,1450106214952,1450106215489,376,565,0,0,0,1,0,1,1,0004-00-0000-02.png,0005-00-0000-96.png
00000014,48,1,1450106218544,1450106218923,975,404,0,0,0,2,0,2,2,0003-00-0000-24.png,0005-00-0000-44.png
00000014,49,1,1450106219973,1450106220427,365,546,0,0,0,0,1,1,1,0005-00-0000-73.png,0004-00-0000-24.png
00000014,50,0,1450106221510,1450106222106,925,423,0,0,0,1,2,1,3,0004-00-0000-03.png,0003-00-0001-73.png
00000014,51,0,1450106225277,1450106225662,926,487,0,0,0,1,4,3,5,0004-00-0000-05.png,0001-00-0001-85.png
00000014,52,1,1450106228826,1450106229244,990,450,0,0,0,4,1,3,5,0001-00-0000-43.png,0004-00-0000-82.png
00000014,53,1,1450106230370,1450106230896,925,410,0,0,0,4,0,4,4,0001-00-0001-18.png,0005-00-0001-43.png
00000014,54,1,1450106231948,1450106232410,299,443,0,0,0,0,2,2,2,0005-00-0001-65.png,0003-00-0001-20.png
00000014,55,1,1450106233788,1450106234279,403,420,0,0,0,1,3,2,4,0004-00-0001-36.png,0002-00-0001-64.png
00000014,56,1,1450106235326,1450106235958,912,398,0,0,0,4,3,1,7,0001-00-0000-34.png,0002-00-0000-22.png
00000014,57,0,1450106237086,1450106237539,375,497,0,0,0,3,0,3,3,0002-00-0000-66.png,0005-00-0000-51.png
00000014,58,0,1450106240586,1450106241050,965,423,0,0,0,2,4,2,6,0003-00-0001-12.png,0001-00-0001-21.png
00000014,59,1,1450106244141,1450106244738,376,373,0,0,0,0,4,4,4,0005-00-0000-38.png,0001-00-0001-03.png
00000014,60,0,1450106245733,1450106246267,926,462,0,0,0,3,4,1,7,0002-00-0000-32.png,0001-00-0000-70.png
00000014,61,0,1450106249740,1450106250202,964,449,0,0,0,2,3,1,5,0003-00-0001-86.png,0002-00-0000-99.png
00000014,62,1,1450106253435,1450106253870,962,456,0,0,0,4,0,4,4,0001-00-0001-72.png,0005-00-0001-77.png
00000014,63,1,1450106254977,1450106255597,876,546,0,0,0,3,1,2,4,0002-00-0000-86.png,0004-00-0001-99.png
00000014,64,1,1450106256686,1450106257420,396,417,0,0,0,0,2,2,2,0005-00-0001-95.png,0003-00-0001-14.png
00000014,65,1,1450106258455,1450106258940,350,471,0,0,0,1,2,1,3,0004-00-0001-90.png,0003-00-0001-45.png
00000014,66,1,1450106260114,1450106260749,907,443,0,0,0,4,1,3,5,0001-00-0001-77.png,0004-00-0001-57.png
00000014,67,0,1450106261816,1450106262427,892,444,0,0,0,3,4,1,7,0002-00-0001-76.png,0001-00-0000-58.png
00000014,68,1,1450106265351,1450106265850,368,404,0,0,0,1,3,2,4,0004-00-0000-68.png,0002-00-0001-28.png
00000014,69,0,1450106266895,1450106267413,368,481,0,0,0,1,0,1,1,0004-00-0000-34.png,0005-00-0000-59.png
00000014,70,1,1450106270501,1450106271015,382,383,0,0,0,0,1,1,1,0005-00-0001-78.png,0004-00-0000-08.png
00000014,71,1,1450106272042,1450106272621,900,554,0,0,0,3,0,3,3,0002-00-0000-66.png,0005-00-0001-01.png
00000014,72,0,1450106273723,1450106274171,433,487,0,0,0,4,3,1,7,0001-00-0001-75.png,0002-00-0001-61.png
00000014,73,0,1450106277370,1450106277804,931,500,0,0,0,2,4,2,6,0003-00-0000-24.png,0001-00-0001-12.png
00000014,74,0,1450106280719,1450106281189,902,494,0,0,0,1,4,3,5,0004-00-0000-04.png,0001-00-0000-26.png
00000014,75,1,1450106284404,1450106284900,416,390,0,0,0,0,3,3,3,0005-00-0000-41.png,0002-00-0000-90.png
00000014,76,1,1450106285874,1450106286455,928,442,0,0,0,2,1,1,3,0003-00-0000-70.png,0004-00-0001-38.png
00000014,77,1,1450106287456,1450106288040,878,401,0,0,0,3,2,1,5,0002-00-0001-21.png,0003-00-0000-09.png
00000014,78,0,1450106289177,1450106289607,435,500,0,0,0,4,2,2,6,0001-00-0001-93.png,0003-00-0000-55.png
00000014,79,1,1450106292545,1450106292984,879,506,0,0,0,2,0,2,2,0003-00-0001-49.png,0005-00-0000-79.png
00000014,80,1,1450106294096,1450106294523,319,447,0,0,0,0,4,4,4,0005-00-0000-34.png,0001-00-0000-19.png
00000014,81,1,1450106295621,1450106296105,376,422,0,0,0,0,2,2,2,0005-00-0001-12.png,0003-00-0000-38.png
00000014,82,1,1450106297219,1450106297800,861,419,0,0,0,4,0,4,4,0001-00-0001-18.png,0005-00-0001-12.png
00000014,83,1,1450106298931,1450106299569,880,439,0,0,0,3,1,2,4,0002-00-0001-62.png,0004-00-0000-73.png
00000014,84,0,1450106300715,1450106301127,381,449,0,0,0,4,1,3,5,0001-00-0001-20.png,0004-00-0001-50.png
00000014,85,1,1450106304465,1450106304979,397,507,0,0,0,0,3,3,3,0005-00-0000-64.png,0002-00-0000-46.png
00000014,86,1,1450106306094,1450106306776,914,447,0,0,0,4,3,1,7,0001-00-0001-82.png,0002-00-0001-06.png
00000014,87,0,1450106307822,1450106308285,405,445,0,0,0,1,0,1,1,0004-00-0001-28.png,0005-00-0001-71.png
00000014,88,0,1450106311312,1450106311838,950,409,0,0,0,2,4,2,6,0003-00-0001-34.png,0001-00-0000-71.png
00000014,89,1,1450106314980,1450106315436,950,517,0,0,0,2,1,1,3,0003-00-0001-04.png,0004-00-0001-11.png
00000014,90,1,1450106316559,1450106317064,401,462,0,0,0,1,3,2,4,0004-00-0000-29.png,0002-00-0000-23.png
00000014,91,1,1450106318151,1450106318739,365,430,0,0,0,1,4,3,5,0004-00-0001-40.png,0001-00-0000-25.png
00000014,92,0,1450106319840,1450106320428,902,442,0,0,0,2,3,1,5,0003-00-0000-31.png,0002-00-0001-52.png
00000014,93,1,1450106323303,1450106323974,959,447,0,0,0,3,2,1,5,0002-00-0001-12.png,0003-00-0001-76.png
00000014,94,1,1450106325056,1450106325462,393,554,0,0,0,0,1,1,1,0005-00-0000-79.png,0004-00-0000-22.png
00000014,95,1,1450106326724,1450106327220,386,433,0,0,0,1,2,1,3,0004-00-0000-60.png,0003-00-0001-63.png
00000014,96,1,1450106328386,1450106328959,362,423,0,0,0,0,4,4,4,0005-00-0000-77.png,0001-00-0000-37.png
00000014,97,1,1450106330106,1450106330747,875,397,0,0,0,4,2,2,6,0001-00-0001-92.png,0003-00-0001-43.png
00000014,98,1,1450106331905,1450106333038,973,445,0,0,0,2,0,2,2,0003-00-0001-77.png,0005-00-0001-40.png
00000014,99,1,1450106334260,1450106334830,912,450,0,0,0,3,0,3,3,0002-00-0000-26.png,0005-00-0001-04.png
00000014,100,1,1450106336039,1450106336452,376,488,0,0,0,3,4,1,7,0002-00-0000-08.png,0001-00-0000-21.png
00000014,101,0,1450106337710,1450106338374,925,437,0,0,0,3,4,1,7,0002-00-0001-41.png,0001-00-0000-59.png
00000014,102,1,1450106341215,1450106341804,890,535,0,0,0,4,3,1,7,0001-00-0001-94.png,0002-00-0001-63.png
00000014,103,1,1450106342945,1450106343459,325,450,0,0,0,0,4,4,4,0005-00-0000-86.png,0001-00-0000-77.png
00000014,104,1,1450106344766,1450106345409,899,432,0,0,0,4,2,2,6,0001-00-0000-23.png,0003-00-0000-88.png
00000014,105,1,1450106347519,1450106347980,873,541,0,0,0,2,1,1,3,0003-00-0000-66.png,0004-00-0001-60.png
00000014,106,0,1450106349161,1450106349599,371,484,0,0,0,4,1,3,5,0001-00-0000-19.png,0004-00-0001-76.png
00000014,107,1,1450106352616,1450106353060,959,448,0,0,0,3,0,3,3,0002-00-0001-65.png,0005-00-0001-52.png
00000014,108,0,1450106354148,1450106354701,926,424,0,0,0,2,4,2,6,0003-00-0000-06.png,0001-00-0001-34.png
00000014,109,0,1450106358310,1450106358739,961,443,0,0,0,0,3,3,3,0005-00-0000-05.png,0002-00-0000-94.png
00000014,110,0,1450106361738,1450106362190,951,438,0,0,0,2,3,1,5,0003-00-0000-17.png,0002-00-0000-82.png
00000014,111,0,1450106365117,1450106365612,992,412,0,0,0,1,2,1,3,0004-00-0000-52.png,0003-00-0001-04.png
00000014,112,1,1450106368640,1450106369066,948,532,0,0,0,2,0,2,2,0003-00-0000-16.png,0005-00-0001-09.png
00000014,113,1,1450106370180,1450106370842,366,428,0,0,0,1,3,2,4,0004-00-0001-36.png,0002-00-0001-34.png
00000014,114,1,1450106371987,1450106372556,903,415,0,0,0,1,0,1,1,0004-00-0001-28.png,0005-00-0001-63.png
00000014,115,0,1450106373737,1450106374359,872,533,0,0,0,1,4,3,5,0004-00-0000-49.png,0001-00-0000-59.png
00000014,116,1,1450106377255,1450106377738,973,445,0,0,0,3,1,2,4,0002-00-0000-81.png,0004-00-0001-84.png
00000014,117,1,1450106378830,1450106379285,427,449,0,0,0,0,2,2,2,0005-00-0001-04.png,0003-00-0001-16.png
00000014,118,1,1450106380477,1450106381053,885,535,0,0,0,4,0,4,4,0001-00-0000-81.png,0005-00-0000-30.png
00000014,119,1,1450106382355,1450106382909,951,437,0,0,0,3,2,1,5,0002-00-0001-74.png,0003-00-0000-25.png
00000014,120,1,1450106384106,1450106384491,414,462,0,0,0,0,1,1,1,0005-00-0000-18.png,0004-00-0000-03.png
00000014,121,0,1450106385685,1450106386235,954,410,0,0,0,3,4,1,7,0002-00-0001-14.png,0001-00-0001-80.png
00000014,122,1,1450106389301,1450106389819,917,509,0,0,0,4,2,2,6,0001-00-0001-26.png,0003-00-0000-38.png
00000014,123,1,1450106390985,1450106391460,388,449,0,0,0,0,4,4,4,0005-00-0001-50.png,0001-00-0001-06.png
00000014,124,1,1450106392754,1450106393391,895,443,0,0,0,3,2,1,5,0002-00-0001-95.png,0003-00-0000-02.png
00000014,125,1,1450106394532,1450106395058,924,410,0,0,0,3,0,3,3,0002-00-0000-65.png,0005-00-0001-91.png
00000014,126,1,1450106396252,1450106396752,375,469,0,0,0,1,4,3,5,0004-00-0000-13.png,0001-00-0001-14.png
00000014,127,0,1450106398000,1450106398585,903,410,0,0,0,2,4,2,6,0003-00-0001-60.png,0001-00-0001-89.png
00000014,128,1,1450106401617,1450106402140,920,524,0,0,0,4,0,4,4,0001-00-0000-78.png,0005-00-0000-40.png
00000014,129,1,1450106403226,1450106403858,916,452,0,0,0,3,1,2,4,0002-00-0000-95.png,0004-00-0000-74.png
00000014,130,0,1450106405045,1450106405513,395,480,0,0,0,4,3,1,7,0001-00-0001-72.png,0002-00-0001-45.png
00000014,131,0,1450106408565,1450106409139,901,527,0,0,0,1,2,1,3,0004-00-0001-31.png,0003-00-0001-51.png
00000014,132,0,1450106412259,1450106412675,915,433,0,0,0,0,2,2,2,0005-00-0001-36.png,0003-00-0000-53.png
00000014,133,1,1450106415526,1450106416073,376,443,0,0,0,0,3,3,3,0005-00-0001-01.png,0002-00-0001-40.png
00000014,134,1,1450106417341,1450106417992,394,433,0,0,0,0,1,1,1,0005-00-0000-36.png,0004-00-0001-74.png
00000014,135,1,1450106419160,1450106419754,900,411,0,0,0,2,0,2,2,0003-00-0000-04.png,0005-00-0001-80.png
00000014,136,1,1450106420900,1450106421395,387,488,0,0,0,1,3,2,4,0004-00-0000-74.png,0002-00-0001-99.png
00000014,137,0,1450106422610,1450106423201,902,442,0,0,0,2,3,1,5,0003-00-0001-56.png,0002-00-0000-17.png
00000014,138,1,1450106426290,1450106426771,951,411,0,0,0,1,0,1,1,0004-00-0000-40.png,0005-00-0001-55.png
00000014,139,1,1450106427968,1450106428589,927,451,0,0,0,4,1,3,5,0001-00-0000-67.png,0004-00-0000-55.png
00000014,140,1,1450106429647,1450106430221,901,521,0,0,0,2,1,1,3,0003-00-0000-68.png,0004-00-0000-28.png
00000014,141,1,1450106431446,1450106431990,924,432,0,0,0,4,1,3,5,0001-00-0001-25.png,0004-00-0001-28.png
00000014,142,0,1450106433227,1450106433775,917,445,0,0,0,2,4,2,6,0003-00-0001-30.png,0001-00-0000-66.png
00000014,143,0,1450106437220,1450106437661,950,458,0,0,0,1,3,2,4,0004-00-0000-03.png,0002-00-0001-61.png
00000014,144,0,1450106440527,1450106440970,975,457,0,0,0,0,4,4,4,0005-00-0001-73.png,0001-00-0000-96.png
00000014,145,1,1450106443827,1450106444354,947,419,0,0,0,4,3,1,7,0001-00-0001-59.png,0002-00-0001-09.png
00000014,146,1,1450106445419,1450106445989,920,455,0,0,0,2,0,2,2,0003-00-0000-33.png,0005-00-0000-92.png
00000014,147,1,1450106447238,1450106447753,325,450,0,0,0,0,3,3,3,0005-00-0000-57.png,0002-00-0001-16.png
00000014,148,1,1450106448976,1450106449479,381,557,0,0,0,1,4,3,5,0004-00-0000-57.png,0001-00-0000-50.png
00000014,149,1,1450106450846,1450106451411,902,424,0,0,0,2,1,1,3,0003-00-0000-41.png,0004-00-0000-39.png
00000014,150,1,1450106452966,1450106453554,898,432,0,0,0,3,2,1,5,0002-00-0001-32.png,0003-00-0001-96.png
00000014,151,0,1450106454902,1450106455507,897,458,0,0,0,3,4,1,7,0002-00-0001-20.png,0001-00-0001-28.png
00000014,152,1,1450106458372,1450106458960,332,358,0,0,0,0,2,2,2,0005-00-0000-90.png,0003-00-0000-99.png
00000014,153,1,1450106460052,1450106460685,905,454,0,0,0,4,0,4,4,0001-00-0001-06.png,0005-00-0001-86.png
00000014,154,0,1450106461930,1450106462555,875,436,0,0,0,2,3,1,5,0003-00-0000-26.png,0002-00-0000-75.png
00000014,155,0,1450106466164,1450106466567,901,527,0,0,0,1,2,1,3,0004-00-0000-36.png,0003-00-0000-64.png
00000014,156,0,1450106469554,1450106470069,874,528,0,0,0,0,1,1,1,0005-00-0000-02.png,0004-00-0000-50.png
00000014,157,1,1450106473877,1450106474356,985,447,0,0,0,4,2,2,6,0001-00-0001-72.png,0003-00-0000-64.png
00000014,158,1,1450106475598,1450106476187,925,449,0,0,0,1,0,1,1,0004-00-0001-10.png,0005-00-0000-73.png
00000014,159,1,1450106477327,1450106477939,927,461,0,0,0,3,1,2,4,0002-00-0000-53.png,0004-00-0000-64.png
00000014,160,1,1450106479046,1450106479667,927,461,0,0,0,3,0,3,3,0002-00-0001-28.png,0005-00-0000-39.png
00000014,161,1,1450106480892,1450106481438,900,450,0,0,0,4,0,4,4,0001-00-0001-99.png,0005-00-0001-37.png
00000014,162,1,1450106482663,1450106483202,386,475,0,0,0,1,2,1,3,0004-00-0001-27.png,0003-00-0000-19.png
00000014,163,1,1450106484451,1450106485038,902,461,0,0,0,2,1,1,3,0003-00-0001-52.png,0004-00-0000-19.png
00000014,164,1,1450106486241,1450106486814,394,462,0,0,0,3,4,1,7,0002-00-0001-82.png,0001-00-0001-61.png
00000014,165,0,1450106487960,1450106488541,913,474,0,0,0,2,3,1,5,0003-00-0000-23.png,0002-00-0001-58.png
00000014,166,0,1450106491511,1450106492001,914,397,0,0,0,0,3,3,3,0005-00-0000-14.png,0002-00-0001-04.png
00000014,167,1,1450106495237,1450106495707,974,430,0,0,0,1,0,1,1,0004-00-0000-07.png,0005-00-0001-72.png
00000014,168,1,1450106496809,1450106497240,376,461,0,0,0,0,2,2,2,0005-00-0000-39.png,0003-00-0000-84.png
00000014,169,1,1450106498396,1450106498977,893,537,0,0,0,4,2,2,6,0001-00-0001-49.png,0003-00-0000-78.png
00000014,170,1,1450106500117,1450106500824,409,507,0,0,0,1,4,3,5,0004-00-0000-33.png,0001-00-0001-67.png
00000014,171,0,1450106502015,1450106502636,389,461,0,0,0,2,0,2,2,0003-00-0000-16.png,0005-00-0001-62.png
00000014,172,1,1450106505532,1450106506099,941,422,0,0,0,3,2,1,5,0002-00-0001-68.png,0003-00-0000-32.png
00000014,173,0,1450106507234,1450106507766,900,463,0,0,0,2,4,2,6,0003-00-0001-20.png,0001-00-0000-56.png
00000014,174,1,1450106510950,1450106511398,900,528,0,0,0,3,0,3,3,0002-00-0001-30.png,0005-00-0001-45.png
00000014,175,1,1450106512529,1450106513121,924,439,0,0,0,4,3,1,7,0001-00-0001-22.png,0002-00-0001-60.png
00000014,176,0,1450106514298,1450106514753,350,475,0,0,0,4,1,3,5,0001-00-0000-27.png,0004-00-0001-18.png
00000014,177,0,1450106517868,1450106518429,359,461,0,0,0,3,1,2,4,0002-00-0001-10.png,0004-00-0001-18.png
00000014,178,1,1450106521743,1450106522713,415,409,0,0,0,0,1,1,1,0005-00-0001-11.png,0004-00-0001-77.png
00000014,179,0,1450106523889,1450106524582,924,457,0,0,0,0,4,4,4,0005-00-0001-71.png,0001-00-0000-66.png
00000014,180,0,1450106527673,1450106528096,963,450,0,0,0,1,3,2,4,0004-00-0000-98.png,0002-00-0001-74.png
00000014,181,1,1450106531025,1450106531484,931,375,0,0,0,4,1,3,5,0001-00-0001-78.png,0004-00-0000-96.png
00000014,182,0,1450106532574,1450106533091,386,488,0,0,0,4,2,2,6,0001-00-0000-03.png,0003-00-0001-83.png
00000014,183,1,1450106536006,1450106536499,874,528,0,0,0,2,1,1,3,0003-00-0000-10.png,0004-00-0000-58.png
00000014,184,0,1450106537614,1450106538061,427,485,0,0,0,1,0,1,1,0004-00-0001-41.png,0005-00-0000-40.png
00000014,185,0,1450106541322,1450106541732,976,432,0,0,0,0,1,1,1,0005-00-0000-10.png,0004-00-0001-14.png
00000014,186,1,1450106544660,1450106545177,952,449,0,0,0,3,1,2,4,0002-00-0001-71.png,0004-00-0001-38.png
00000014,187,1,1450106546209,1450106546847,359,462,0,0,0,1,3,2,4,0004-00-0001-83.png,0002-00-0001-65.png
00000014,188,1,1450106547901,1450106548527,927,460,0,0,0,3,0,3,3,0002-00-0000-06.png,0005-00-0000-32.png
00000014,189,1,1450106549710,1450106550315,903,467,0,0,0,4,0,4,4,0001-00-0000-51.png,0005-00-0001-24.png
00000014,190,0,1450106551532,1450106552182,391,410,0,0,0,3,2,1,5,0002-00-0000-88.png,0003-00-0001-21.png
00000014,191,0,1450106555405,1450106555868,970,451,0,0,0,0,4,4,4,0005-00-0000-93.png,0001-00-0000-02.png
00000014,192,1,1450106558794,1450106559782,453,424,0,0,0,1,2,1,3,0004-00-0000-55.png,0003-00-0000-14.png
00000014,193,0,1450106560755,1450106561346,887,450,0,0,0,2,4,2,6,0003-00-0000-52.png,0001-00-0001-50.png
00000014,194,1,1450106564709,1450106565176,928,545,0,0,0,2,0,2,2,0003-00-0000-37.png,0005-00-0001-90.png
00000014,195,1,1450106566250,1450106566986,393,403,0,0,0,0,2,2,2,0005-00-0000-70.png,0003-00-0000-60.png
00000014,196,1,1450106568113,1450106568702,398,443,0,0,0,1,4,3,5,0004-00-0001-93.png,0001-00-0000-46.png
00000014,197,1,1450106569846,1450106570472,878,442,0,0,0,4,3,1,7,0001-00-0000-56.png,0002-00-0001-48.png
00000014,198,0,1450106571539,1450106572106,901,461,0,0,0,2,3,1,5,0003-00-0001-86.png,0002-00-0001-33.png
00000014,199,0,1450106575276,1450106575739,972,445,0,0,0,3,4,1,7,0002-00-0000-88.png,0001-00-0001-90.png
00000014,200,1,1450106578783,1450106579299,384,466,0,0,0,0,3,3,3,0005-00-0000-91.png,0002-00-0000-93.png
00000014,201,1,1450106580316,1450106580815,318,479,0,0,0,0,1,1,1,0005-00-0001-03.png,0004-00-0000-37.png
00000014,202,1,1450106582172,1450106582748,901,435,0,0,0,2,1,1,3,0003-00-0001-45.png,0004-00-0001-86.png
00000014,203,1,1450106583861,1450106584329,339,476,0,0,0,0,3,3,3,0005-00-0001-24.png,0002-00-0000-19.png
00000014,204,1,1450106586029,1450106586684,898,456,0,0,0,3,1,2,4,0002-00-0001-44.png,0004-00-0001-36.png
00000014,205,0,1450106587730,1450106588220,369,481,0,0,0,4,2,2,6,0001-00-0000-23.png,0003-00-0000-40.png
00000014,206,1,1450106591071,1450106591563,374,432,0,0,0,2,3,1,5,0003-00-0000-44.png,0002-00-0001-77.png
00000014,207,1,1450106592660,1450106593389,947,446,0,0,0,3,2,1,5,0002-00-0001-13.png,0003-00-0001-45.png
00000014,208,1,1450106594469,1450106595038,900,410,0,0,0,4,1,3,5,0001-00-0000-45.png,0004-00-0000-96.png
00000014,209,0,1450106596337,1450106596896,897,456,0,0,0,2,4,2,6,0003-00-0000-48.png,0001-00-0001-21.png
00000014,210,0,1450106599784,1450106600282,876,502,0,0,0,1,3,2,4,0004-00-0001-08.png,0002-00-0001-34.png
00000014,211,0,1450106603194,1450106603657,873,516,0,0,0,3,4,1,7,0002-00-0001-86.png,0001-00-0000-90.png
00000014,212,1,1450106606892,1450106607336,948,471,0,0,0,3,0,3,3,0002-00-0001-34.png,0005-00-0001-16.png
00000014,213,1,1450106608413,1450106608973,922,431,0,0,0,2,0,2,2,0003-00-0000-83.png,0005-00-0001-46.png
00000014,214,1,1450106610202,1450106610936,410,522,0,0,0,0,4,4,4,0005-00-0000-89.png,0001-00-0001-43.png
00000014,215,1,1450106612141,1450106612669,381,477,0,0,0,1,2,1,3,0004-00-0001-99.png,0003-00-0001-52.png
00000014,216,1,1450106613907,1450106614398,427,436,0,0,0,1,4,3,5,0004-00-0001-31.png,0001-00-0001-19.png
00000014,217,0,1450106615629,1450106616781,459,420,0,0,0,4,0,4,4,0001-00-0000-81.png,0005-00-0001-22.png
00000014,218,1,1450106619651,1450106620113,875,528,0,0,0,1,0,1,1,0004-00-0000-10.png,0005-00-0001-96.png
00000014,219,0,1450106621263,1450106621739,372,499,0,0,0,4,3,1,7,0001-00-0001-23.png,0002-00-0000-46.png
00000014,220,0,1450106624884,1450106625336,878,401,0,0,0,0,2,2,2,0005-00-0001-83.png,0003-00-0001-01.png
00000014,221,1,1450106628490,1450106628981,913,528,0,0,0,3,2,1,5,0002-00-0001-60.png,0003-00-0001-46.png
00000014,222,1,1450106630149,1450106630701,901,520,0,0,0,4,0,4,4,0001-00-0001-67.png,0005-00-0000-58.png
00000014,223,1,1450106631869,1450106632347,358,449,0,0,0,1,2,1,3,0004-00-0000-65.png,0003-00-0000-70.png
00000014,224,0,1450106633697,1450106634542,898,430,0,0,0,0,1,1,1,0005-00-0001-05.png,0004-00-0001-92.png
00000014,225,1,1450106637412,1450106637928,375,430,0,0,0,0,2,2,2,0005-00-0000-37.png,0003-00-0000-30.png
00000014,226,0,1450106639064,1450106639790,896,484,0,0,0,0,4,4,4,0005-00-0000-12.png,0001-00-0000-72.png
00000014,227,1,1450106642797,1450106643268,941,448,0,0,0,2,0,2,2,0003-00-0001-32.png,0005-00-0001-19.png
00000014,228,1,1450106644414,1450106644988,895,446,0,0,0,4,1,3,5,0001-00-0001-39.png,0004-00-0000-25.png
00000014,229,0,1450106646181,1450106646781,427,529,0,0,0,1,0,1,1,0004-00-0001-90.png,0005-00-0000-20.png
00000014,230,0,1450106649619,1450106650324,926,422,0,0,0,1,3,2,4,0004-00-0001-18.png,0002-00-0000-55.png
00000014,231,1,1450106653204,1450106653721,908,397,0,0,0,3,0,3,3,0002-00-0000-38.png,0005-00-0000-05.png
00000014,232,0,1450106654788,1450106655311,902,410,0,0,0,2,3,1,5,0003-00-0001-99.png,0002-00-0000-69.png
00000014,233,1,1450106658405,1450106658946,359,417,0,0,0,0,3,3,3,0005-00-0000-74.png,0002-00-0001-43.png
00000014,234,1,1450106660133,1450106660667,872,534,0,0,0,2,1,1,3,0003-00-0001-29.png,0004-00-0001-68.png
00000014,235,0,1450106661822,1450106662410,896,446,0,0,0,3,4,1,7,0002-00-0000-14.png,0001-00-0000-79.png
00000014,236,0,1450106665422,1450106665873,952,436,0,0,0,2,4,2,6,0003-00-0001-51.png,0001-00-0000-34.png
00000014,237,1,1450106668881,1450106668909,522,416,0,0,0,1,4,3,5,0004-00-0001-55.png,0001-00-0000-56.png
00000014,238,1,1450106670547,1450106671045,905,454,0,0,0,4,2,2,6,0001-00-0001-92.png,0003-00-0001-83.png
00000014,239,0,1450106672269,1450106672698,374,495,0,0,0,4,3,1,7,0001-00-0000-41.png,0002-00-0000-14.png
00000014,240,1,1450106675869,1450106676368,947,532,0,0,0,3,1,2,4,0002-00-0001-89.png,0004-00-0000-26.png
00000014,241,1,1450106677499,1450106678035,931,453,0,0,0,4,0,4,4,0001-00-0001-02.png,0005-00-0000-71.png
00000014,242,1,1450106679298,1450106679875,893,462,0,0,0,3,2,1,5,0002-00-0000-41.png,0003-00-0001-02.png
00000014,243,1,1450106681206,1450106681751,404,422,0,0,0,1,3,2,4,0004-00-0001-94.png,0002-00-0001-78.png
00000014,244,0,1450106682996,1450106683602,897,461,0,0,0,3,4,1,7,0002-00-0001-07.png,0001-00-0000-63.png
00000014,245,1,1450106686461,1450106686888,931,402,0,0,0,4,3,1,7,0001-00-0000-75.png,0002-00-0001-01.png
00000014,246,1,1450106688153,1450106688606,403,467,0,0,0,0,3,3,3,0005-00-0000-77.png,0002-00-0001-09.png
00000014,247,1,1450106689884,1450106690376,372,440,0,0,0,1,4,3,5,0004-00-0000-23.png,0001-00-0001-64.png
00000014,248,1,1450106691641,1450106692249,921,441,0,0,0,1,0,1,1,0004-00-0000-29.png,0005-00-0000-33.png
00000014,249,1,1450106693520,1450106693994,401,436,0,0,0,0,1,1,1,0005-00-0000-95.png,0004-00-0001-99.png
00000014,250,0,1450106695402,1450106695959,869,550,0,0,0,2,4,2,6,0003-00-0001-23.png,0001-00-0000-67.png
00000014,251,1,1450106699065,1450106699457,950,456,0,0,0,2,0,2,2,0003-00-0001-99.png,0005-00-0001-50.png
00000014,252,1,1450106700677,1450106701200,905,479,0,0,0,3,0,3,3,0002-00-0000-16.png,0005-00-0000-95.png
00000014,253,1,1450106702397,1450106703053,870,524,0,0,0,2,1,1,3,0003-00-0001-70.png,0004-00-0000-78.png
00000014,254,1,1450106704277,1450106704750,427,476,0,0,0,0,4,4,4,0005-00-0001-22.png,0001-00-0000-29.png
00000014,255,1,1450106706065,1450106706490,364,476,0,0,0,0,2,2,2,0005-00-0000-89.png,0003-00-0001-27.png
00000014,256,0,1450106707785,1450106708443,888,449,0,0,0,2,3,1,5,0003-00-0001-83.png,0002-00-0001-96.png
00000014,257,1,1450106711284,1450106712242,945,430,0,0,0,3,1,2,4,0002-00-0000-57.png,0004-00-0000-65.png
00000014,258,1,1450106713421,1450106714057,888,449,0,0,0,4,1,3,5,0001-00-0001-67.png,0004-00-0000-61.png
00000014,259,0,1450106715226,1450106715816,876,450,0,0,0,1,2,1,3,0004-00-0000-82.png,0003-00-0001-19.png
00000014,260,1,1450106718818,1450106719319,951,463,0,0,0,4,2,2,6,0001-00-0000-36.png,0003-00-0001-71.png
00000014,261,0,1450106720438,1450106721148,899,474,0,0,0,0,1,1,1,0005-00-0001-66.png,0004-00-0001-25.png
00000014,262,1,1450106724065,1450106724580,344,420,0,0,0,0,4,4,4,0005-00-0000-93.png,0001-00-0001-58.png
00000014,263,1,1450106725697,1450106726220,924,458,0,0,0,1,0,1,1,0004-00-0000-85.png,0005-00-0000-62.png
00000014,264,1,1450106727437,1450106728022,863,444,0,0,0,2,1,1,3,0003-00-0001-36.png,0004-00-0001-68.png
00000014,265,0,1450106729174,1450106730248,878,442,0,0,0,1,3,2,4,0004-00-0000-40.png,0002-00-0001-57.png
00000014,266,0,1450106733218,1450106733663,952,488,0,0,0,2,4,2,6,0003-00-0001-92.png,0001-00-0001-59.png
00000014,267,0,1450106736569,1450106737013,939,450,0,0,0,3,4,1,7,0002-00-0001-90.png,0001-00-0001-83.png
00000014,268,0,1450106740154,1450106740578,953,462,0,0,0,1,4,3,5,0004-00-0000-54.png,0001-00-0001-63.png
00000014,269,1,1450106743786,1450106744319,406,380,0,0,0,0,3,3,3,0005-00-0001-89.png,0002-00-0000-59.png
00000014,270,1,1450106745404,1450106746050,876,476,0,0,0,4,0,4,4,0001-00-0001-13.png,0005-00-0000-35.png
00000014,271,1,1450106747264,1450106747786,926,442,0,0,0,4,2,2,6,0001-00-0001-71.png,0003-00-0001-70.png
00000014,272,0,1450106748915,1450106749346,376,474,0,0,0,3,2,1,5,0002-00-0001-38.png,0003-00-0001-13.png
00000014,273,1,1450106752461,1450106752873,900,397,0,0,0,3,1,2,4,0002-00-0000-18.png,0004-00-0000-26.png
00000014,274,1,1450106753974,1450106754816,897,544,0,0,0,4,3,1,7,0001-00-0001-62.png,0002-00-0000-77.png
00000014,275,1,1450106755923,1450106756474,878,468,0,0,0,3,0,3,3,0002-00-0000-13.png,0005-00-0001-08.png
00000014,276,0,1450106757692,1450106758275,870,472,0,0,0,2,3,1,5,0003-00-0000-44.png,0002-00-0000-11.png
00000014,277,0,1450106761567,1450106762030,896,550,0,0,0,1,2,1,3,0004-00-0001-96.png,0003-00-0000-46.png
00000014,278,0,1450106764922,1450106765530,934,447,0,0,0,0,2,2,2,0005-00-0001-36.png,0003-00-0001-60.png
00000014,279,1,1450106768584,1450106769063,952,450,0,0,0,2,0,2,2,0003-00-0001-91.png,0005-00-0001-48.png
00000014,280,0,1450106770116,1450106770575,342,471,0,0,0,4,1,3,5,0001-00-0000-03.png,0004-00-0000-03.png
00000014,281,1,1450106773824,1450106774225,959,421,0,0,0,4,3,1,7,0001-00-0001-37.png,0002-00-0000-87.png
00000014,282,1,1450106775363,1450106775833,411,457,0,0,0,0,3,3,3,0005-00-0001-89.png,0002-00-0000-04.png
00000014,283,0,1450106777023,1450106777570,899,439,0,0,0,3,4,1,7,0002-00-0001-74.png,0001-00-0000-93.png
00000014,284,1,1450106780501,1450106780533,518,448,0,0,0,1,3,2,4,0004-00-0000-78.png,0002-00-0001-84.png
00000014,285,1,1450106782182,1450106782953,929,492,0,0,0,3,2,1,5,0002-00-0001-93.png,0003-00-0000-52.png
00000014,286,1,1450106784798,1450106785236,366,450,0,0,0,0,1,1,1,0005-00-0000-51.png,0004-00-0001-14.png
00000014,287,0,1450106786715,1450106787405,894,472,0,0,0,1,4,3,5,0004-00-0001-24.png,0001-00-0000-34.png
00000014,288,1,1450106790278,1450106790795,963,476,0,0,0,4,1,3,5,0001-00-0001-15.png,0004-00-0000-19.png
00000014,289,0,1450106791952,1450106792425,366,490,0,0,0,4,2,2,6,0001-00-0000-90.png,0003-00-0000-27.png
00000014,290,1,1450106795374,1450106795850,993,451,0,0,0,3,1,2,4,0002-00-0001-10.png,0004-00-0000-38.png
00000014,291,1,1450106796991,1450106797540,900,450,0,0,0,1,0,1,1,0004-00-0000-40.png,0005-00-0001-93.png
00000014,292,1,1450106798709,1450106799300,900,475,0,0,0,2,1,1,3,0003-00-0000-44.png,0004-00-0001-00.png
00000014,293,1,1450106800689,1450106801139,396,471,0,0,0,0,2,2,2,0005-00-0001-04.png,0003-00-0001-29.png
00000014,294,1,1450106802348,1450106802862,337,474,0,0,0,1,2,1,3,0004-00-0000-93.png,0003-00-0001-37.png
00000014,295,1,1450106804555,1450106805018,342,455,0,0,0,0,4,4,4,0005-00-0001-92.png,0001-00-0001-12.png
00000014,296,0,1450106806195,1450106807316,875,554,0,0,0,2,3,1,5,0003-00-0001-84.png,0002-00-0000-59.png
00000014,297,0,1450106810628,1450106811079,950,509,0,0,0,2,4,2,6,0003-00-0000-25.png,0001-00-0001-20.png
00000014,298,1,1450106814259,1450106814654,951,462,0,0,0,3,0,3,3,0002-00-0000-22.png,0005-00-0000-92.png
00000014,299,1,1450106815756,1450106816343,900,468,0,0,0,4,0,4,4,0001-00-0001-64.png,0005-00-0001-04.png
00000014,300,1,1450106817496,1450106818071,899,457,0,0,0,2,0,2,2,0003-00-0001-34.png,0005-00-0001-74.png
00000014,301,0,1450106819404,1450106819957,876,461,0,0,0,1,4,3,5,0004-00-0001-99.png,0001-00-0001-60.png
00000014,302,0,1450106823001,1450106823466,951,475,0,0,0,1,3,2,4,0004-00-0001-11.png,0002-00-0000-31.png
00000014,303,1,1450106826582,1450106827061,953,451,0,0,0,1,0,1,1,0004-00-0001-09.png,0005-00-0001-29.png
00000014,304,1,1450106828242,1450106828716,350,476,0,0,0,0,3,3,3,0005-00-0000-97.png,0002-00-0000-49.png
00000014,305,1,1450106829921,1450106830501,873,553,0,0,0,4,2,2,6,0001-00-0000-63.png,0003-00-0001-19.png
00000014,306,1,1450106831669,1450106832250,902,450,0,0,0,3,0,3,3,0002-00-0000-00.png,0005-00-0001-13.png
00000014,307,0,1450106833526,1450106834118,865,440,0,0,0,2,4,2,6,0003-00-0000-96.png,0001-00-0000-83.png
00000014,308,0,1450106837230,1450106837757,916,408,0,0,0,0,1,1,1,0005-00-0000-91.png,0004-00-0001-21.png
00000014,309,1,1450106840654,1450106841249,912,529,0,0,0,3,2,1,5,0002-00-0000-62.png,0003-00-0000-49.png
00000014,310,0,1450106842275,1450106842816,880,480,0,0,0,2,3,1,5,0003-00-0000-49.png,0002-00-0000-09.png
00000014,311,1,1450106845824,1450106846445,950,461,0,0,0,4,3,1,7,0001-00-0000-97.png,0002-00-0001-40.png
00000014,312,1,1450106847593,1450106848133,350,462,0,0,0,1,2,1,3,0004-00-0001-37.png,0003-00-0001-14.png
00000014,313,1,1450106849381,1450106850228,395,445,0,0,0,0,2,2,2,0005-00-0000-19.png,0003-00-0001-28.png
00000014,314,0,1450106851403,1450106852086,390,414,0,0,0,4,1,3,5,0001-00-0001-85.png,0004-00-0001-84.png
00000014,315,0,1450106855132,1450106855592,899,534,0,0,0,3,4,1,7,0002-00-0000-56.png,0001-00-0001-76.png
00000014,316,1,1450106858961,1450106859447,977,462,0,0,0,2,0,2,2,0003-00-0000-77.png,0005-00-0000-60.png
00000014,317,0,1450106860533,1450106861006,373,488,0,0,0,3,1,2,4,0002-00-0001-34.png,0004-00-0000-67.png
00000014,318,0,1450106864070,1450106864579,900,528,0,0,0,0,4,4,4,0005-00-0001-72.png,0001-00-0000-53.png
00000014,319,1,1450106867875,1450106868321,889,548,0,0,0,4,0,4,4,0001-00-0001-39.png,0005-00-0001-09.png
00000014,320,1,1450106869418,1450106870038,893,465,0,0,0,2,1,1,3,0003-00-0000-28.png,0004-00-0001-95.png
00000014,321,1,1450106871285,1450106871829,901,450,0,0,0,3,1,2,4,0002-00-0001-57.png,0004-00-0001-96.png
00000014,322,0,1450106873069,1450106873585,899,465,0,0,0,2,4,2,6,0003-00-0001-63.png,0001-00-0001-48.png
00000014,323,1,1450106876820,1450106877290,940,475,0,0,0,4,2,2,6,0001-00-0001-33.png,0003-00-0000-08.png
00000014,324,1,1450106878531,1450106879104,871,524,0,0,0,3,0,3,3,0002-00-0000-30.png,0005-00-0000-33.png
00000014,325,1,1450106880271,1450106880878,872,456,0,0,0,4,3,1,7,0001-00-0001-94.png,0002-00-0000-64.png
00000014,326,1,1450106882051,1450106882492,370,471,0,0,0,0,1,1,1,0005-00-0000-77.png,0004-00-0001-94.png
00000014,327,1,1450106883764,1450106884312,382,463,0,0,0,0,4,4,4,0005-00-0000-44.png,0001-00-0001-90.png
00000014,328,1,1450106885559,1450106886728,903,442,0,0,0,4,1,3,5,0001-00-0001-60.png,0004-00-0001-00.png
00000014,329,0,1450106887906,1450106888345,419,454,0,0,0,1,0,1,1,0004-00-0000-74.png,0005-00-0001-30.png
00000014,330,0,1450106891571,1450106892001,896,393,0,0,0,3,4,1,7,0002-00-0000-87.png,0001-00-0001-96.png
00000014,331,0,1450106895306,1450106895930,936,421,0,0,0,1,2,1,3,0004-00-0001-23.png,0003-00-0001-31.png
00000014,332,1,1450106899014,1450106899404,985,474,0,0,0,2,1,1,3,0003-00-0000-75.png,0004-00-0001-20.png
00000014,333,1,1450106900606,1450106901315,924,457,0,0,0,4,0,4,4,0001-00-0001-60.png,0005-00-0000-35.png
00000014,334,1,1450106902494,1450106902911,337,462,0,0,0,0,3,3,3,0005-00-0001-40.png,0002-00-0001-12.png
00000014,335,0,1450106904145,1450106904686,903,467,0,0,0,1,3,2,4,0004-00-0001-84.png,0002-00-0000-01.png
00000014,336,0,1450106907591,1450106908096,901,528,0,0,0,1,4,3,5,0004-00-0000-79.png,0001-00-0000-24.png
00000014,337,0,1450106915367,1450106915824,953,487,0,0,0,0,2,2,2,0005-00-0000-19.png,0003-00-0000-92.png
00000014,338,1,1450106918736,1450106919156,951,449,0,0,0,2,0,2,2,0003-00-0000-25.png,0005-00-0001-48.png
00000014,339,1,1450106920172,1450106921061,438,386,0,0,0,2,3,1,5,0003-00-0000-92.png,0002-00-0001-87.png
00000014,340,1,1450106922237,1450106922843,879,442,0,0,0,3,2,1,5,0002-00-0001-22.png,0003-00-0000-22.png
00000014,341,1,1450106923928,1450106924692,921,463,0,0,0,3,2,1,5,0002-00-0000-44.png,0003-00-0001-33.png
00000014,342,1,1450106925845,1450106926550,900,424,0,0,0,2,0,2,2,0003-00-0000-45.png,0005-00-0001-03.png
00000014,343,1,1450106927647,1450106928069,350,451,0,0,0,0,3,3,3,0005-00-0001-40.png,0002-00-0001-21.png
00000014,344,0,1450106929436,1450106930035,873,462,0,0,0,2,3,1,5,0003-00-0000-82.png,0002-00-0000-86.png
00000014,345,1,1450106933033,1450106933486,879,559,0,0,0,4,2,2,6,0001-00-0000-75.png,0003-00-0001-70.png
00000014,346,1,1450106935146,1450106935688,899,448,0,0,0,4,1,3,5,0001-00-0001-75.png,0004-00-0001-89.png
00000014,347,0,1450106936989,1450106937480,389,489,0,0,0,3,1,2,4,0002-00-0001-29.png,0004-00-0000-87.png
00000014,348,1,1450106940477,1450106941151,982,427,0,0,0,4,3,1,7,0001-00-0001-35.png,0002-00-0000-22.png
00000014,349,1,1450106942408,1450106942859,354,453,0,0,0,0,1,1,1,0005-00-0000-45.png,0004-00-0000-47.png
00000014,350,1,1450106944145,1450106944581,419,479,0,0,0,0,2,2,2,0005-00-0001-61.png,0003-00-0001-36.png
00000014,351,1,1450106946243,1450106946860,898,458,0,0,0,2,1,1,3,0003-00-0001-36.png,0004-00-0001-80.png
00000014,352,0,1450106948116,1450106948747,894,538,0,0,0,2,4,2,6,0003-00-0000-64.png,0001-00-0001-46.png
00000014,353,1,1450106952025,1450106952588,453,410,0,0,0,1,2,1,3,0004-00-0000-97.png,0003-00-0000-45.png
00000014,354,1,1450106953717,1450106954231,899,449,0,0,0,1,0,1,1,0004-00-0000-63.png,0005-00-0000-62.png
00000014,355,1,1450106955457,1450106955913,362,476,0,0,0,0,4,4,4,0005-00-0000-28.png,0001-00-0000-17.png
00000014,356,1,1450106958090,1450106958674,889,468,0,0,0,4,0,4,4,0001-00-0000-24.png,0005-00-0000-04.png
00000014,357,1,1450106959822,1450106960395,872,455,0,0,0,3,0,3,3,0002-00-0001-52.png,0005-00-0000-53.png
00000014,358,1,1450106961607,1450106962092,356,489,0,0,0,1,3,2,4,0004-00-0000-74.png,0002-00-0001-38.png
00000014,359,1,1450106963409,1450106963992,378,411,0,0,0,3,4,1,7,0002-00-0001-21.png,0001-00-0000-80.png
00000014,360,0,1450106965376,1450106966080,921,394,0,0,0,1,4,3,5,0004-00-0000-88.png,0001-00-0001-04.png
00000014,361,1,1450106968954,1450106969480,864,438,0,0,0,4,0,4,4,0001-00-0001-54.png,0005-00-0001-84.png
00000014,362,1,1450106970682,1450106971263,893,444,0,0,0,1,0,1,1,0004-00-0001-43.png,0005-00-0000-09.png
00000014,363,0,1450106972563,1450106973755,951,448,0,0,0,2,4,2,6,0003-00-0000-39.png,0001-00-0001-19.png
00000014,364,1,1450106976690,1450106977158,877,546,0,0,0,3,0,3,3,0002-00-0000-33.png,0005-00-0000-12.png
00000014,365,1,1450106978325,1450106978784,427,464,0,0,0,0,3,3,3,0005-00-0000-67.png,0002-00-0000-10.png
00000014,366,1,1450106980045,1450106980744,873,536,0,0,0,2,1,1,3,0003-00-0000-04.png,0004-00-0001-97.png
00000014,367,1,1450106981983,1450106982665,877,448,0,0,0,3,2,1,5,0002-00-0001-34.png,0003-00-0001-07.png
00000014,368,1,1450106983903,1450106984362,401,436,0,0,0,0,2,2,2,0005-00-0000-80.png,0003-00-0000-75.png
00000014,369,1,1450106985614,1450106986103,367,458,0,0,0,0,4,4,4,0005-00-0000-95.png,0001-00-0001-11.png
00000014,370,0,1450106987452,1450106987959,404,459,0,0,0,3,1,2,4,0002-00-0001-53.png,0004-00-0001-61.png
00000014,371,1,1450106991096,1450106991545,939,449,0,0,0,4,3,1,7,0001-00-0001-38.png,0002-00-0000-62.png
00000014,372,1,1450106992729,1450106993361,899,437,0,0,0,2,0,2,2,0003-00-0001-73.png,0005-00-0000-42.png
00000014,373,0,1450106994719,1450106995154,331,464,0,0,0,4,2,2,6,0001-00-0000-69.png,0003-00-0000-58.png
00000014,374,0,1450106998235,1450106998726,954,494,0,0,0,1,2,1,3,0004-00-0000-93.png,0003-00-0000-65.png
00000014,375,0,1450107001648,1450107002438,383,445,0,0,0,4,1,3,5,0001-00-0000-03.png,0004-00-0001-06.png
00000014,376,0,1450107005576,1450107006161,952,463,0,0,0,1,4,3,5,0004-00-0000-99.png,0001-00-0001-49.png
00000014,377,1,1450107009093,1450107009641,416,437,0,0,0,1,3,2,4,0004-00-0001-36.png,0002-00-0000-46.png
00000014,378,0,1450107010768,1450107011425,894,467,0,0,0,3,4,1,7,0002-00-0000-60.png,0001-00-0001-64.png
00000014,379,0,1450107014456,1450107014984,925,410,0,0,0,2,3,1,5,0003-00-0000-98.png,0002-00-0000-68.png
00000014,380,1,1450107017894,1450107018449,350,423,0,0,0,0,1,1,1,0005-00-0001-76.png,0004-00-0001-88.png
00000014,381,1,1450107019563,1450107020026,427,461,0,0,0,0,4,4,4,0005-00-0000-19.png,0001-00-0001-72.png
00000014,382,0,1450107021300,1450107022302,900,449,0,0,0,1,4,3,5,0004-00-0001-88.png,0001-00-0000-00.png
00000014,383,0,1450107025656,1450107026097,928,469,0,0,0,0,2,2,2,0005-00-0000-33.png,0003-00-0000-59.png
00000014,384,1,1450107028965,1450107029479,874,515,0,0,0,2,0,2,2,0003-00-0001-70.png,0005-00-0000-87.png
00000014,385,1,1450107031086,1450107031567,921,471,0,0,0,1,0,1,1,0004-00-0000-97.png,0005-00-0000-04.png
00000014,386,0,1450107032584,1450107032624,504,503,0,0,0,4,1,3,5,0001-00-0000-61.png,0004-00-0000-39.png
00000014,387,1,1450107036303,1450107036756,929,523,0,0,0,3,0,3,3,0002-00-0000-66.png,0005-00-0000-92.png
00000014,388,0,1450107038091,1450107038623,900,475,0,0,0,2,3,1,5,0003-00-0001-81.png,0002-00-0000-59.png
00000014,389,1,1450107041678,1450107042223,953,462,0,0,0,2,1,1,3,0003-00-0001-16.png,0004-00-0001-75.png
00000014,390,1,1450107043436,1450107043921,338,500,0,0,0,0,1,1,1,0005-00-0001-96.png,0004-00-0001-82.png
00000014,391,1,1450107045115,1450107045521,318,480,0,0,0,0,3,3,3,0005-00-0000-20.png,0002-00-0000-89.png
00000014,392,1,1450107047223,1450107047856,875,410,0,0,0,4,2,2,6,0001-00-0001-42.png,0003-00-0000-50.png
00000014,393,0,1450107049143,1450107049826,875,461,0,0,0,3,4,1,7,0002-00-0000-36.png,0001-00-0000-28.png
00000014,394,1,1450107053334,1450107053758,955,465,0,0,0,3,2,1,5,0002-00-0001-54.png,0003-00-0001-41.png
00000014,395,1,1450107054872,1450107055673,404,408,0,0,0,1,2,1,3,0004-00-0000-69.png,0003-00-0001-48.png
00000014,396,1,1450107056924,1450107057488,875,461,0,0,0,4,3,1,7,0001-00-0000-26.png,0002-00-0001-98.png
00000014,397,1,1450107058733,1450107059412,870,472,0,0,0,4,0,4,4,0001-00-0000-69.png,0005-00-0001-13.png
00000014,398,1,1450107060562,1450107060941,406,482,0,0,0,1,3,2,4,0004-00-0000-06.png,0002-00-0001-99.png
00000014,399,1,1450107062200,1450107062813,925,464,0,0,0,3,1,2,4,0002-00-0001-86.png,0004-00-0000-26.png
00000014,400,0,1450107064053,1450107064731,900,475,0,0,0,2,4,2,6,0003-00-0000-78.png,0001-00-0000-13.png
00000014,401,0,1450107067850,1450107068323,923,456,0,0,0,3,4,1,7,0002-00-0000-62.png,0001-00-0000-10.png
00000014,402,0,1450107071266,1450107071741,904,533,0,0,0,1,2,1,3,0004-00-0000-49.png,0003-00-0001-27.png
00000014,403,1,1450107074729,1450107075215,904,559,0,0,0,3,2,1,5,0002-00-0000-58.png,0003-00-0000-09.png
00000014,404,1,1450107076365,1450107077022,900,501,0,0,0,4,0,4,4,0001-00-0001-98.png,0005-00-0001-92.png
00000014,405,0,1450107078322,1450107078847,900,462,0,0,0,1,3,2,4,0004-00-0000-34.png,0002-00-0001-67.png
00000014,406,0,1450107081793,1450107082305,923,514,0,0,0,0,1,1,1,0005-00-0000-75.png,0004-00-0000-55.png
00000014,407,1,1450107085382,1450107085850,878,459,0,0,0,4,3,1,7,0001-00-0001-70.png,0002-00-0000-02.png
00000014,408,0,1450107086932,1450107087647,945,476,0,0,0,0,4,4,4,0005-00-0000-54.png,0001-00-0000-07.png
00000014,409,0,1450107091394,1450107091902,962,500,0,0,0,2,3,1,5,0003-00-0001-68.png,0002-00-0000-28.png
00000014,410,1,1450107094941,1450107095458,389,462,0,0,0,0,3,3,3,0005-00-0000-47.png,0002-00-0000-75.png
00000014,411,0,1450107096731,1450107097374,366,432,0,0,0,1,0,1,1,0004-00-0001-68.png,0005-00-0000-36.png
00000014,412,1,1450107100318,1450107100832,953,468,0,0,0,3,0,3,3,0002-00-0001-75.png,0005-00-0000-03.png
00000014,413,1,1450107102456,1450107102931,392,460,0,0,0,0,2,2,2,0005-00-0001-11.png,0003-00-0001-86.png
00000014,414,1,1450107104106,1450107104698,919,442,0,0,0,3,1,2,4,0002-00-0001-93.png,0004-00-0000-11.png
00000014,415,1,1450107105855,1450107106290,410,471,0,0,0,1,4,3,5,0004-00-0000-03.png,0001-00-0001-91.png
00000014,416,0,1450107107462,1450107107989,870,472,0,0,0,2,4,2,6,0003-00-0000-55.png,0001-00-0000-05.png
00000014,417,0,1450107111285,1450107111815,472,469,0,0,0,4,2,2,6,0001-00-0001-68.png,0003-00-0001-44.png
00000014,418,1,1450107114899,1450107115404,959,474,0,0,0,2,0,2,2,0003-00-0000-88.png,0005-00-0000-62.png
00000014,419,0,1450107116570,1450107117259,394,449,0,0,0,4,1,3,5,0001-00-0000-27.png,0004-00-0001-65.png
00000014,420,1,1450107120373,1450107120851,959,447,0,0,0,2,1,1,3,0003-00-0000-28.png,0004-00-0001-32.png
00000014,421,0,1450107121957,1450107122634,415,424,0,0,0,4,3,1,7,0001-00-0001-40.png,0002-00-0000-08.png
00000014,422,0,1450107125583,1450107126308,913,358,0,0,0,1,4,3,5,0004-00-0001-80.png,0001-00-0000-52.png
00000014,423,0,1450107129151,1450107129638,945,486,0,0,0,2,4,2,6,0003-00-0001-44.png,0001-00-0000-42.png
00000014,424,1,1450107132524,1450107133046,876,521,0,0,0,4,0,4,4,0001-00-0000-00.png,0005-00-0001-18.png
00000014,425,0,1450107134263,1450107134939,925,464,0,0,0,2,3,1,5,0003-00-0000-85.png,0002-00-0000-68.png
00000014,426,1,1450107137939,1450107138465,407,541,0,0,0,1,3,2,4,0004-00-0000-86.png,0002-00-0000-14.png
00000014,427,1,1450107139567,1450107140259,897,430,0,0,0,2,1,1,3,0003-00-0001-95.png,0004-00-0001-27.png
00000014,428,1,1450107141401,1450107141801,401,476,0,0,0,0,3,3,3,0005-00-0000-62.png,0002-00-0001-02.png
00000014,429,1,1450107142957,1450107143677,900,476,0,0,0,3,2,1,5,0002-00-0001-65.png,0003-00-0000-41.png
00000014,430,1,1450107144847,1450107145408,863,449,0,0,0,2,0,2,2,0003-00-0001-91.png,0005-00-0001-48.png
00000014,431,1,1450107146597,1450107147117,888,476,0,0,0,3,0,3,3,0002-00-0000-13.png,0005-00-0001-90.png
00000014,432,1,1450107148325,1450107148769,453,503,0,0,0,3,4,1,7,0002-00-0000-72.png,0001-00-0000-35.png
00000014,433,1,1450107150063,1450107150885,926,462,0,0,0,3,1,2,4,0002-00-0001-64.png,0004-00-0001-31.png
00000014,434,0,1450107152155,1450107152680,382,502,0,0,0,1,0,1,1,0004-00-0000-00.png,0005-00-0001-68.png
00000014,435,1,1450107155921,1450107156524,958,493,0,0,0,4,2,2,6,0001-00-0000-60.png,0003-00-0000-41.png
00000014,436,1,1450107157685,1450107158100,350,481,0,0,0,0,4,4,4,0005-00-0000-97.png,0001-00-0000-90.png
00000014,437,0,1450107159387,1450107159958,892,469,0,0,0,1,2,1,3,0004-00-0001-52.png,0003-00-0000-79.png
00000014,438,0,1450107162885,1450107163353,969,466,0,0,0,0,2,2,2,0005-00-0001-16.png,0003-00-0001-43.png
00000014,439,1,1450107166910,1450107167435,415,555,0,0,0,0,1,1,1,0005-00-0001-24.png,0004-00-0001-66.png
00000014,440,1,1450107168928,1450107169559,925,502,0,0,0,4,1,3,5,0001-00-0001-84.png,0004-00-0000-13.png
00000014,441,1,1450107170844,1450107171473,867,537,0,0,0,4,1,3,5,0001-00-0000-77.png,0004-00-0001-22.png
00000014,442,1,1450107172882,1450107173440,899,472,0,0,0,3,0,3,3,0002-00-0000-10.png,0005-00-0001-36.png
00000014,443,1,1450107174654,1450107175422,907,501,0,0,0,4,2,2,6,0001-00-0000-64.png,0003-00-0000-46.png
00000014,444,1,1450107176577,1450107177044,453,489,0,0,0,0,2,2,2,0005-00-0000-66.png,0003-00-0000-34.png
00000014,445,1,1450107178340,1450107179765,392,410,0,0,0,1,4,3,5,0004-00-0000-66.png,0001-00-0001-38.png
00000014,446,1,1450107181055,1450107181589,876,460,0,0,0,2,0,2,2,0003-00-0001-76.png,0005-00-0000-16.png
00000014,447,1,1450107182738,1450107183340,895,550,0,0,0,1,0,1,1,0004-00-0000-14.png,0005-00-0000-06.png
00000014,448,1,1450107184753,1450107185291,427,553,0,0,0,1,3,2,4,0004-00-0001-17.png,0002-00-0001-40.png
00000014,449,1,1450107186569,1450107187166,896,472,0,0,0,3,1,2,4,0002-00-0000-46.png,0004-00-0001-72.png
00000014,450,1,1450107188433,1450107188989,423,443,0,0,0,0,4,4,4,0005-00-0000-40.png,0001-00-0001-96.png
00000014,451,0,1450107190297,1450107191352,862,410,0,0,0,2,3,1,5,0003-00-0001-31.png,0002-00-0000-65.png
00000014,452,0,1450107194887,1450107195336,981,506,0,0,0,3,4,1,7,0002-00-0000-79.png,0001-00-0001-80.png
00000014,453,1,1450107198430,1450107199023,925,555,0,0,0,4,3,1,7,0001-00-0001-45.png,0002-00-0000-97.png
00000014,454,1,1450107200236,1450107200826,926,449,0,0,0,4,0,4,4,0001-00-0000-62.png,0005-00-0000-25.png
00000014,455,1,1450107202087,1450107202855,874,501,0,0,0,2,1,1,3,0003-00-0001-09.png,0004-00-0000-74.png
00000014,456,0,1450107204105,1450107204668,900,463,0,0,0,2,4,2,6,0003-00-0001-75.png,0001-00-0000-80.png
00000014,457,1,1450107207738,1450107208284,440,449,0,0,0,0,1,1,1,0005-00-0000-88.png,0004-00-0000-43.png
00000014,458,1,1450107209533,1450107209971,401,459,0,0,0,0,3,3,3,0005-00-0000-41.png,0002-00-0000-91.png
00000014,459,0,1450107211499,1450107212071,861,554,0,0,0,1,2,1,3,0004-00-0001-05.png,0003-00-0000-01.png
00000014,460,1,1450107215147,1450107215680,978,489,0,0,0,3,2,1,5,0002-00-0000-34.png,0003-00-0000-72.png
00000014,461,1,1450107217442,1450107217956,921,472,0,0,0,1,0,1,1,0004-00-0000-35.png,0005-00-0000-00.png
00000014,462,1,1450107219186,1450107219764,863,541,0,0,0,4,0,4,4,0001-00-0000-74.png,0005-00-0000-65.png
00000014,463,1,1450107221010,1450107221597,880,480,0,0,0,2,1,1,3,0003-00-0000-31.png,0004-00-0001-87.png
00000014,464,1,1450107222918,1450107223333,453,492,0,0,0,1,3,2,4,0004-00-0000-68.png,0002-00-0000-55.png
00000014,465,1,1450107224762,1450107225222,363,448,0,0,0,0,2,2,2,0005-00-0000-55.png,0003-00-0001-14.png
00000014,466,0,1450107226518,1450107227103,359,443,0,0,0,3,2,1,5,0002-00-0001-18.png,0003-00-0001-41.png
00000014,467,0,1450107230165,1450107230723,984,498,0,0,0,3,4,1,7,0002-00-0001-39.png,0001-00-0000-55.png
00000014,468,1,1450107233654,1450107234114,900,541,0,0,0,4,2,2,6,0001-00-0000-74.png,0003-00-0000-40.png
00000014,469,1,1450107235242,1450107235874,351,432,0,0,0,1,4,3,5,0004-00-0001-40.png,0001-00-0001-23.png
00000014,470,0,1450107237965,1450107238398,900,463,0,0,0,2,4,2,6,0003-00-0001-80.png,0001-00-0001-42.png
00000014,471,1,1450107241476,1450107242002,420,419,0,0,0,0,1,1,1,0005-00-0001-42.png,0004-00-0000-40.png
00000014,472,1,1450107243573,1450107244048,385,479,0,0,0,0,4,4,4,0005-00-0000-22.png,0001-00-0001-13.png
00000014,473,1,1450107245738,1450107246227,888,449,0,0,0,4,1,3,5,0001-00-0001-50.png,0004-00-0000-91.png
00000014,474,1,1450107247570,1450107248619,427,497,0,0,0,2,3,1,5,0003-00-0001-57.png,0002-00-0000-43.png
00000014,475,0,1450107249911,1450107250345,465,476,0,0,0,4,3,1,7,0001-00-0001-16.png,0002-00-0001-65.png
00000014,476,1,1450107253715,1450107254216,972,523,0,0,0,3,1,2,4,0002-00-0000-85.png,0004-00-0000-00.png
00000014,477,1,1450107256265,1450107256769,432,537,0,0,0,1,2,1,3,0004-00-0001-20.png,0003-00-0000-39.png
00000014,478,1,1450107258012,1450107258447,409,472,0,0,0,0,3,3,3,0005-00-0001-90.png,0002-00-0001-91.png
00000014,479,1,1450107259713,1450107260519,874,436,0,0,0,3,0,3,3,0002-00-0000-95.png,0005-00-0000-98.png
00000014,480,1,1450107261745,1450107262248,901,476,0,0,0,2,0,2,2,0003-00-0000-26.png,0005-00-0000-17.png
00000014,481,1,1450107263472,1450107263897,401,475,0,0,0,0,3,3,3,0005-00-0001-00.png,0002-00-0000-21.png
00000014,482,1,1450107265282,1450107265860,951,462,0,0,0,1,0,1,1,0004-00-0000-17.png,0005-00-0001-86.png
00000014,483,1,1450107267186,1450107267776,900,464,0,0,0,4,1,3,5,0001-00-0001-73.png,0004-00-0000-75.png
00000014,484,1,1450107269100,1450107269555,427,475,0,0,0,1,4,3,5,0004-00-0001-38.png,0001-00-0000-97.png
00000014,485,1,1450107270896,1450107271472,883,482,0,0,0,2,1,1,3,0003-00-0000-49.png,0004-00-0001-45.png
00000014,486,1,1450107272923,1450107273404,371,498,0,0,0,0,4,4,4,0005-00-0001-16.png,0001-00-0000-70.png
00000014,487,1,1450107274963,1450107275552,870,471,0,0,0,2,0,2,2,0003-00-0000-98.png,0005-00-0000-77.png
00000014,488,1,1450107276952,1450107277360,385,490,0,0,0,0,1,1,1,0005-00-0001-79.png,0004-00-0000-94.png
00000014,489,1,1450107278622,1450107279230,875,463,0,0,0,3,2,1,5,0002-00-0001-26.png,0003-00-0000-74.png
00000014,490,0,1450107280589,1450107281022,350,494,0,0,0,4,3,1,7,0001-00-0001-86.png,0002-00-0001-77.png
00000014,491,1,1450107284064,1450107284591,900,554,0,0,0,4,2,2,6,0001-00-0000-08.png,0003-00-0001-17.png
00000014,492,0,1450107285828,1450107286518,858,556,0,0,0,2,4,2,6,0003-00-0001-89.png,0001-00-0000-18.png
00000014,493,1,1450107289461,1450107290004,952,462,0,0,0,3,1,2,4,0002-00-0000-93.png,0004-00-0000-44.png
00000014,494,1,1450107291354,1450107291844,392,482,0,0,0,1,3,2,4,0004-00-0000-17.png,0002-00-0000-61.png
00000014,495,1,1450107293173,1450107293684,392,481,0,0,0,1,2,1,3,0004-00-0001-69.png,0003-00-0000-26.png
00000014,496,1,1450107294998,1450107295441,427,482,0,0,0,0,2,2,2,0005-00-0001-65.png,0003-00-0001-73.png
00000014,497,0,1450107297139,1450107297695,893,430,0,0,0,3,4,1,7,0002-00-0000-27.png,0001-00-0000-49.png
00000014,498,1,1450107300694,1450107301208,950,448,0,0,0,3,0,3,3,0002-00-0001-97.png,0005-00-0001-41.png
00000014,499,1,1450107302434,1450107303056,924,487,0,0,0,4,0,4,4,0001-00-0000-30.png,0005-00-0001-03.png
00000014,500,0,1450107304302,1450107305367,928,442,0,0,0,2,3,1,5,0003-00-0000-50.png,0002-00-0000-57.png
00000014,501,1,1450107308290,1450107308771,958,448,0,0,0,3,1,2,4,0002-00-0000-54.png,0004-00-0001-46.png
00000014,502,0,1450107310052,1450107310753,897,460,0,0,0,2,3,1,5,0003-00-0000-74.png,0002-00-0000-13.png
00000014,503,1,1450107313845,1450107314367,401,462,0,0,0,0,4,4,4,0005-00-0000-39.png,0001-00-0001-11.png
00000014,504,0,1450107316042,1450107316589,901,460,0,0,0,3,4,1,7,0002-00-0001-45.png,0001-00-0000-57.png
00000014,505,1,1450107320117,1450107320579,965,500,0,0,0,1,0,1,1,0004-00-0000-23.png,0005-00-0001-99.png
00000014,506,1,1450107322272,1450107322725,925,423,0,0,0,2,0,2,2,0003-00-0001-87.png,0005-00-0001-57.png
00000014,507,1,1450107323913,1450107324376,356,489,0,0,0,0,3,3,3,0005-00-0000-35.png,0002-00-0001-79.png
00000014,508,1,1450107325828,1450107326486,905,426,0,0,0,3,0,3,3,0002-00-0001-42.png,0005-00-0000-77.png
00000014,509,0,1450107327765,1450107328500,924,457,0,0,0,1,2,1,3,0004-00-0001-37.png,0003-00-0000-04.png
00000014,510,1,1450107331998,1450107332482,901,555,0,0,0,4,0,4,4,0001-00-0001-65.png,0005-00-0000-45.png
00000014,511,1,1450107333692,1450107334122,414,488,0,0,0,1,3,2,4,0004-00-0001-98.png,0002-00-0000-23.png
00000014,512,0,1450107335353,1450107335989,873,483,0,0,0,1,4,3,5,0004-00-0000-45.png,0001-00-0000-66.png
00000014,513,0,1450107338992,1450107339468,890,561,0,0,0,0,1,1,1,0005-00-0001-74.png,0004-00-0000-88.png
00000014,514,1,1450107342519,1450107342935,936,477,0,0,0,3,2,1,5,0002-00-0001-93.png,0003-00-0000-93.png
00000014,515,1,1450107344080,1450107344651,937,502,0,0,0,2,1,1,3,0003-00-0001-15.png,0004-00-0000-55.png
00000014,516,0,1450107345741,1450107346295,861,554,0,0,0,2,4,2,6,0003-00-0000-02.png,0001-00-0000-63.png
00000014,517,1,1450107349289,1450107349791,394,434,0,0,0,0,2,2,2,0005-00-0000-26.png,0003-00-0001-31.png
00000014,518,1,1450107351079,1450107351604,899,449,0,0,0,4,2,2,6,0001-00-0001-40.png,0003-00-0000-76.png
00000014,519,1,1450107352778,1450107353359,923,459,0,0,0,4,1,3,5,0001-00-0001-85.png,0004-00-0001-12.png
00000014,520,0,1450107354627,1450107355809,473,436,0,0,0,4,3,1,7,0001-00-0000-34.png,0002-00-0000-37.png
00000014,521,1,1450107359157,1450107359611,954,467,0,0,0,1,0,1,1,0004-00-0000-16.png,0005-00-0000-22.png
00000014,522,1,1450107360779,1450107361311,902,466,0,0,0,2,0,2,2,0003-00-0001-86.png,0005-00-0001-68.png
00000014,523,1,1450107363135,1450107363618,357,471,0,0,0,0,2,2,2,0005-00-0001-64.png,0003-00-0001-28.png
00000014,524,0,1450107364843,1450107365399,897,456,0,0,0,2,3,1,5,0003-00-0001-43.png,0002-00-0000-78.png
00000014,525,1,1450107369065,1450107369483,951,438,0,0,0,4,3,1,7,0001-00-0001-46.png,0002-00-0000-57.png
00000014,526,1,1450107371420,1450107372010,933,472,0,0,0,4,2,2,6,0001-00-0001-94.png,0003-00-0001-13.png
00000014,527,1,1450107373124,1450107373684,891,467,0,0,0,3,0,3,3,0002-00-0001-30.png,0005-00-0000-16.png
00000014,528,1,1450107374873,1450107375300,363,476,0,0,0,2,4,2,6,0003-00-0001-96.png,0001-00-0000-72.png
00000014,529,0,1450107376564,1450107377400,382,393,0,0,0,3,1,2,4,0002-00-0001-20.png,0004-00-0000-51.png
00000014,530,0,1450107380756,1450107381196,975,438,0,0,0,1,2,1,3,0004-00-0000-88.png,0003-00-0000-00.png
00000014,531,1,1450107384262,1450107384739,977,450,0,0,0,3,2,1,5,0002-00-0001-98.png,0003-00-0000-71.png
00000014,532,1,1450107385884,1450107386490,880,545,0,0,0,2,1,1,3,0003-00-0000-39.png,0004-00-0001-47.png
00000014,533,1,1450107387663,1450107388106,414,483,0,0,0,0,1,1,1,0005-00-0001-28.png,0004-00-0001-23.png
00000014,534,0,1450107389374,1450107390146,913,498,0,0,0,1,3,2,4,0004-00-0001-49.png,0002-00-0000-20.png
00000014,535,1,1450107393122,1450107393595,942,520,0,0,0,4,0,4,4,0001-00-0000-42.png,0005-00-0000-19.png
00000014,536,1,1450107394771,1450107395667,364,445,0,0,0,0,4,4,4,0005-00-0001-52.png,0001-00-0001-45.png
00000014,537,0,1450107396943,1450107397568,901,486,0,0,0,3,4,1,7,0002-00-0000-27.png,0001-00-0001-72.png
00000014,538,1,1450107400472,1450107400936,395,457,0,0,0,0,3,3,3,0005-00-0000-88.png,0002-00-0001-61.png
00000014,539,0,1450107402108,1450107402636,867,550,0,0,0,1,4,3,5,0004-00-0000-73.png,0001-00-0000-23.png
00000014,540,1,1450107405803,1450107406269,938,497,0,0,0,4,1,3,5,0001-00-0000-16.png,0004-00-0000-81.png
00000014,541,0,1450107407433,1450107407992,865,562,0,0,0,2,4,2,6,0003-00-0001-75.png,0001-00-0001-97.png
00000014,542,1,1450107411315,1450107412140,357,412,0,0,0,0,3,3,3,0005-00-0001-47.png,0002-00-0001-37.png
00000014,543,1,1450107413235,1450107413904,918,469,0,0,0,3,1,2,4,0002-00-0000-77.png,0004-00-0001-82.png
00000014,544,0,1450107415074,1450107415657,874,476,0,0,0,0,4,4,4,0005-00-0000-33.png,0001-00-0000-11.png
00000014,545,1,1450107418489,1450107418935,372,367,0,0,0,0,2,2,2,0005-00-0001-12.png,0003-00-0001-93.png
00000014,546,1,1450107420620,1450107421151,900,449,0,0,0,2,1,1,3,0003-00-0000-59.png,0004-00-0000-08.png
00000014,547,0,1450107422360,1450107422803,380,489,0,0,0,3,0,3,3,0002-00-0000-50.png,0005-00-0001-73.png
00000014,548,1,1450107425899,1450107426381,965,448,0,0,0,4,2,2,6,0001-00-0000-58.png,0003-00-0001-40.png
00000014,549,0,1450107427628,1450107428281,401,427,0,0,0,3,2,1,5,0002-00-0001-78.png,0003-00-0000-95.png
00000014,550,0,1450107431205,1450107431643,879,549,0,0,0,1,2,1,3,0004-00-0000-14.png,0003-00-0001-70.png
00000014,551,1,1450107434696,1450107435176,978,461,0,0,0,4,1,3,5,0001-00-0000-79.png,0004-00-0001-10.png
00000014,552,1,1450107436309,1450107436845,895,467,0,0,0,2,0,2,2,0003-00-0000-94.png,0005-00-0000-56.png
00000014,553,1,1450107438126,1450107439276,937,450,0,0,0,1,0,1,1,0004-00-0000-66.png,0005-00-0001-55.png
00000014,554,0,1450107440771,1450107441183,400,483,0,0,0,4,3,1,7,0001-00-0001-36.png,0002-00-0000-97.png
00000014,555,1,1450107444055,1450107444483,877,518,0,0,0,4,0,4,4,0001-00-0001-37.png,0005-00-0000-91.png
00000014,556,1,1450107445671,1450107446154,370,489,0,0,0,1,4,3,5,0004-00-0000-10.png,0001-00-0001-55.png
00000014,557,1,1450107447420,1450107448209,399,396,0,0,0,1,3,2,4,0004-00-0001-49.png,0002-00-0000-48.png
00000014,558,0,1450107449328,1450107450330,918,468,0,0,0,3,4,1,7,0002-00-0000-33.png,0001-00-0001-88.png
00000014,559,0,1450107453502,1450107453966,938,503,0,0,0,2,3,1,5,0003-00-0000-20.png,0002-00-0001-18.png
00000014,560,1,1450107457528,1450107457996,390,448,0,0,0,0,1,1,1,0005-00-0001-27.png,0004-00-0001-73.png
00000014,561,1,1450107459087,1450107459635,893,466,0,0,0,3,2,1,5,0002-00-0001-07.png,0003-00-0000-28.png
00000014,562,1,1450107461029,1450107461508,386,475,0,0,0,0,4,4,4,0005-00-0000-72.png,0001-00-0001-90.png
00000014,563,0,1450107462695,1450107463135,435,481,0,0,0,4,2,2,6,0001-00-0000-56.png,0003-00-0000-11.png
00000014,564,1,1450107466214,1450107466621,960,507,0,0,0,3,0,3,3,0002-00-0001-81.png,0005-00-0001-45.png
00000014,565,1,1450107467803,1450107468280,350,488,0,0,0,1,4,3,5,0004-00-0000-43.png,0001-00-0000-44.png
00000014,566,1,1450107469552,1450107470072,880,474,0,0,0,2,0,2,2,0003-00-0001-94.png,0005-00-0000-09.png
00000014,567,0,1450107471441,1450107472021,900,442,0,0,0,1,2,1,3,0004-00-0001-71.png,0003-00-0001-31.png
00000014,568,0,1450107475069,1450107475555,977,486,0,0,0,2,3,1,5,0003-00-0000-82.png,0002-00-0001-28.png
00000014,569,1,1450107479125,1450107479587,401,474,0,0,0,0,1,1,1,0005-00-0001-29.png,0004-00-0000-46.png
00000014,570,1,1450107481043,1450107481626,927,503,0,0,0,4,3,1,7,0001-00-0001-25.png,0002-00-0001-60.png
00000014,571,1,1450107482846,1450107483719,407,426,0,0,0,3,4,1,7,0002-00-0000-98.png,0001-00-0000-70.png
00000014,572,1,1450107485052,1450107485506,350,475,0,0,0,0,2,2,2,0005-00-0001-42.png,0003-00-0000-59.png
00000014,573,0,1450107486804,1450107487348,894,454,0,0,0,2,4,2,6,0003-00-0001-11.png,0001-00-0000-23.png
00000014,574,0,1450107492034,1450107492497,991,495,0,0,0,1,3,2,4,0004-00-0000-34.png,0002-00-0000-81.png
00000014,575,1,1450107495672,1450107496092,952,475,0,0,0,1,0,1,1,0004-00-0001-09.png,0005-00-0001-78.png
00000014,576,1,1450107497192,1450107497984,926,462,0,0,0,4,0,4,4,0001-00-0000-21.png,0005-00-0000-07.png
00000014,577,1,1450107499264,1450107499730,370,478,0,0,0,0,3,3,3,0005-00-0000-21.png,0002-00-0000-40.png
00000014,578,0,1450107500999,1450107501744,390,475,0,0,0,3,1,2,4,0002-00-0001-25.png,0004-00-0000-75.png
00000014,579,1,1450107504806,1450107505250,976,475,0,0,0,4,1,3,5,0001-00-0001-47.png,0004-00-0001-28.png
00000014,580,0,1450107506385,1450107507423,383,420,0,0,0,2,1,1,3,0003-00-0001-13.png,0004-00-0000-80.png
00000014,581,1,1450107510698,1450107511168,432,540,0,0,0,0,4,4,4,0005-00-0001-11.png,0001-00-0001-06.png
00000014,582,1,1450107512416,1450107513049,338,420,0,0,0,1,4,3,5,0004-00-0001-11.png,0001-00-0000-37.png
00000014,583,1,1450107514209,1450107514789,901,461,0,0,0,2,1,1,3,0003-00-0001-65.png,0004-00-0001-16.png
00000014,584,0,1450107516104,1450107516723,427,423,0,0,0,4,1,3,5,0001-00-0001-12.png,0004-00-0001-08.png
00000014,585,0,1450107519732,1450107520221,940,475,0,0,0,1,2,1,3,0004-00-0001-68.png,0003-00-0001-96.png
00000014,586,1,1450107523368,1450107523899,874,489,0,0,0,4,3,1,7,0001-00-0001-35.png,0002-00-0001-89.png
00000014,587,1,1450107525079,1450107525553,337,474,0,0,0,0,2,2,2,0005-00-0000-27.png,0003-00-0001-75.png
00000014,588,0,1450107526808,1450107527278,379,475,0,0,0,4,2,2,6,0001-00-0001-29.png,0003-00-0000-06.png
00000014,589,0,1450107530589,1450107531034,944,467,0,0,0,0,1,1,1,0005-00-0000-90.png,0004-00-0000-22.png
00000014,590,1,1450107534774,1450107535268,348,400,0,0,0,1,3,2,4,0004-00-0001-40.png,0002-00-0000-46.png
00000014,591,1,1450107536441,1450107537139,905,506,0,0,0,3,2,1,5,0002-00-0001-75.png,0003-00-0000-33.png
00000014,592,0,1450107538318,1450107538863,886,476,0,0,0,2,4,2,6,0003-00-0001-98.png,0001-00-0000-75.png
00000014,593,1,1450107542771,1450107543205,953,494,0,0,0,2,0,2,2,0003-00-0001-49.png,0005-00-0000-58.png
00000014,594,1,1450107544345,1450107544969,878,467,0,0,0,3,1,2,4,0002-00-0001-33.png,0004-00-0000-86.png
00000014,595,1,1450107546170,1450107547422,401,409,0,0,0,3,4,1,7,0002-00-0000-84.png,0001-00-0001-94.png
00000014,596,1,1450107548673,1450107549198,875,461,0,0,0,4,0,4,4,0001-00-0000-30.png,0005-00-0001-22.png
00000014,597,1,1450107550419,1450107550957,862,463,0,0,0,1,0,1,1,0004-00-0000-40.png,0005-00-0001-21.png
00000014,598,1,1450107552660,1450107553159,427,476,0,0,0,0,3,3,3,0005-00-0001-36.png,0002-00-0000-36.png
00000014,599,1,1450107555035,1450107555558,901,461,0,0,0,3,0,3,3,0002-00-0000-45.png,0005-00-0000-02.png
00000014,600,0,1450107556808,1450107557379,914,449,0,0,0,2,3,1,5,0003-00-0001-08.png,0002-00-0001-80.png
00000014,601,1,1450107561069,1450107561539,952,475,0,0,0,1,0,1,1,0004-00-0000-84.png,0005-00-0001-77.png
00000014,602,0,1450107562731,1450107563421,877,494,0,0,0,1,2,1,3,0004-00-0000-79.png,0003-00-0001-72.png
00000014,603,1,1450107566360,1450107566822,897,562,0,0,0,4,0,4,4,0001-00-0000-29.png,0005-00-0001-20.png
00000014,604,1,1450107567997,1450107568554,903,468,0,0,0,2,0,2,2,0003-00-0000-91.png,0005-00-0000-91.png
00000014,605,1,1450107569742,1450107570286,381,489,0,0,0,3,4,1,7,0002-00-0001-72.png,0001-00-0000-60.png
00000014,606,1,1450107571764,1450107572198,415,475,0,0,0,0,3,3,3,0005-00-0000-32.png,0002-00-0001-41.png
00000014,607,1,1450107573380,1450107574096,923,463,0,0,0,4,1,3,5,0001-00-0000-53.png,0004-00-0000-64.png
00000014,608,1,1450107575326,1450107575847,402,458,0,0,0,2,4,2,6,0003-00-0001-83.png,0001-00-0001-51.png
00000014,609,1,1450107577152,1450107577643,427,462,0,0,0,0,4,4,4,0005-00-0000-40.png,0001-00-0001-38.png
00000014,610,0,1450107578903,1450107579618,931,480,0,0,0,1,3,2,4,0004-00-0001-42.png,0002-00-0001-74.png
00000014,611,0,1450107583165,1450107583730,399,448,0,0,0,4,3,1,7,0001-00-0000-97.png,0002-00-0001-28.png
00000014,612,1,1450107587137,1450107587610,355,437,0,0,0,0,1,1,1,0005-00-0001-41.png,0004-00-0001-01.png
00000014,613,0,1450107589482,1450107589967,894,463,0,0,0,2,3,1,5,0003-00-0000-80.png,0002-00-0000-25.png
00000014,614,1,1450107593460,1450107593956,937,526,0,0,0,2,1,1,3,0003-00-0000-53.png,0004-00-0001-06.png
00000014,615,1,1450107595021,1450107595666,899,483,0,0,0,4,2,2,6,0001-00-0001-53.png,0003-00-0000-17.png
00000014,616,1,1450107596978,1450107597505,410,460,0,0,0,1,4,3,5,0004-00-0000-72.png,0001-00-0001-47.png
00000014,617,0,1450107598682,1450107599152,390,485,0,0,0,3,2,1,5,0002-00-0001-31.png,0003-00-0000-91.png
00000014,618,1,1450107602316,1450107602833,952,504,0,0,0,3,1,2,4,0002-00-0001-61.png,0004-00-0001-70.png
00000014,619,1,1450107603965,1450107604504,875,449,0,0,0,3,0,3,3,0002-00-0000-79.png,0005-00-0000-91.png
00000014,620,1,1450107605698,1450107606090,383,480,0,0,0,0,2,2,2,0005-00-0000-17.png,0003-00-0000-84.png
00000014,621,0,1450107607358,1450107608037,889,475,0,0,0,1,2,1,3,0004-00-0000-41.png,0003-00-0001-16.png
00000014,622,0,1450107611899,1450107612321,944,495,0,0,0,3,4,1,7,0002-00-0001-38.png,0001-00-0000-51.png
00000014,623,1,1450107615386,1450107615929,417,442,0,0,0,0,1,1,1,0005-00-0001-56.png,0004-00-0000-82.png
00000014,624,1,1450107617305,1450107617874,926,463,0,0,0,3,1,2,4,0002-00-0001-58.png,0004-00-0001-11.png
00000014,625,0,1450107619045,1450107619632,426,494,0,0,0,3,2,1,5,0002-00-0000-88.png,0003-00-0001-46.png
00000014,626,0,1450107623357,1450107623788,976,491,0,0,0,2,4,2,6,0003-00-0001-34.png,0001-00-0000-91.png
00000014,627,1,1450107626965,1450107627446,952,476,0,0,0,4,0,4,4,0001-00-0000-20.png,0005-00-0001-45.png
00000014,628,0,1450107628624,1450107629172,905,480,0,0,0,2,3,1,5,0003-00-0001-51.png,0002-00-0001-33.png
00000014,629,0,1450107632724,1450107633222,905,527,0,0,0,1,4,3,5,0004-00-0000-56.png,0001-00-0000-31.png
00000014,630,0,1450107636634,1450107637175,427,410,0,0,0,4,2,2,6,0001-00-0001-23.png,0003-00-0000-13.png
00000014,631,1,1450107641362,1450107641736,953,410,0,0,0,2,1,1,3,0003-00-0001-80.png,0004-00-0000-34.png
00000014,632,1,1450107643289,1450107643792,899,448,0,0,0,1,0,1,1,0004-00-0000-54.png,0005-00-0000-73.png
00000014,633,0,1450107644915,1450107645644,377,422,0,0,0,4,1,3,5,0001-00-0001-80.png,0004-00-0001-27.png
00000014,634,1,1450107648998,1450107649575,494,468,0,0,0,0,4,4,4,0005-00-0001-05.png,0001-00-0000-42.png
00000014,635,1,1450107650708,1450107651258,899,449,0,0,0,2,0,2,2,0003-00-0001-30.png,0005-00-0000-78.png
00000014,636,1,1450107652685,1450107653181,369,479,0,0,0,0,3,3,3,0005-00-0000-94.png,0002-00-0001-41.png
00000014,637,1,1450107654286,1450107654858,861,432,0,0,0,4,3,1,7,0001-00-0000-31.png,0002-00-0000-27.png
00000014,638,1,1450107656056,1450107656496,427,449,0,0,0,0,2,2,2,0005-00-0000-49.png,0003-00-0000-62.png
00000014,639,1,1450107657836,1450107658437,860,451,0,0,0,3,0,3,3,0002-00-0000-55.png,0005-00-0000-95.png
00000014,640,1,1450107659774,1450107660262,417,474,0,0,0,1,3,2,4,0004-00-0001-38.png,0002-00-0001-80.png
00000014,641,1,1450107661645,1450107662104,401,461,0,0,0,0,3,3,3,0005-00-0001-29.png,0002-00-0001-49.png
00000014,642,0,1450107663854,1450107664308,394,479,0,0,0,4,1,3,5,0001-00-0001-09.png,0004-00-0000-71.png
00000014,643,1,1450107667490,1450107667965,966,501,0,0,0,2,1,1,3,0003-00-0000-58.png,0004-00-0001-65.png
00000014,644,1,1450107669600,1450107670272,901,448,0,0,0,4,2,2,6,0001-00-0000-20.png,0003-00-0001-12.png
00000014,645,0,1450107671434,1450107671973,380,489,0,0,0,3,0,3,3,0002-00-0000-47.png,0005-00-0001-51.png
00000014,646,0,1450107675596,1450107676071,967,494,0,0,0,1,4,3,5,0004-00-0000-50.png,0001-00-0000-94.png
00000014,647,1,1450107679537,1450107680046,416,539,0,0,0,0,1,1,1,0005-00-0000-79.png,0004-00-0000-30.png
00000014,648,1,1450107681284,1450107681777,874,463,0,0,0,4,0,4,4,0001-00-0001-58.png,0005-00-0000-19.png
00000014,649,1,1450107682962,1450107683392,427,475,0,0,0,1,2,1,3,0004-00-0001-94.png,0003-00-0000-43.png
00000014,650,0,1450107684655,1450107685353,919,503,0,0,0,2,4,2,6,0003-00-0001-76.png,0001-00-0000-47.png
00000014,651,0,1450107688316,1450107688356,504,480,0,0,0,3,1,2,4,0002-00-0001-79.png,0004-00-0001-69.png
00000014,652,1,1450107696156,1450107696655,1001,490,0,0,0,3,2,1,5,0002-00-0001-01.png,0003-00-0001-51.png
00000014,653,1,1450107697727,1450107698264,857,553,0,0,0,4,3,1,7,0001-00-0000-92.png,0002-00-0000-91.png
00000014,654,1,1450107699528,1450107700027,898,457,0,0,0,1,0,1,1,0004-00-0000-34.png,0005-00-0000-66.png
00000014,655,1,1450107701126,1450107701573,394,479,0,0,0,0,4,4,4,0005-00-0000-89.png,0001-00-0000-30.png
00000014,656,0,1450107702807,1450107703966,862,514,0,0,0,2,3,1,5,0003-00-0001-15.png,0002-00-0000-56.png
00000014,657,0,1450107707270,1450107707723,921,523,0,0,0,0,2,2,2,0005-00-0000-54.png,0003-00-0000-78.png
00000014,658,0,1450107711233,1450107711659,952,489,0,0,0,1,3,2,4,0004-00-0001-80.png,0002-00-0001-75.png
00000014,659,0,1450107714544,1450107715584,926,531,0,0,0,3,4,1,7,0002-00-0001-58.png,0001-00-0000-36.png
00000014,660,1,1450107718545,1450107719045,962,498,0,0,0,2,0,2,2,0003-00-0000-97.png,0005-00-0001-54.png
00000014,661,1,1450107720110,1450107720931,413,398,0,0,0,1,3,2,4,0004-00-0000-96.png,0002-00-0001-50.png
00000014,662,1,1450107722107,1450107722618,391,453,0,0,0,0,4,4,4,0005-00-0000-26.png,0001-00-0001-87.png
00000014,663,1,1450107723865,1450107724430,901,477,0,0,0,2,0,2,2,0003-00-0000-81.png,0005-00-0000-15.png
00000014,664,1,1450107725626,1450107726166,902,467,0,0,0,3,0,3,3,0002-00-0001-71.png,0005-00-0001-92.png
00000014,665,0,1450107727375,1450107728004,409,439,0,0,0,3,2,1,5,0002-00-0001-26.png,0003-00-0000-82.png
00000014,666,1,1450107731429,1450107731931,973,523,0,0,0,2,1,1,3,0003-00-0000-40.png,0004-00-0000-27.png
00000014,667,0,1450107733484,1450107734025,903,494,0,0,0,2,4,2,6,0003-00-0001-22.png,0001-00-0001-52.png
00000014,668,1,1450107737064,1450107737619,465,450,0,0,0,1,2,1,3,0004-00-0000-09.png,0003-00-0001-13.png
00000014,669,0,1450107738849,1450107739379,902,502,0,0,0,3,4,1,7,0002-00-0001-79.png,0001-00-0001-01.png
00000014,670,1,1450107742659,1450107743103,929,498,0,0,0,1,0,1,1,0004-00-0000-50.png,0005-00-0000-62.png
00000014,671,1,1450107744231,1450107744827,872,459,0,0,0,3,1,2,4,0002-00-0001-86.png,0004-00-0000-18.png
00000014,672,1,1450107746109,1450107746525,427,462,0,0,0,0,2,2,2,0005-00-0000-21.png,0003-00-0001-88.png
00000014,673,0,1450107747710,1450107748375,878,548,0,0,0,2,3,1,5,0003-00-0000-17.png,0002-00-0001-17.png
00000014,674,0,1450107751644,1450107752154,956,532,0,0,0,1,4,3,5,0004-00-0000-57.png,0001-00-0000-14.png
00000014,675,1,1450107755094,1450107755591,970,493,0,0,0,4,2,2,6,0001-00-0001-49.png,0003-00-0000-39.png
00000014,676,1,1450107756836,1450107757373,905,506,0,0,0,4,0,4,4,0001-00-0001-54.png,0005-00-0000-55.png
00000014,677,1,1450107758547,1450107759019,464,501,0,0,0,0,3,3,3,0005-00-0001-16.png,0002-00-0000-27.png
00000014,678,1,1450107760213,1450107760665,457,472,0,0,0,0,1,1,1,0005-00-0000-92.png,0004-00-0001-56.png
00000014,679,1,1450107761764,1450107762722,897,476,0,0,0,4,3,1,7,0001-00-0000-27.png,0002-00-0001-23.png
00000014,680,1,1450107763960,1450107764489,865,547,0,0,0,4,1,3,5,0001-00-0000-88.png,0004-00-0001-78.png
00000014,681,0,1450107765669,1450107766057,432,474,0,0,0,3,0,3,3,0002-00-0001-21.png,0005-00-0000-05.png
00000014,682,0,1450107769138,1450107769561,950,483,0,0,0,2,3,1,5,0003-00-0001-14.png,0002-00-0000-86.png
00000014,683,0,1450107773670,1450107774163,927,423,0,0,0,0,1,1,1,0005-00-0001-80.png,0004-00-0001-66.png
00000014,684,0,1450107777763,1450107778207,963,450,0,0,0,0,2,2,2,0005-00-0001-70.png,0003-00-0000-41.png
00000014,685,1,1450107781184,1450107781613,994,451,0,0,0,3,1,2,4,0002-00-0001-40.png,0004-00-0000-18.png
00000014,686,1,1450107782714,1450107783323,873,410,0,0,0,4,0,4,4,0001-00-0001-20.png,0005-00-0001-43.png
00000014,687,0,1450107784485,1450107785005,870,445,0,0,0,2,4,2,6,0003-00-0000-63.png,0001-00-0000-28.png
00000014,688,1,1450107787939,1450107788395,976,448,0,0,0,2,1,1,3,0003-00-0000-40.png,0004-00-0001-47.png
00000014,689,0,1450107789516,1450107789974,466,495,0,0,0,4,2,2,6,0001-00-0000-40.png,0003-00-0001-91.png
00000014,690,1,1450107793578,1450107794072,931,452,0,0,0,2,0,2,2,0003-00-0001-45.png,0005-00-0000-42.png
00000014,691,1,1450107795307,1450107796077,953,503,0,0,0,3,2,1,5,0002-00-0001-16.png,0003-00-0000-27.png
00000014,692,1,1450107797195,1450107797606,406,563,0,0,0,0,3,3,3,0005-00-0001-72.png,0002-00-0000-06.png
00000014,693,0,1450107799398,1450107799921,901,461,0,0,0,3,4,1,7,0002-00-0000-84.png,0001-00-0001-13.png
00000014,694,0,1450107802879,1450107803487,964,476,0,0,0,1,2,1,3,0004-00-0000-27.png,0003-00-0000-54.png
00000014,695,0,1450107806469,1450107807009,955,441,0,0,0,1,4,3,5,0004-00-0001-62.png,0001-00-0001-33.png
00000014,696,1,1450107810334,1450107810926,879,506,0,0,0,4,3,1,7,0001-00-0000-49.png,0002-00-0001-76.png
00000014,697,1,1450107812030,1450107812471,325,476,0,0,0,0,4,4,4,0005-00-0001-01.png,0001-00-0001-90.png
00000014,698,1,1450107813615,1450107814182,907,471,0,0,0,1,0,1,1,0004-00-0001-50.png,0005-00-0000-31.png
00000014,699,0,1450107815830,1450107816405,427,436,0,0,0,4,1,3,5,0001-00-0000-14.png,0004-00-0001-18.png
00000014,700,0,1450107819410,1450107819900,973,445,0,0,0,1,3,2,4,0004-00-0001-11.png,0002-00-0000-64.png
00000014,701,1,1450107823158,1450107823627,949,502,0,0,0,2,0,2,2,0003-00-0000-90.png,0005-00-0000-62.png
00000014,702,1,1450107824772,1450107825328,409,453,0,0,0,0,4,4,4,0005-00-0000-89.png,0001-00-0000-83.png
00000014,703,1,1450107826579,1450107827150,893,443,0,0,0,3,2,1,5,0002-00-0000-12.png,0003-00-0001-10.png
00000014,704,1,1450107828520,1450107829067,879,428,0,0,0,2,1,1,3,0003-00-0000-94.png,0004-00-0001-10.png
00000014,705,1,1450107830334,1450107830935,923,457,0,0,0,4,1,3,5,0001-00-0001-18.png,0004-00-0001-19.png
00000014,706,1,1450107832093,1450107832569,386,483,0,0,0,2,3,1,5,0003-00-0000-91.png,0002-00-0000-07.png
00000014,707,1,1450107833742,1450107834184,395,480,0,0,0,3,4,1,7,0002-00-0001-80.png,0001-00-0000-16.png
00000014,708,1,1450107835611,1450107836150,437,459,0,0,0,0,3,3,3,0005-00-0000-14.png,0002-00-0000-38.png
00000014,709,0,1450107837479,1450107838021,873,481,0,0,0,2,4,2,6,0003-00-0000-43.png,0001-00-0001-87.png
00000014,710,1,1450107841035,1450107841496,927,468,0,0,0,1,0,1,1,0004-00-0000-23.png,0005-00-0001-90.png
00000014,711,1,1450107842595,1450107843178,880,479,0,0,0,3,1,2,4,0002-00-0001-10.png,0004-00-0001-77.png
00000014,712,0,1450107844439,1450107844455,503,479,0,0,0,4,3,1,7,0001-00-0001-05.png,0002-00-0001-92.png
00000014,713,1,1450107847808,1450107848298,445,454,0,0,0,0,1,1,1,0005-00-0001-33.png,0004-00-0000-71.png
00000014,714,1,1450107849437,1450107849931,888,474,0,0,0,4,0,4,4,0001-00-0001-61.png,0005-00-0001-86.png
00000014,715,1,1450107851157,1450107851632,337,488,0,0,0,0,2,2,2,0005-00-0000-41.png,0003-00-0001-20.png
00000014,716,0,1450107853096,1450107853759,880,497,0,0,0,1,3,2,4,0004-00-0001-46.png,0002-00-0000-80.png
00000014,717,1,1450107856997,1450107857434,926,397,0,0,0,4,2,2,6,0001-00-0000-12.png,0003-00-0000-95.png
00000014,718,0,1450107859404,1450107859805,890,560,0,0,0,1,4,3,5,0004-00-0000-19.png,0001-00-0000-78.png
00000014,719,1,1450107863300,1450107863725,925,542,0,0,0,3,0,3,3,0002-00-0001-22.png,0005-00-0001-68.png
00000014,720,1,1450107864843,1450107865313,412,464,0,0,0,1,2,1,3,0004-00-0001-17.png,0003-00-0000-45.png
00000014,721,0,1450107866453,1450107867520,443,503,0,0,0,4,1,3,5,0001-00-0001-53.png,0004-00-0001-86.png
00000014,722,0,1450107870755,1450107871238,899,542,0,0,0,2,4,2,6,0003-00-0000-24.png,0001-00-0000-73.png
00000014,723,1,1450107874373,1450107874850,922,532,0,0,0,3,2,1,5,0002-00-0001-41.png,0003-00-0001-81.png
00000014,724,1,1450107875992,1450107876438,376,488,0,0,0,0,4,4,4,0005-00-0001-65.png,0001-00-0000-40.png
00000014,725,1,1450107877604,1450107878121,913,450,0,0,0,3,0,3,3,0002-00-0000-23.png,0005-00-0000-22.png
00000014,726,1,1450107879363,1450107879970,888,527,0,0,0,4,3,1,7,0001-00-0000-58.png,0002-00-0000-48.png
00000014,727,1,1450107881248,1450107881795,874,449,0,0,0,4,2,2,6,0001-00-0000-34.png,0003-00-0001-24.png
00000014,728,0,1450107883019,1450107883614,875,489,0,0,0,3,4,1,7,0002-00-0000-80.png,0001-00-0000-34.png
00000014,729,0,1450107886666,1450107886718,523,479,0,0,0,1,0,1,1,0004-00-0001-21.png,0005-00-0001-30.png
00000014,730,0,1450107890341,1450107890739,966,423,0,0,0,1,3,2,4,0004-00-0000-04.png,0002-00-0001-98.png
00000014,731,1,1450107893814,1450107894289,439,424,0,0,0,0,1,1,1,0005-00-0001-30.png,0004-00-0001-57.png
00000014,732,1,1450107895406,1450107895434,504,478,0,0,0,2,3,1,5,0003-00-0001-95.png,0002-00-0000-05.png
00000014,733,0,1450107896835,1450107897390,888,477,0,0,0,1,4,3,5,0004-00-0000-44.png,0001-00-0001-47.png
00000014,734,0,1450107900909,1450107901336,951,475,0,0,0,1,2,1,3,0004-00-0001-75.png,0003-00-0000-27.png
00000014,735,1,1450107904469,1450107905025,453,398,0,0,0,0,2,2,2,0005-00-0001-88.png,0003-00-0000-18.png
00000014,736,1,1450107906307,1450107906906,881,468,0,0,0,3,1,2,4,0002-00-0001-45.png,0004-00-0000-82.png
00000014,737,1,1450107908068,1450107908519,401,475,0,0,0,0,3,3,3,0005-00-0000-08.png,0002-00-0001-21.png
00000014,738,1,1450107909606,1450107910244,882,488,0,0,0,2,1,1,3,0003-00-0001-28.png,0004-00-0001-14.png
00000014,739,1,1450107911707,1450107912263,901,442,0,0,0,4,0,4,4,0001-00-0001-21.png,0005-00-0001-64.png
00000014,740,1,1450107913445,1450107913957,905,453,0,0,0,2,0,2,2,0003-00-0001-82.png,0005-00-0000-91.png
00000014,741,1,1450107915168,1450107915703,899,482,0,0,0,2,0,2,2,0003-00-0001-69.png,0005-00-0001-00.png
00000014,742,0,1450107916924,1450107916972,504,488,0,0,0,4,0,4,4,0001-00-0001-83.png,0005-00-0000-96.png
00000014,743,1,1450107920104,1450107920617,929,507,0,0,0,1,0,1,1,0004-00-0000-30.png,0005-00-0000-72.png
00000014,744,1,1450107921713,1450107922153,401,503,0,0,0,0,2,2,2,0005-00-0001-42.png,0003-00-0000-69.png
00000014,745,1,1450107923273,1450107923809,875,476,0,0,0,3,0,3,3,0002-00-0000-04.png,0005-00-0001-73.png
00000014,746,1,1450107925477,1450107925944,436,456,0,0,0,0,4,4,4,0005-00-0001-27.png,0001-00-0000-07.png
00000014,747,1,1450107927110,1450107927679,879,480,0,0,0,3,2,1,5,0002-00-0001-39.png,0003-00-0001-25.png
00000014,748,1,1450107929492,1450107930043,410,416,0,0,0,3,4,1,7,0002-00-0001-78.png,0001-00-0001-04.png
00000014,749,1,1450107931356,1450107931841,367,468,0,0,0,1,3,2,4,0004-00-0000-76.png,0002-00-0001-85.png
00000014,750,0,1450107933064,1450107933601,874,475,0,0,0,2,4,2,6,0003-00-0001-42.png,0001-00-0001-17.png
00000014,751,1,1450107936480,1450107936988,363,424,0,0,0,0,3,3,3,0005-00-0000-59.png,0002-00-0001-00.png
00000014,752,1,1450107938698,1450107939137,350,474,0,0,0,0,1,1,1,0005-00-0001-65.png,0004-00-0001-78.png
00000014,753,1,1450107940288,1450107940795,468,495,0,0,0,1,4,3,5,0004-00-0000-57.png,0001-00-0000-54.png
00000014,754,1,1450107942044,1450107942509,445,453,0,0,0,1,2,1,3,0004-00-0001-77.png,0003-00-0000-22.png
00000014,755,0,1450107943874,1450107944503,423,430,0,0,0,4,2,2,6,0001-00-0000-27.png,0003-00-0000-61.png
00000014,756,0,1450107947768,1450107948239,951,490,0,0,0,2,3,1,5,0003-00-0000-49.png,0002-00-0000-63.png
00000014,757,1,1450107951120,1450107951865,922,488,0,0,0,2,1,1,3,0003-00-0000-85.png,0004-00-0000-16.png
00000014,758,1,1450107953042,1450107953722,939,502,0,0,0,4,1,3,5,0001-00-0000-37.png,0004-00-0001-65.png
00000014,759,1,1450107954981,1450107955488,925,475,0,0,0,3,1,2,4,0002-00-0000-40.png,0004-00-0000-05.png
00000014,760,1,1450107956620,1450107957380,925,475,0,0,0,4,3,1,7,0001-00-0000-49.png,0002-00-0000-22.png
00000014,761,0,1450107958600,1450107959164,901,476,0,0,0,2,3,1,5,0003-00-0001-45.png,0002-00-0001-66.png
00000014,762,1,1450107962024,1450107962555,977,490,0,0,0,3,0,3,3,0002-00-0000-93.png,0005-00-0001-69.png
00000014,763,1,1450107963747,1450107964213,350,462,0,0,0,0,4,4,4,0005-00-0000-98.png,0001-00-0001-55.png
00000014,764,1,1450107965798,1450107966437,902,468,0,0,0,4,0,4,4,0001-00-0000-65.png,0005-00-0001-85.png
00000014,765,1,1450107967763,1450107968213,379,487,0,0,0,0,1,1,1,0005-00-0001-56.png,0004-00-0001-01.png
00000014,766,1,1450107969440,1450107970084,899,445,0,0,0,3,1,2,4,0002-00-0000-73.png,0004-00-0000-02.png
00000014,767,1,1450107971410,1450107971940,878,468,0,0,0,2,1,1,3,0003-00-0000-29.png,0004-00-0000-13.png
00000014,768,0,1450107973339,1450107973762,453,475,0,0,0,4,1,3,5,0001-00-0001-06.png,0004-00-0001-50.png
00000014,769,1,1450107976665,1450107977130,900,554,0,0,0,3,2,1,5,0002-00-0001-20.png,0003-00-0000-84.png
00000014,770,1,1450107978308,1450107978937,880,505,0,0,0,1,0,1,1,0004-00-0001-99.png,0005-00-0000-04.png
00000014,771,1,1450107980219,1450107980728,902,468,0,0,0,2,0,2,2,0003-00-0001-21.png,0005-00-0001-01.png
00000014,772,1,1450107981965,1450107982396,435,472,0,0,0,1,3,2,4,0004-00-0001-19.png,0002-00-0000-36.png
00000014,773,0,1450107983665,1450107984135,401,492,0,0,0,4,3,1,7,0001-00-0000-08.png,0002-00-0001-87.png
00000014,774,0,1450107987700,1450107988157,947,514,0,0,0,1,4,3,5,0004-00-0000-62.png,0001-00-0001-20.png
00000014,775,1,1450107991143,1450107991680,383,451,0,0,0,0,2,2,2,0005-00-0001-11.png,0003-00-0000-66.png
00000014,776,1,1450107992873,1450107994242,389,410,0,0,0,3,4,1,7,0002-00-0001-54.png,0001-00-0000-38.png
00000014,777,0,1450107995492,1450107996130,926,475,0,0,0,1,2,1,3,0004-00-0000-15.png,0003-00-0000-99.png
00000014,778,1,1450107999170,1450107999620,383,445,0,0,0,0,3,3,3,0005-00-0001-48.png,0002-00-0000-34.png
00000014,779,1,1450108000740,1450108000752,504,488,0,0,0,2,4,2,6,0003-00-0000-85.png,0001-00-0000-73.png
00000014,780,0,1450108002116,1450108002792,414,471,0,0,0,4,2,2,6,0001-00-0000-47.png,0003-00-0001-22.png
00000014,781,0,1450108006128,1450108006640,401,436,0,0,0,4,3,1,7,0001-00-0000-37.png,0002-00-0001-19.png
00000014,782,1,1450108009585,1450108010039,420,537,0,0,0,1,3,2,4,0004-00-0000-65.png,0002-00-0000-28.png
00000014,783,1,1450108011184,1450108011765,925,465,0,0,0,1,0,1,1,0004-00-0001-34.png,0005-00-0000-22.png
00000014,784,0,1450108013033,1450108013616,931,452,0,0,0,2,4,2,6,0003-00-0001-89.png,0001-00-0001-20.png
00000014,785,1,1450108016983,1450108017444,962,473,0,0,0,4,0,4,4,0001-00-0001-40.png,0005-00-0001-38.png
00000014,786,0,1450108018499,1450108019131,879,505,0,0,0,3,4,1,7,0002-00-0000-69.png,0001-00-0000-89.png
00000014,787,1,1450108022407,1450108022877,980,488,0,0,0,3,1,2,4,0002-00-0001-22.png,0004-00-0000-76.png
00000014,788,1,1450108024476,1450108024977,901,451,0,0,0,2,0,2,2,0003-00-0000-43.png,0005-00-0001-63.png
00000014,789,1,1450108026309,1450108026812,395,513,0,0,0,0,2,2,2,0005-00-0001-85.png,0003-00-0000-65.png
00000014,790,1,1450108028003,1450108028471,387,502,0,0,0,0,1,1,1,0005-00-0000-31.png,0004-00-0000-00.png
00000014,791,1,1450108029744,1450108030244,877,470,0,0,0,3,2,1,5,0002-00-0000-41.png,0003-00-0001-39.png
00000014,792,1,1450108031477,1450108032027,889,449,0,0,0,4,1,3,5,0001-00-0000-67.png,0004-00-0000-65.png
00000014,793,1,1450108033193,1450108033728,899,463,0,0,0,2,1,1,3,0003-00-0001-70.png,0004-00-0001-73.png
00000014,794,0,1450108034991,1450108035472,873,484,0,0,0,2,3,1,5,0003-00-0001-29.png,0002-00-0001-33.png
00000014,795,0,1450108038598,1450108039030,944,494,0,0,0,1,4,3,5,0004-00-0000-18.png,0001-00-0000-72.png
00000014,796,1,1450108042056,1450108042632,926,566,0,0,0,4,2,2,6,0001-00-0001-20.png,0003-00-0000-80.png
00000014,797,1,1450108044578,1450108045106,438,384,0,0,0,0,3,3,3,0005-00-0000-48.png,0002-00-0000-18.png
00000014,798,1,1450108046267,1450108046952,430,400,0,0,0,1,2,1,3,0004-00-0001-46.png,0003-00-0000-10.png
00000014,799,1,1450108048101,1450108048664,900,449,0,0,0,3,0,3,3,0002-00-0001-80.png,0005-00-0000-15.png
00000014,800,1,1450108049850,1450108050393,411,486,0,0,0,0,4,4,4,0005-00-0001-37.png,0001-00-0001-79.png
00000014,801,1,1450108051609,1450108051993,414,488,0,0,0,0,2,2,2,0005-00-0000-48.png,0003-00-0000-98.png
00000014,802,1,1450108053179,1450108053651,393,457,0,0,0,1,2,1,3,0004-00-0000-77.png,0003-00-0000-34.png
00000014,803,0,1450108054888,1450108055362,453,514,0,0,0,4,0,4,4,0001-00-0001-42.png,0005-00-0000-04.png
00000014,804,1,1450108058269,1450108058721,960,448,0,0,0,2,1,1,3,0003-00-0001-48.png,0004-00-0001-23.png
00000014,805,1,1450108059868,1450108060313,461,475,0,0,0,0,4,4,4,0005-00-0000-59.png,0001-00-0000-37.png
00000014,806,0,1450108061610,1450108062245,901,503,0,0,0,2,4,2,6,0003-00-0000-47.png,0001-00-0001-12.png
00000014,807,1,1450108065225,1450108065755,387,410,0,0,0,1,4,3,5,0004-00-0000-90.png,0001-00-0001-50.png
00000014,808,0,1450108066954,1450108067472,905,454,0,0,0,2,3,1,5,0003-00-0000-83.png,0002-00-0001-05.png
00000014,809,1,1450108070598,1450108071013,951,474,0,0,0,3,0,3,3,0002-00-0000-56.png,0005-00-0001-43.png
00000014,810,0,1450108072205,1450108072918,881,552,0,0,0,0,1,1,1,0005-00-0001-75.png,0004-00-0001-68.png
00000014,811,1,1450108075958,1450108076447,901,553,0,0,0,4,3,1,7,0001-00-0001-41.png,0002-00-0001-35.png
00000014,812,0,1450108077531,1450108078115,921,471,0,0,0,0,3,3,3,0005-00-0001-97.png,0002-00-0001-57.png
00000014,813,1,1450108082460,1450108082945,930,492,0,0,0,3,2,1,5,0002-00-0000-77.png,0003-00-0000-09.png
00000014,814,0,1450108083958,1450108092154,950,516,0,0,0,1,3,2,4,0004-00-0001-42.png,0002-00-0000-98.png
00000014,815,1,1450108098417,1450108098817,1002,449,0,0,0,4,2,2,6,0001-00-0000-38.png,0003-00-0001-77.png
00000014,816,1,1450108099935,1450108100435,892,469,0,0,0,2,0,2,2,0003-00-0001-15.png,0005-00-0001-09.png
00000014,817,1,1450108101321,1450108101888,880,480,0,0,0,4,1,3,5,0001-00-0000-80.png,0004-00-0001-99.png
00000014,818,0,1450108102822,1450108103408,865,485,0,0,0,3,4,1,7,0002-00-0000-04.png,0001-00-0000-86.png
00000014,819,1,1450108107315,1450108107758,956,480,0,0,0,1,0,1,1,0004-00-0001-79.png,0005-00-0001-90.png
00000014,820,1,1450108109470,1450108109929,896,471,0,0,0,3,1,2,4,0002-00-0000-02.png,0004-00-0000-91.png
00000014,821,1,1450108110974,1450108111471,893,463,0,0,0,2,1,1,3,0003-00-0001-08.png,0004-00-0001-06.png
00000014,822,1,1450108112562,1450108113105,875,450,0,0,0,1,0,1,1,0004-00-0000-37.png,0005-00-0000-69.png
00000014,823,0,1450108114283,1450108114827,879,454,0,0,0,2,3,1,5,0003-00-0001-56.png,0002-00-0000-63.png
00000014,824,1,1450108118280,1450108118800,436,421,0,0,0,0,2,2,2,0005-00-0001-85.png,0003-00-0000-04.png
00000014,825,1,1450108119777,1450108120523,914,502,0,0,0,4,3,1,7,0001-00-0000-24.png,0002-00-0001-68.png
00000014,826,1,1450108121539,1450108122615,441,540,0,0,0,1,3,2,4,0004-00-0001-50.png,0002-00-0001-99.png
00000014,827,0,1450108123696,1450108124414,875,515,0,0,0,1,4,3,5,0004-00-0000-52.png,0001-00-0001-61.png
00000014,828,0,1450108129528,1450108130610,984,474,0,0,0,2,4,2,6,0003-00-0001-49.png,0001-00-0000-07.png
00000014,829,0,1450108133653,1450108134172,978,468,0,0,0,0,1,1,1,0005-00-0001-69.png,0004-00-0001-72.png
00000014,830,1,1450108137212,1450108137655,967,515,0,0,0,4,1,3,5,0001-00-0000-28.png,0004-00-0001-62.png
00000014,831,1,1450108138723,1450108139230,927,469,0,0,0,3,0,3,3,0002-00-0000-11.png,0005-00-0001-63.png
00000014,832,1,1450108140315,1450108140791,362,496,0,0,0,0,3,3,3,0005-00-0001-72.png,0002-00-0001-17.png
00000014,833,1,1450108141933,1450108142506,901,476,0,0,0,3,1,2,4,0002-00-0000-79.png,0004-00-0001-58.png
00000014,834,0,1450108143602,1450108144053,370,489,0,0,0,2,0,2,2,0003-00-0000-54.png,0005-00-0001-80.png
00000014,835,1,1450108147518,1450108147941,958,499,0,0,0,4,0,4,4,0001-00-0001-64.png,0005-00-0001-37.png
00000014,836,0,1450108149113,1450108149712,932,498,0,0,0,1,2,1,3,0004-00-0001-81.png,0003-00-0001-30.png
00000014,837,1,1450108153422,1450108153881,968,492,0,0,0,4,2,2,6,0001-00-0000-72.png,0003-00-0000-04.png
00000014,838,0,1450108154992,1450108155618,417,430,0,0,0,3,2,1,5,0002-00-0001-53.png,0003-00-0001-35.png
00000014,839,1,1450108158483,1450108158995,448,411,0,0,0,3,4,1,7,0002-00-0000-87.png,0001-00-0000-83.png
00000014,840,0,1450108160083,1450108161206,939,449,0,0,0,0,4,4,4,0005-00-0001-51.png,0001-00-0000-83.png
00000014,841,0,1450108164256,1450108164723,935,557,0,0,0,0,1,1,1,0005-00-0001-98.png,0004-00-0001-28.png
00000014,842,1,1450108169171,1450108169610,965,449,0,0,0,4,3,1,7,0001-00-0001-74.png,0002-00-0001-92.png
00000014,843,1,1450108170758,1450108171228,925,449,0,0,0,1,0,1,1,0004-00-0000-29.png,0005-00-0001-07.png
00000014,844,1,1450108172206,1450108172763,878,467,0,0,0,3,2,1,5,0002-00-0000-24.png,0003-00-0000-52.png
00000014,845,1,1450108173861,1450108174326,432,489,0,0,0,1,3,2,4,0004-00-0001-16.png,0002-00-0001-54.png
00000014,846,1,1450108175397,1450108176552,467,434,0,0,0,1,2,1,3,0004-00-0000-03.png,0003-00-0000-03.png
00000014,847,0,1450108177634,1450108178118,453,501,0,0,0,4,2,2,6,0001-00-0001-57.png,0003-00-0000-61.png
00000014,848,1,1450108181628,1450108182093,432,436,0,0,0,0,3,3,3,0005-00-0000-20.png,0002-00-0001-42.png
00000014,849,1,1450108183199,1450108183730,925,489,0,0,0,2,0,2,2,0003-00-0001-04.png,0005-00-0001-27.png
00000014,850,1,1450108184759,1450108185234,390,501,0,0,0,0,2,2,2,0005-00-0001-56.png,0003-00-0000-93.png
00000014,851,1,1450108186262,1450108186698,427,475,0,0,0,0,4,4,4,0005-00-0001-78.png,0001-00-0001-45.png
00000014,852,0,1450108187789,1450108188484,894,524,0,0,0,1,4,3,5,0004-00-0001-71.png,0001-00-0001-49.png
00000014,853,1,1450108191903,1450108192367,965,473,0,0,0,4,1,3,5,0001-00-0000-96.png,0004-00-0001-58.png
00000014,854,1,1450108193504,1450108194021,899,542,0,0,0,4,0,4,4,0001-00-0001-22.png,0005-00-0000-66.png
00000014,855,0,1450108195093,1450108195743,888,476,0,0,0,3,4,1,7,0002-00-0001-50.png,0001-00-0001-52.png
00000014,856,1,1450108199617,1450108200032,939,450,0,0,0,2,1,1,3,0003-00-0000-77.png,0004-00-0000-49.png
00000014,857,0,1450108201139,1450108201634,893,490,0,0,0,2,4,2,6,0003-00-0000-24.png,0001-00-0001-48.png
00000014,858,1,1450108205309,1450108205767,964,474,0,0,0,3,1,2,4,0002-00-0001-92.png,0004-00-0000-44.png
00000014,859,1,1450108206824,1450108207345,877,469,0,0,0,3,0,3,3,0002-00-0001-17.png,0005-00-0001-96.png
00000014,860,0,1450108208443,1450108209050,896,472,0,0,0,2,3,1,5,0003-00-0001-20.png,0002-00-0001-73.png
00000014,861,1,1450108212142,1450108212574,950,482,0,0,0,3,0,3,3,0002-00-0000-47.png,0005-00-0000-72.png
00000014,862,0,1450108213596,1450108214335,938,501,0,0,0,1,3,2,4,0004-00-0001-73.png,0002-00-0000-75.png
00000014,863,1,1450108218916,1450108219383,376,450,0,0,0,0,1,1,1,0005-00-0000-25.png,0004-00-0000-45.png
00000014,864,0,1450108220560,1450108221162,900,464,0,0,0,1,4,3,5,0004-00-0000-67.png,0001-00-0001-06.png
00000014,865,1,1450108224044,1450108224639,430,522,0,0,0,0,3,3,3,0005-00-0001-63.png,0002-00-0001-65.png
00000014,866,1,1450108225741,1450108226498,900,423,0,0,0,1,0,1,1,0004-00-0001-34.png,0005-00-0000-48.png
00000014,867,1,1450108227605,1450108228035,345,487,0,0,0,0,4,4,4,0005-00-0001-24.png,0001-00-0001-45.png
00000014,868,0,1450108229621,1450108230140,921,446,0,0,0,2,4,2,6,0003-00-0000-30.png,0001-00-0000-22.png
00000014,869,0,1450108233378,1450108233853,951,488,0,0,0,1,2,1,3,0004-00-0000-22.png,0003-00-0000-41.png
00000014,870,1,1450108237156,1450108237591,1002,464,0,0,0,4,1,3,5,0001-00-0001-33.png,0004-00-0000-85.png
00000014,871,1,1450108238757,1450108239419,901,462,0,0,0,3,1,2,4,0002-00-0001-64.png,0004-00-0000-84.png
00000014,872,0,1450108240496,1450108241026,409,465,0,0,0,2,0,2,2,0003-00-0001-97.png,0005-00-0001-28.png
00000014,873,1,1450108244591,1450108245060,395,451,0,0,0,0,2,2,2,0005-00-0001-96.png,0003-00-0000-34.png
00000014,874,1,1450108246616,1450108247099,905,454,0,0,0,2,1,1,3,0003-00-0000-13.png,0004-00-0001-05.png
00000014,875,0,1450108248254,1450108248685,412,500,0,0,0,4,0,4,4,0001-00-0000-91.png,0005-00-0000-01.png
00000014,876,1,1450108251714,1450108252174,909,450,0,0,0,3,2,1,5,0002-00-0001-93.png,0003-00-0000-88.png
00000014,877,1,1450108253396,1450108254062,861,472,0,0,0,4,3,1,7,0001-00-0000-65.png,0002-00-0000-57.png
00000014,878,1,1450108255855,1450108256906,404,455,0,0,0,2,3,1,5,0003-00-0000-73.png,0002-00-0001-44.png
00000014,879,0,1450108258306,1450108258797,355,409,0,0,0,4,2,2,6,0001-00-0000-98.png,0003-00-0001-50.png
00000014,880,0,1450108263920,1450108264382,972,468,0,0,0,3,4,1,7,0002-00-0001-82.png,0001-00-0000-32.png
00000014,881,1,1450108267347,1450108267828,926,528,0,0,0,2,1,1,3,0003-00-0000-41.png,0004-00-0000-82.png
00000014,882,1,1450108268951,1450108269644,937,468,0,0,0,1,0,1,1,0004-00-0000-72.png,0005-00-0001-48.png
00000014,883,0,1450108270790,1450108271438,899,463,0,0,0,1,3,2,4,0004-00-0001-50.png,0002-00-0000-41.png
00000014,884,0,1450108274954,1450108275438,964,475,0,0,0,1,4,3,5,0004-00-0001-95.png,0001-00-0001-94.png
00000014,885,1,1450108278391,1450108278897,968,454,0,0,0,3,0,3,3,0002-00-0000-81.png,0005-00-0000-49.png
00000014,886,1,1450108279994,1450108280503,923,455,0,0,0,2,0,2,2,0003-00-0000-27.png,0005-00-0000-89.png
00000014,887,1,1450108281593,1450108282035,432,493,0,0,0,0,3,3,3,0005-00-0001-51.png,0002-00-0001-00.png
00000014,888,1,1450108283142,1450108283745,901,476,0,0,0,4,2,2,6,0001-00-0001-00.png,0003-00-0000-76.png
00000014,889,1,1450108284913,1450108285599,927,477,0,0,0,4,0,4,4,0001-00-0001-32.png,0005-00-0000-56.png
00000014,890,1,1450108286794,1450108287346,901,466,0,0,0,3,1,2,4,0002-00-0001-06.png,0004-00-0000-07.png
00000014,891,1,1450108288512,1450108289034,363,491,0,0,0,0,2,2,2,0005-00-0001-70.png,0003-00-0001-37.png
00000014,892,0,1450108290206,1450108290761,919,464,0,0,0,2,4,2,6,0003-00-0001-46.png,0001-00-0001-21.png
00000014,893,1,1450108294353,1450108294757,904,401,0,0,0,4,1,3,5,0001-00-0000-96.png,0004-00-0000-36.png
00000014,894,1,1450108295891,1450108296463,900,476,0,0,0,3,2,1,5,0002-00-0000-91.png,0003-00-0000-82.png
00000014,895,1,1450108297625,1450108298068,350,487,0,0,0,0,4,4,4,0005-00-0000-58.png,0001-00-0000-57.png
00000014,896,1,1450108299255,1450108299718,388,451,0,0,0,1,2,1,3,0004-00-0000-12.png,0003-00-0001-15.png
00000014,897,1,1450108300925,1450108301487,900,489,0,0,0,4,3,1,7,0001-00-0001-57.png,0002-00-0000-88.png
00000014,898,1,1450108302735,1450108303326,458,471,0,0,0,3,4,1,7,0002-00-0000-89.png,0001-00-0001-78.png
00000014,899,0,1450108304575,1450108305115,897,459,0,0,0,2,3,1,5,0003-00-0000-84.png,0002-00-0001-30.png
00000014,900,0,1450108308218,1450108308827,892,535,0,0,0,0,1,1,1,0005-00-0000-02.png,0004-00-0001-91.png
00000014,901,0,1450108311748,1450108312247,976,464,0,0,0,1,4,3,5,0004-00-0000-97.png,0001-00-0000-30.png
00000014,902,0,1450108319077,1450108319476,953,439,0,0,0,0,4,4,4,0005-00-0000-40.png,0001-00-0001-39.png
00000014,903,1,1450108322626,1450108323012,959,474,0,0,0,3,0,3,3,0002-00-0000-51.png,0005-00-0000-39.png
00000014,904,0,1450108324156,1450108324688,906,469,0,0,0,3,4,1,7,0002-00-0001-48.png,0001-00-0001-10.png
00000014,905,1,1450108327648,1450108328125,974,470,0,0,0,4,3,1,7,0001-00-0001-60.png,0002-00-0001-58.png
00000014,906,1,1450108329317,1450108330037,926,501,0,0,0,4,1,3,5,0001-00-0000-94.png,0004-00-0001-08.png
00000014,907,1,1450108331217,1450108331700,388,469,0,0,0,0,3,3,3,0005-00-0001-43.png,0002-00-0000-35.png
00000014,908,0,1450108332865,1450108333279,415,488,0,0,0,4,2,2,6,0001-00-0000-82.png,0003-00-0000-24.png
00000014,909,1,1450108336214,1450108336672,961,473,0,0,0,3,1,2,4,0002-00-0001-48.png,0004-00-0001-79.png
00000014,910,1,1450108337787,1450108338326,901,461,0,0,0,3,2,1,5,0002-00-0000-79.png,0003-00-0001-46.png
00000014,911,1,1450108339565,1450108340068,412,556,0,0,0,0,2,2,2,0005-00-0001-42.png,0003-00-0000-46.png
00000014,912,0,1450108341225,1450108341793,899,484,0,0,0,1,2,1,3,0004-00-0000-18.png,0003-00-0001-69.png
00000014,913,1,1450108345112,1450108345606,964,475,0,0,0,2,0,2,2,0003-00-0001-10.png,0005-00-0000-83.png
00000014,914,1,1450108346762,1450108347308,926,463,0,0,0,1,0,1,1,0004-00-0000-50.png,0005-00-0001-78.png
00000014,915,0,1450108348442,1450108349494,923,483,0,0,0,0,1,1,1,0005-00-0000-65.png,0004-00-0000-29.png
00000014,916,1,1450108352438,1450108352945,939,435,0,0,0,2,1,1,3,0003-00-0000-61.png,0004-00-0000-35.png
00000014,917,0,1450108354047,1450108354601,893,457,0,0,0,2,3,1,5,0003-00-0001-03.png,0002-00-0000-73.png
00000014,918,0,1450108357656,1450108358134,900,554,0,0,0,1,3,2,4,0004-00-0000-82.png,0002-00-0001-91.png
00000014,919,1,1450108360984,1450108361004,522,419,0,0,0,2,4,2,6,0003-00-0000-39.png,0001-00-0001-51.png
00000014,920,1,1450108362536,1450108363259,924,485,0,0,0,4,0,4,4,0001-00-0000-99.png,0005-00-0001-07.png
00000014,921,1,1450108364920,1450108365460,924,458,0,0,0,3,1,2,4,0002-00-0001-63.png,0004-00-0000-03.png
00000014,922,0,1450108366813,1450108367358,903,469,0,0,0,2,4,2,6,0003-00-0001-61.png,0001-00-0001-39.png
00000014,923,0,1450108370227,1450108370783,981,496,0,0,0,1,2,1,3,0004-00-0001-49.png,0003-00-0000-18.png
00000014,924,1,1450108374473,1450108374931,954,467,0,0,0,2,0,2,2,0003-00-0000-41.png,0005-00-0001-65.png
00000014,925,1,1450108376027,1450108376798,923,487,0,0,0,3,2,1,5,0002-00-0000-31.png,0003-00-0001-81.png
00000014,926,1,1450108377971,1450108378464,414,462,0,0,0,0,2,2,2,0005-00-0001-36.png,0003-00-0001-84.png
00000014,927,1,1450108379751,1450108380451,858,500,0,0,0,3,0,3,3,0002-00-0000-86.png,0005-00-0001-94.png
00000014,928,1,1450108381669,1450108382230,921,446,0,0,0,2,1,1,3,0003-00-0000-67.png,0004-00-0000-93.png
00000014,929,0,1450108383548,1450108384053,363,501,0,0,0,4,1,3,5,0001-00-0000-95.png,0004-00-0001-92.png
00000014,930,0,1450108387065,1450108387587,964,498,0,0,0,2,3,1,5,0003-00-0001-05.png,0002-00-0001-57.png
00000014,931,1,1450108390773,1450108391266,977,474,0,0,0,1,0,1,1,0004-00-0000-62.png,0005-00-0000-85.png
00000014,932,0,1450108392482,1450108393142,938,476,0,0,0,1,3,2,4,0004-00-0000-36.png,0002-00-0001-52.png
00000014,933,0,1450108396686,1450108397170,954,468,0,0,0,1,4,3,5,0004-00-0000-67.png,0001-00-0000-14.png
00000014,934,1,1450108400473,1450108400922,907,526,0,0,0,4,3,1,7,0001-00-0001-40.png,0002-00-0000-96.png
00000014,935,1,1450108402571,1450108403059,925,449,0,0,0,4,0,4,4,0001-00-0001-95.png,0005-00-0001-93.png
00000014,936,0,1450108404369,1450108405031,952,487,0,0,0,0,1,1,1,0005-00-0001-51.png,0004-00-0001-09.png
00000014,937,0,1450108408124,1450108408561,921,550,0,0,0,3,4,1,7,0002-00-0001-72.png,0001-00-0001-21.png
00000014,938,1,1450108411813,1450108412291,975,488,0,0,0,4,2,2,6,0001-00-0000-60.png,0003-00-0001-66.png
00000014,939,1,1450108413442,1450108413987,393,479,0,0,0,0,4,4,4,0005-00-0001-10.png,0001-00-0001-98.png
00000014,940,1,1450108415220,1450108415697,416,464,0,0,0,0,3,3,3,0005-00-0000-20.png,0002-00-0000-08.png
00000014,941,1,1450108416802,1450108417452,882,498,0,0,0,3,1,2,4,0002-00-0001-10.png,0004-00-0000-41.png
00000014,942,1,1450108419056,1450108419519,921,446,0,0,0,2,0,2,2,0003-00-0001-43.png,0005-00-0000-19.png
00000014,943,0,1450108420743,1450108421231,478,488,0,0,0,4,2,2,6,0001-00-0001-80.png,0003-00-0001-24.png
00000014,944,0,1450108424135,1450108424625,963,450,0,0,0,2,3,1,5,0003-00-0000-13.png,0002-00-0000-31.png
00000014,945,1,1450108427566,1450108428063,976,439,0,0,0,4,0,4,4,0001-00-0000-79.png,0005-00-0001-50.png
00000014,946,1,1450108429326,1450108429776,399,475,0,0,0,0,3,3,3,0005-00-0000-94.png,0002-00-0001-87.png
00000014,947,0,1450108431025,1450108431602,903,467,0,0,0,3,4,1,7,0002-00-0001-57.png,0001-00-0000-85.png
00000014,948,1,1450108434450,1450108434927,453,436,0,0,0,0,4,4,4,0005-00-0000-52.png,0001-00-0001-70.png
00000014,949,1,1450108436086,1450108436706,871,444,0,0,0,4,1,3,5,0001-00-0001-74.png,0004-00-0001-31.png
00000014,950,0,1450108438319,1450108439017,926,476,0,0,0,1,2,1,3,0004-00-0000-26.png,0003-00-0001-54.png
00000014,951,1,1450108441939,1450108442415,435,530,0,0,0,0,1,1,1,0005-00-0001-84.png,0004-00-0000-87.png
