subject_id,trial,correct_response,stim_time,response_time,x_coord,y_coord,trial_timeout,timeout_time,interTrial_timeout,left_rank,right_rank,distance,joint_rank,left_image,right_image
00000009,1,1,1450358971096,1450358971104,866,265,0,0,0,3,1,2,4,0002-00-0001-90.png,0004-00-0001-12.png
00000009,2,1,1450358972344,1450358972945,1092,279,0,0,0,3,0,3,3,0002-00-0000-39.png,0005-00-0000-98.png
00000009,3,0,1450358974967,1450358974991,891,381,0,0,0,2,3,1,5,0003-00-0000-69.png,0002-00-0000-46.png
00000009,4,1,1450358978088,1450358978112,861,273,0,0,0,1,0,1,1,0004-00-0000-25.png,0005-00-0000-70.png
00000009,5,1,1450358979146,1450358980210,980,227,0,0,0,4,1,3,5,0001-00-0001-43.png,0004-00-0000-06.png
00000009,6,1,1450358981214,1450358982208,464,277,0,0,0,0,3,3,3,0005-00-0000-00.png,0002-00-0001-83.png
00000009,7,0,1450358983359,1450358984092,904,327,0,0,0,3,4,1,7,0002-00-0001-30.png,0001-00-0000-41.png
00000009,8,1,1450358987533,1450358988373,484,220,0,0,0,0,1,1,1,0005-00-0001-28.png,0004-00-0001-74.png
00000009,9,1,1450358989395,1450358990879,462,245,0,0,0,0,4,4,4,0005-00-0001-74.png,0001-00-0000-14.png
00000009,10,1,1450358991945,1450358992807,907,280,0,0,0,4,0,4,4,0001-00-0001-81.png,0005-00-0001-82.png
00000009,11,1,1450358993902,1450358994000,863,487,0,0,0,2,0,2,2,0003-00-0001-73.png,0005-00-0000-80.png
00000009,12,1,1450358995266,1450358996593,925,353,0,0,0,4,3,1,7,0001-00-0001-47.png,0002-00-0001-56.png
00000009,13,1,1450358997738,1450358998579,480,241,0,0,0,1,3,2,4,0004-00-0001-14.png,0002-00-0001-59.png
00000009,14,0,1450358999617,1450359000432,901,322,0,0,0,1,2,1,3,0004-00-0000-50.png,0003-00-0000-48.png
00000009,15,1,1450359003580,1450359004654,456,266,0,0,0,1,4,3,5,0004-00-0001-07.png,0001-00-0000-88.png
00000009,16,1,1450359005666,1450359006673,448,395,0,0,0,2,4,2,6,0003-00-0001-83.png,0001-00-0001-82.png
00000009,17,0,1450359007704,1450359007708,517,479,0,0,0,3,2,1,5,0002-00-0000-45.png,0003-00-0000-50.png
00000009,18,1,1450359010794,1450359011435,459,404,0,0,0,0,2,2,2,0005-00-0001-91.png,0003-00-0001-84.png
00000009,19,1,1450359012407,1450359013506,1014,285,0,0,0,4,2,2,6,0001-00-0000-43.png,0003-00-0000-50.png
00000009,20,1,1450359014523,1450359015574,939,384,0,0,0,2,1,1,3,0003-00-0000-93.png,0004-00-0001-92.png
00000009,21,1,1450359016569,1450359017512,946,324,0,0,0,3,2,1,5,0002-00-0001-83.png,0003-00-0000-03.png
00000009,22,1,1450359018517,1450359019317,492,233,0,0,0,1,3,2,4,0004-00-0001-93.png,0002-00-0000-15.png
00000009,23,0,1450359020247,1450359020251,516,500,0,0,0,4,1,3,5,0001-00-0000-37.png,0004-00-0001-03.png
00000009,24,1,1450359023327,1450359024130,401,358,0,0,0,2,4,2,6,0003-00-0001-16.png,0001-00-0001-30.png
00000009,25,0,1450359025182,1450359025904,910,321,0,0,0,2,3,1,5,0003-00-0001-43.png,0002-00-0000-04.png
00000009,26,1,1450359028873,1450359029588,1016,291,0,0,0,1,0,1,1,0004-00-0000-90.png,0005-00-0001-62.png
00000009,27,1,1450359030497,1450359031264,434,227,0,0,0,1,4,3,5,0004-00-0000-15.png,0001-00-0001-64.png
00000009,28,0,1450359032786,1450359033436,393,332,0,0,0,3,1,2,4,0002-00-0001-20.png,0004-00-0000-92.png
00000009,29,1,1450359036545,1450359037117,1062,279,0,0,0,3,0,3,3,0002-00-0000-53.png,0005-00-0001-07.png
00000009,30,1,1450359038086,1450359038868,898,272,0,0,0,2,0,2,2,0003-00-0001-04.png,0005-00-0001-63.png
00000009,31,1,1450359039910,1450359040771,448,392,0,0,0,0,3,3,3,0005-00-0000-59.png,0002-00-0001-37.png
00000009,32,1,1450359041758,1450359042722,996,285,0,0,0,2,1,1,3,0003-00-0000-49.png,0004-00-0000-55.png
00000009,33,1,1450359043689,1450359044921,446,362,0,0,0,0,2,2,2,0005-00-0001-35.png,0003-00-0000-89.png
00000009,34,1,1450359045949,1450359046856,436,220,0,0,0,0,1,1,1,0005-00-0001-99.png,0004-00-0001-20.png
00000009,35,0,1450359047867,1450359051197,913,279,0,0,0,1,2,1,3,0004-00-0001-40.png,0003-00-0000-17.png
00000009,36,0,1450359054070,1450359054098,866,298,0,0,0,3,4,1,7,0002-00-0000-22.png,0001-00-0000-14.png
00000009,37,0,1450359057810,1450359057854,949,224,0,0,0,0,4,4,4,0005-00-0001-77.png,0001-00-0000-96.png
00000009,38,1,1450359061109,1450359061802,1031,275,0,0,0,4,2,2,6,0001-00-0001-08.png,0003-00-0001-70.png
00000009,39,1,1450359064099,1450359064737,864,324,0,0,0,4,0,4,4,0001-00-0001-60.png,0005-00-0000-56.png
00000009,40,1,1450359065666,1450359066430,913,410,0,0,0,4,3,1,7,0001-00-0001-26.png,0002-00-0000-59.png
00000009,41,1,1450359069439,1450359069961,1015,274,0,0,0,3,1,2,4,0002-00-0001-63.png,0004-00-0000-50.png
00000009,42,1,1450359070868,1450359071497,903,339,0,0,0,4,0,4,4,0001-00-0000-97.png,0005-00-0001-71.png
00000009,43,1,1450359072497,1450359073387,879,323,0,0,0,3,0,3,3,0002-00-0000-42.png,0005-00-0001-65.png
00000009,44,1,1450359074335,1450359075237,398,326,0,0,0,2,4,2,6,0003-00-0000-87.png,0001-00-0001-09.png
00000009,45,1,1450359076205,1450359076821,894,324,0,0,0,2,1,1,3,0003-00-0001-26.png,0004-00-0001-40.png
00000009,46,1,1450359077776,1450359078743,469,227,0,0,0,2,3,1,5,0003-00-0000-15.png,0002-00-0001-70.png
00000009,47,0,1450359079611,1450359080683,435,405,0,0,0,4,3,1,7,0001-00-0001-33.png,0002-00-0001-97.png
00000009,48,1,1450359083713,1450359084293,417,324,0,0,0,0,4,4,4,0005-00-0001-97.png,0001-00-0001-19.png
00000009,49,1,1450359085151,1450359085183,491,499,0,0,0,1,2,1,3,0004-00-0001-41.png,0003-00-0001-92.png
00000009,50,1,1450359086275,1450359087062,973,279,0,0,0,2,0,2,2,0003-00-0001-37.png,0005-00-0001-93.png
00000009,51,1,1450359087959,1450359088993,990,238,0,0,0,3,2,1,5,0002-00-0001-09.png,0003-00-0000-77.png
00000009,52,1,1450359089917,1450359090662,425,251,0,0,0,0,1,1,1,0005-00-0000-49.png,0004-00-0001-14.png
00000009,53,1,1450359091556,1450359092369,468,240,0,0,0,0,3,3,3,0005-00-0001-03.png,0002-00-0000-22.png
00000009,54,1,1450359093243,1450359094027,447,235,0,0,0,0,2,2,2,0005-00-0001-99.png,0003-00-0000-79.png
00000009,55,1,1450359095689,1450359096553,357,279,0,0,0,1,3,2,4,0004-00-0000-52.png,0002-00-0001-45.png
00000009,56,1,1450359098100,1450359098825,939,292,0,0,0,4,1,3,5,0001-00-0000-34.png,0004-00-0001-89.png
00000009,57,0,1450359099734,1450359099750,517,493,0,0,0,1,0,1,1,0004-00-0000-69.png,0005-00-0000-87.png
00000009,58,0,1450359102865,1450359103336,939,306,0,0,0,3,4,1,7,0002-00-0001-25.png,0001-00-0001-00.png
00000009,59,0,1450359106433,1450359106966,889,322,0,0,0,1,4,3,5,0004-00-0001-51.png,0001-00-0000-85.png
00000009,60,1,1450359110071,1450359110616,963,369,0,0,0,4,2,2,6,0001-00-0000-60.png,0003-00-0000-58.png
00000009,61,1,1450359111479,1450359112145,424,403,0,0,0,0,1,1,1,0005-00-0001-01.png,0004-00-0001-64.png
00000009,62,1,1450359113642,1450359114331,489,237,0,0,0,0,2,2,2,0005-00-0001-78.png,0003-00-0000-75.png
00000009,63,1,1450359115222,1450359115290,513,509,0,0,0,1,2,1,3,0004-00-0001-75.png,0003-00-0000-94.png
00000009,64,1,1450359116361,1450359117443,501,289,0,0,0,0,4,4,4,0005-00-0000-21.png,0001-00-0000-68.png
00000009,65,1,1450359118835,1450359119541,415,241,0,0,0,2,4,2,6,0003-00-0000-21.png,0001-00-0001-85.png
00000009,66,1,1450359121127,1450359121680,918,310,0,0,0,3,1,2,4,0002-00-0001-18.png,0004-00-0000-55.png
00000009,67,1,1450359122498,1450359123570,913,306,0,0,0,4,3,1,7,0001-00-0001-23.png,0002-00-0001-40.png
00000009,68,1,1450359124468,1450359125325,388,317,0,0,0,1,3,2,4,0004-00-0000-90.png,0002-00-0001-88.png
00000009,69,1,1450359126782,1450359127507,990,253,0,0,0,3,2,1,5,0002-00-0001-26.png,0003-00-0001-17.png
00000009,70,1,1450359128419,1450359129417,939,373,0,0,0,4,1,3,5,0001-00-0000-53.png,0004-00-0001-05.png
00000009,71,1,1450359130300,1450359131320,447,235,0,0,0,1,4,3,5,0004-00-0000-61.png,0001-00-0000-66.png
00000009,72,0,1450359132178,1450359132182,521,478,0,0,0,3,0,3,3,0002-00-0000-92.png,0005-00-0000-05.png
00000009,73,1,1450359135271,1450359135862,461,286,0,0,0,0,3,3,3,0005-00-0001-89.png,0002-00-0000-73.png
00000009,74,1,1450359136688,1450359137571,376,383,0,0,0,2,3,1,5,0003-00-0000-40.png,0002-00-0001-50.png
00000009,75,1,1450359139047,1450359139734,1041,279,0,0,0,4,2,2,6,0001-00-0001-86.png,0003-00-0001-63.png
00000009,76,1,1450359140615,1450359141338,872,316,0,0,0,1,0,1,1,0004-00-0000-66.png,0005-00-0001-44.png
00000009,77,0,1450359142257,1450359143077,378,354,0,0,0,2,1,1,3,0003-00-0000-46.png,0004-00-0001-03.png
00000009,78,1,1450359146271,1450359146796,913,384,0,0,0,2,0,2,2,0003-00-0000-79.png,0005-00-0001-33.png
00000009,79,1,1450359147671,1450359148337,939,345,0,0,0,4,0,4,4,0001-00-0001-32.png,0005-00-0001-23.png
00000009,80,1,1450359149247,1450359150700,467,229,0,0,0,3,4,1,7,0002-00-0000-80.png,0001-00-0001-45.png
00000009,81,1,1450359151577,1450359152534,384,342,0,0,0,1,4,3,5,0004-00-0001-17.png,0001-00-0000-78.png
00000009,82,1,1450359153508,1450359154597,464,253,0,0,0,2,4,2,6,0003-00-0000-94.png,0001-00-0000-97.png
00000009,83,1,1450359155546,1450359156275,451,227,0,0,0,1,3,2,4,0004-00-0001-93.png,0002-00-0000-82.png
00000009,84,1,1450359157222,1450359158085,990,291,0,0,0,3,0,3,3,0002-00-0001-06.png,0005-00-0001-74.png
00000009,85,0,1450359158971,1450359159674,1016,240,0,0,0,0,4,4,4,0005-00-0001-45.png,0001-00-0001-87.png
00000009,86,1,1450359162817,1450359163350,413,358,0,0,0,2,3,1,5,0003-00-0001-69.png,0002-00-0001-19.png
00000009,87,0,1450359164850,1450359164862,520,488,0,0,0,4,0,4,4,0001-00-0001-34.png,0005-00-0000-46.png
00000009,88,1,1450359168033,1450359168049,932,293,0,0,0,4,2,2,6,0001-00-0001-00.png,0003-00-0000-72.png
00000009,89,1,1450359168998,1450359169818,913,317,0,0,0,2,1,1,3,0003-00-0000-83.png,0004-00-0001-68.png
00000009,90,1,1450359170743,1450359171014,861,544,0,0,0,3,2,1,5,0002-00-0001-80.png,0003-00-0000-86.png
00000009,91,1,1450359172257,1450359172981,447,222,0,0,0,1,2,1,3,0004-00-0001-96.png,0003-00-0001-13.png
00000009,92,1,1450359173886,1450359174631,486,246,0,0,0,0,3,3,3,0005-00-0001-19.png,0002-00-0001-69.png
00000009,93,0,1450359175486,1450359176212,444,235,0,0,0,1,0,1,1,0004-00-0001-49.png,0005-00-0001-35.png
00000009,94,1,1450359179204,1450359179371,896,371,0,0,0,2,0,2,2,0003-00-0000-71.png,0005-00-0000-57.png
00000009,95,1,1450359180843,1450359181555,385,346,0,0,0,3,4,1,7,0002-00-0000-68.png,0001-00-0000-63.png
00000009,96,1,1450359183088,1450359184460,964,243,0,0,0,4,3,1,7,0001-00-0000-16.png,0002-00-0000-58.png
00000009,97,1,1450359185384,1450359186206,398,344,0,0,0,0,1,1,1,0005-00-0001-07.png,0004-00-0001-51.png
00000009,98,1,1450359187130,1450359187199,518,528,0,0,0,0,2,2,2,0005-00-0000-77.png,0003-00-0000-78.png
00000009,99,1,1450359188349,1450359189061,904,340,0,0,0,4,1,3,5,0001-00-0000-41.png,0004-00-0001-90.png
00000009,100,1,1450359190014,1450359190926,913,390,0,0,0,3,1,2,4,0002-00-0000-36.png,0004-00-0001-33.png
00000009,101,1,1450359192489,1450359193075,994,272,0,0,0,4,0,4,4,0001-00-0000-13.png,0005-00-0001-56.png
00000009,102,1,1450359193935,1450359194835,918,310,0,0,0,3,1,2,4,0002-00-0000-10.png,0004-00-0000-64.png
00000009,103,0,1450359195799,1450359196622,462,220,0,0,0,2,1,1,3,0003-00-0001-20.png,0004-00-0001-48.png
00000009,104,1,1450359199695,1450359200276,400,405,0,0,0,1,4,3,5,0004-00-0001-39.png,0001-00-0001-65.png
00000009,105,1,1450359201119,1450359202258,915,352,0,0,0,4,1,3,5,0001-00-0000-94.png,0004-00-0000-26.png
00000009,106,0,1450359203099,1450359203916,934,388,0,0,0,2,4,2,6,0003-00-0000-77.png,0001-00-0000-30.png
00000009,107,1,1450359207118,1450359207162,938,245,0,0,0,2,0,2,2,0003-00-0000-19.png,0005-00-0001-09.png
00000009,108,1,1450359208709,1450359208713,519,423,0,0,0,0,1,1,1,0005-00-0000-35.png,0004-00-0001-21.png
00000009,109,1,1450359210407,1450359210978,453,227,0,0,0,1,3,2,4,0004-00-0000-95.png,0002-00-0000-03.png
00000009,110,1,1450359211879,1450359212628,382,318,0,0,0,0,3,3,3,0005-00-0000-59.png,0002-00-0000-26.png
00000009,111,1,1450359214174,1450359214772,473,234,0,0,0,0,2,2,2,0005-00-0001-49.png,0003-00-0001-41.png
00000009,112,0,1450359216260,1450359216284,522,445,0,0,0,4,2,2,6,0001-00-0001-26.png,0003-00-0000-25.png
00000009,113,1,1450359219370,1450359220190,462,245,0,0,0,1,2,1,3,0004-00-0001-84.png,0003-00-0000-96.png
00000009,114,1,1450359221081,1450359222026,913,295,0,0,0,4,3,1,7,0001-00-0001-58.png,0002-00-0001-52.png
00000009,115,0,1450359223544,1450359224384,944,389,0,0,0,0,4,4,4,0005-00-0001-35.png,0001-00-0000-31.png
00000009,116,1,1450359227560,1450359228081,939,332,0,0,0,3,0,3,3,0002-00-0001-95.png,0005-00-0001-86.png
00000009,117,1,1450359228916,1450359230010,964,358,0,0,0,1,0,1,1,0004-00-0000-96.png,0005-00-0000-11.png
00000009,118,1,1450359230899,1450359231867,913,291,0,0,0,3,2,1,5,0002-00-0001-77.png,0003-00-0000-53.png
00000009,119,0,1450359232816,1450359233625,1022,329,0,0,0,3,4,1,7,0002-00-0000-53.png,0001-00-0000-31.png
00000009,120,0,1450359236739,1450359237363,953,360,0,0,0,2,3,1,5,0003-00-0001-93.png,0002-00-0001-78.png
00000009,121,0,1450359240502,1450359240510,938,297,0,0,0,1,4,3,5,0004-00-0000-39.png,0001-00-0000-42.png
00000009,122,1,1450359243588,1450359244250,478,253,0,0,0,0,3,3,3,0005-00-0001-52.png,0002-00-0001-85.png
00000009,123,1,1450359245665,1450359246567,430,254,0,0,0,0,4,4,4,0005-00-0001-71.png,0001-00-0000-21.png
00000009,124,1,1450359248070,1450359248742,967,355,0,0,0,3,2,1,5,0002-00-0001-50.png,0003-00-0000-95.png
00000009,125,1,1450359250295,1450359250837,923,279,0,0,0,2,1,1,3,0003-00-0001-14.png,0004-00-0000-07.png
00000009,126,0,1450359251696,1450359252710,945,377,0,0,0,2,3,1,5,0003-00-0001-48.png,0002-00-0000-44.png
00000009,127,0,1450359255783,1450359256406,1064,354,0,0,0,2,4,2,6,0003-00-0000-99.png,0001-00-0000-44.png
00000009,128,1,1450359259324,1450359259915,1051,302,0,0,0,4,1,3,5,0001-00-0001-04.png,0004-00-0001-16.png
00000009,129,0,1450359260851,1450359261990,958,456,0,0,0,3,4,1,7,0002-00-0000-53.png,0001-00-0000-61.png
00000009,130,1,1450359264842,1450359265503,1045,258,0,0,0,2,0,2,2,0003-00-0001-83.png,0005-00-0001-13.png
00000009,131,1,1450359266394,1450359267519,453,270,0,0,0,0,2,2,2,0005-00-0000-57.png,0003-00-0001-51.png
00000009,132,0,1450359268458,1450359268518,484,516,0,0,0,4,2,2,6,0001-00-0001-95.png,0003-00-0000-25.png
00000009,133,1,1450359271681,1450359272342,1016,253,0,0,0,4,3,1,7,0001-00-0000-97.png,0002-00-0000-61.png
00000009,134,1,1450359273322,1450359274142,439,232,0,0,0,1,3,2,4,0004-00-0001-95.png,0002-00-0000-63.png
00000009,135,1,1450359275835,1450359276942,955,357,0,0,0,3,1,2,4,0002-00-0001-44.png,0004-00-0000-89.png
00000009,136,1,1450359277846,1450359278602,464,240,0,0,0,0,1,1,1,0005-00-0001-54.png,0004-00-0000-90.png
00000009,137,1,1450359279528,1450359280238,939,347,0,0,0,4,0,4,4,0001-00-0001-73.png,0005-00-0000-85.png
00000009,138,1,1450359281198,1450359281852,1001,253,0,0,0,1,0,1,1,0004-00-0001-12.png,0005-00-0001-49.png
00000009,139,1,1450359282833,1450359283940,435,228,0,0,0,1,2,1,3,0004-00-0000-96.png,0003-00-0000-14.png
00000009,140,1,1450359285602,1450359286149,939,332,0,0,0,3,0,3,3,0002-00-0001-06.png,0005-00-0001-34.png
00000009,141,1,1450359287043,1450359287743,465,236,0,0,0,1,4,3,5,0004-00-0001-72.png,0001-00-0001-59.png
00000009,142,0,1450359288674,1450359288710,521,470,0,0,0,4,3,1,7,0001-00-0001-68.png,0002-00-0001-71.png
00000009,143,1,1450359291597,1450359292078,1041,227,0,0,0,4,0,4,4,0001-00-0001-04.png,0005-00-0001-19.png
00000009,144,1,1450359293493,1450359294129,453,239,0,0,0,1,3,2,4,0004-00-0000-33.png,0002-00-0000-45.png
00000009,145,1,1450359294998,1450359295018,481,483,0,0,0,2,3,1,5,0003-00-0001-80.png,0002-00-0000-63.png
00000009,146,1,1450359296914,1450359297815,427,319,0,0,0,2,4,2,6,0003-00-0000-13.png,0001-00-0000-35.png
00000009,147,0,1450359298721,1450359298793,516,527,0,0,0,3,1,2,4,0002-00-0000-72.png,0004-00-0000-61.png
00000009,148,1,1450359302169,1450359302480,926,310,0,0,0,3,0,3,3,0002-00-0000-14.png,0005-00-0001-48.png
00000009,149,1,1450359303381,1450359304515,1016,306,0,0,0,2,0,2,2,0003-00-0001-42.png,0005-00-0000-50.png
00000009,150,0,1450359305488,1450359306282,917,366,0,0,0,0,1,1,1,0005-00-0001-33.png,0004-00-0000-60.png
00000009,151,1,1450359309403,1450359309548,873,250,0,0,0,1,0,1,1,0004-00-0001-43.png,0005-00-0000-53.png
00000009,152,0,1450359311043,1450359312006,449,240,0,0,0,3,2,1,5,0002-00-0000-56.png,0003-00-0001-60.png
00000009,153,1,1450359314857,1450359315532,1016,279,0,0,0,2,1,1,3,0003-00-0001-96.png,0004-00-0001-82.png
00000009,154,1,1450359316385,1450359317164,451,243,0,0,0,0,3,3,3,0005-00-0001-47.png,0002-00-0001-62.png
00000009,155,1,1450359318057,1450359319138,404,357,0,0,0,3,4,1,7,0002-00-0000-64.png,0001-00-0000-10.png
00000009,156,1,1450359320025,1450359320967,911,299,0,0,0,4,1,3,5,0001-00-0001-08.png,0004-00-0000-74.png
00000009,157,1,1450359321863,1450359322576,445,236,0,0,0,1,2,1,3,0004-00-0001-28.png,0003-00-0000-27.png
00000009,158,1,1450359323480,1450359324191,913,307,0,0,0,4,2,2,6,0001-00-0001-64.png,0003-00-0000-06.png
00000009,159,1,1450359325123,1450359325951,415,358,0,0,0,0,2,2,2,0005-00-0001-72.png,0003-00-0001-15.png
00000009,160,1,1450359326883,1450359327564,455,241,0,0,0,0,4,4,4,0005-00-0001-01.png,0001-00-0000-43.png
00000009,161,1,1450359329076,1450359329830,334,339,0,0,0,2,4,2,6,0003-00-0000-78.png,0001-00-0000-96.png
00000009,162,1,1450359331373,1450359332114,433,361,0,0,0,0,4,4,4,0005-00-0001-08.png,0001-00-0001-88.png
00000009,163,0,1450359333436,1450359333871,924,480,0,0,0,3,4,1,7,0002-00-0000-47.png,0001-00-0001-36.png
00000009,164,1,1450359336996,1450359337559,964,341,0,0,0,3,0,3,3,0002-00-0000-83.png,0005-00-0000-16.png
00000009,165,0,1450359338386,1450359339093,454,408,0,0,0,4,1,3,5,0001-00-0001-18.png,0004-00-0000-34.png
00000009,166,0,1450359342116,1450359342626,903,338,0,0,0,1,3,2,4,0004-00-0001-79.png,0002-00-0001-35.png
00000009,167,1,1450359345722,1450359346470,1066,277,0,0,0,4,2,2,6,0001-00-0001-71.png,0003-00-0000-82.png
00000009,168,1,1450359347308,1450359347935,459,245,0,0,0,0,2,2,2,0005-00-0001-97.png,0003-00-0000-03.png
00000009,169,0,1450359348881,1450359349706,939,289,0,0,0,0,1,1,1,0005-00-0001-41.png,0004-00-0001-20.png
00000009,170,1,1450359352650,1450359353156,1016,270,0,0,0,2,0,2,2,0003-00-0001-10.png,0005-00-0000-93.png
00000009,171,1,1450359353978,1450359354911,499,259,0,0,0,1,4,3,5,0004-00-0000-07.png,0001-00-0000-19.png
00000009,172,1,1450359355726,1450359356513,448,265,0,0,0,0,3,3,3,0005-00-0001-55.png,0002-00-0001-83.png
00000009,173,1,1450359358074,1450359358670,990,269,0,0,0,3,2,1,5,0002-00-0000-47.png,0003-00-0000-96.png
00000009,174,1,1450359359564,1450359360226,924,308,0,0,0,3,1,2,4,0002-00-0000-18.png,0004-00-0000-68.png
00000009,175,1,1450359361081,1450359361948,917,333,0,0,0,1,0,1,1,0004-00-0000-78.png,0005-00-0000-41.png
00000009,176,1,1450359362844,1450359363579,1020,262,0,0,0,4,3,1,7,0001-00-0001-50.png,0002-00-0000-80.png
00000009,177,1,1450359364613,1450359365399,913,368,0,0,0,2,1,1,3,0003-00-0000-60.png,0004-00-0000-07.png
00000009,178,1,1450359366284,1450359367315,467,227,0,0,0,2,3,1,5,0003-00-0000-66.png,0002-00-0001-18.png
00000009,179,1,1450359368239,1450359368263,518,502,0,0,0,1,2,1,3,0004-00-0001-75.png,0003-00-0000-63.png
00000009,180,1,1450359369283,1450359370061,894,347,0,0,0,4,0,4,4,0001-00-0000-94.png,0005-00-0000-33.png
00000009,181,1,1450359370962,1450359371645,439,384,0,0,0,1,2,1,3,0004-00-0000-70.png,0003-00-0000-62.png
00000009,182,1,1450359372582,1450359373733,467,245,0,0,0,2,3,1,5,0003-00-0001-82.png,0002-00-0001-56.png
00000009,183,0,1450359374606,1450359375366,472,254,0,0,0,2,0,2,2,0003-00-0000-46.png,0005-00-0000-95.png
00000009,184,1,1450359378824,1450359379437,1035,322,0,0,0,3,0,3,3,0002-00-0000-03.png,0005-00-0000-79.png
00000009,185,0,1450359381287,1450359382005,942,302,0,0,0,1,4,3,5,0004-00-0000-80.png,0001-00-0001-06.png
00000009,186,1,1450359385418,1450359386046,457,247,0,0,0,0,4,4,4,0005-00-0000-76.png,0001-00-0001-85.png
00000009,187,1,1450359387456,1450359388059,912,330,0,0,0,1,0,1,1,0004-00-0001-06.png,0005-00-0000-32.png
00000009,188,1,1450359388960,1450359389853,453,239,0,0,0,1,3,2,4,0004-00-0001-25.png,0002-00-0000-48.png
00000009,189,1,1450359390818,1450359391870,913,370,0,0,0,3,1,2,4,0002-00-0001-68.png,0004-00-0000-39.png
00000009,190,1,1450359392702,1450359393634,475,239,0,0,0,0,3,3,3,0005-00-0001-35.png,0002-00-0001-57.png
00000009,191,1,1450359394535,1450359395239,468,226,0,0,0,0,2,2,2,0005-00-0001-01.png,0003-00-0001-51.png
00000009,192,0,1450359396177,1450359397008,502,240,0,0,0,3,2,1,5,0002-00-0001-93.png,0003-00-0001-80.png
00000009,193,1,1450359400101,1450359400117,869,320,0,0,0,4,3,1,7,0001-00-0000-39.png,0002-00-0000-02.png
00000009,194,1,1450359401047,1450359402098,895,322,0,0,0,4,2,2,6,0001-00-0000-51.png,0003-00-0000-34.png
00000009,195,1,1450359403003,1450359403675,920,381,0,0,0,2,1,1,3,0003-00-0000-18.png,0004-00-0000-41.png
00000009,196,1,1450359404622,1450359405367,929,410,0,0,0,4,1,3,5,0001-00-0001-60.png,0004-00-0000-72.png
00000009,197,1,1450359406332,1450359407362,453,262,0,0,0,3,4,1,7,0002-00-0000-52.png,0001-00-0001-52.png
00000009,198,0,1450359408276,1450359409431,928,332,0,0,0,2,4,2,6,0003-00-0001-35.png,0001-00-0001-97.png
00000009,199,0,1450359412642,1450359413227,1041,332,0,0,0,0,1,1,1,0005-00-0000-94.png,0004-00-0000-07.png
00000009,200,1,1450359416205,1450359416245,873,443,0,0,0,4,0,4,4,0001-00-0001-16.png,0005-00-0001-85.png
00000009,201,1,1450359417185,1450359417951,935,429,0,0,0,1,0,1,1,0004-00-0000-42.png,0005-00-0000-06.png
00000009,202,1,1450359418905,1450359419945,1016,227,0,0,0,4,0,4,4,0001-00-0000-64.png,0005-00-0001-92.png
00000009,203,1,1450359420827,1450359421594,492,253,0,0,0,0,1,1,1,0005-00-0001-14.png,0004-00-0001-54.png
00000009,204,1,1450359422535,1450359423373,469,244,0,0,0,0,2,2,2,0005-00-0000-49.png,0003-00-0001-49.png
00000009,205,1,1450359424225,1450359424233,511,507,0,0,0,3,4,1,7,0002-00-0001-00.png,0001-00-0000-01.png
00000009,206,1,1450359425372,1450359426192,1015,276,0,0,0,4,1,3,5,0001-00-0001-18.png,0004-00-0001-75.png
00000009,207,1,1450359427160,1450359427822,1005,229,0,0,0,3,0,3,3,0002-00-0000-28.png,0005-00-0000-24.png
00000009,208,1,1450359428862,1450359429594,1001,253,0,0,0,2,1,1,3,0003-00-0001-14.png,0004-00-0001-77.png
00000009,209,1,1450359430611,1450359431930,478,268,0,0,0,2,3,1,5,0003-00-0000-61.png,0002-00-0001-96.png
00000009,210,1,1450359432815,1450359433757,395,355,0,0,0,1,2,1,3,0004-00-0001-10.png,0003-00-0001-81.png
00000009,211,1,1450359434757,1450359436015,912,310,0,0,0,4,3,1,7,0001-00-0001-47.png,0002-00-0000-26.png
00000009,212,1,1450359436950,1450359437674,492,249,0,0,0,0,3,3,3,0005-00-0000-41.png,0002-00-0001-57.png
00000009,213,0,1450359438607,1450359439685,453,371,0,0,0,3,2,1,5,0002-00-0001-52.png,0003-00-0000-46.png
00000009,214,0,1450359442612,1450359442695,943,353,0,0,0,1,4,3,5,0004-00-0000-68.png,0001-00-0000-37.png
00000009,215,0,1450359445850,1450359445890,894,320,0,0,0,1,3,2,4,0004-00-0000-22.png,0002-00-0000-09.png
00000009,216,0,1450359448963,1450359449191,862,410,0,0,0,2,4,2,6,0003-00-0000-83.png,0001-00-0001-53.png
00000009,217,1,1450359452222,1450359452777,1066,261,0,0,0,3,1,2,4,0002-00-0000-81.png,0004-00-0000-95.png
00000009,218,1,1450359453641,1450359454625,913,384,0,0,0,4,2,2,6,0001-00-0001-92.png,0003-00-0000-67.png
00000009,219,1,1450359455511,1450359456510,939,374,0,0,0,2,0,2,2,0003-00-0000-22.png,0005-00-0000-50.png
00000009,220,1,1450359457420,1450359458300,471,228,0,0,0,0,4,4,4,0005-00-0000-84.png,0001-00-0000-52.png
00000009,221,1,1450359459241,1450359460359,480,263,0,0,0,1,2,1,3,0004-00-0001-64.png,0003-00-0001-31.png
00000009,222,1,1450359461193,1450359461885,472,235,0,0,0,0,2,2,2,0005-00-0000-03.png,0003-00-0000-17.png
00000009,223,0,1450359462882,1450359462920,516,479,0,0,0,2,0,2,2,0003-00-0000-10.png,0005-00-0001-44.png
00000009,224,0,1450359465991,1450359466579,913,384,0,0,0,3,4,1,7,0002-00-0000-88.png,0001-00-0000-02.png
00000009,225,1,1450359469772,1450359469848,1044,252,0,0,0,4,3,1,7,0001-00-0001-31.png,0002-00-0000-65.png
00000009,226,1,1450359470805,1450359471498,494,217,0,0,0,2,4,2,6,0003-00-0000-96.png,0001-00-0001-12.png
00000009,227,0,1450359472386,1450359473318,464,246,0,0,0,4,1,3,5,0001-00-0001-07.png,0004-00-0000-51.png
00000009,228,1,1450359476421,1450359476954,1049,275,0,0,0,4,0,4,4,0001-00-0001-83.png,0005-00-0001-78.png
00000009,229,1,1450359477809,1450359478696,447,235,0,0,0,0,4,4,4,0005-00-0000-19.png,0001-00-0001-58.png
00000009,230,0,1450359479610,1450359480887,999,243,0,0,0,1,3,2,4,0004-00-0000-99.png,0002-00-0001-98.png
00000009,231,1,1450359483719,1450359483868,869,422,0,0,0,3,0,3,3,0002-00-0000-03.png,0005-00-0000-84.png
00000009,232,0,1450359484827,1450359485546,1025,227,0,0,0,0,3,3,3,0005-00-0000-33.png,0002-00-0000-71.png
00000009,233,0,1450359488682,1450359488718,871,358,0,0,0,1,4,3,5,0004-00-0001-62.png,0001-00-0001-75.png
00000009,234,1,1450359491764,1450359492311,1138,325,0,0,0,2,1,1,3,0003-00-0000-88.png,0004-00-0001-64.png
00000009,235,0,1450359493192,1450359493979,490,240,0,0,0,1,0,1,1,0004-00-0000-10.png,0005-00-0001-12.png
00000009,236,1,1450359497130,1450359497719,939,263,0,0,0,3,1,2,4,0002-00-0001-74.png,0004-00-0000-73.png
00000009,237,1,1450359498587,1450359499441,1006,227,0,0,0,3,2,1,5,0002-00-0000-38.png,0003-00-0000-47.png
00000009,238,1,1450359500360,1450359501082,498,235,0,0,0,0,1,1,1,0005-00-0000-36.png,0004-00-0000-88.png
00000009,239,1,1450359502027,1450359503011,945,389,0,0,0,4,2,2,6,0001-00-0001-35.png,0003-00-0001-63.png
00000009,240,1,1450359503957,1450359504871,449,374,0,0,0,2,3,1,5,0003-00-0001-74.png,0002-00-0001-18.png
00000009,241,1,1450359505761,1450359506612,477,242,0,0,0,1,2,1,3,0004-00-0000-91.png,0003-00-0001-16.png
00000009,242,1,1450359507523,1450359508304,471,242,0,0,0,0,2,2,2,0005-00-0001-69.png,0003-00-0000-66.png
00000009,243,1,1450359509341,1450359510188,461,435,0,0,0,0,3,3,3,0005-00-0000-02.png,0002-00-0001-72.png
00000009,244,1,1450359511101,1450359512091,913,305,0,0,0,3,2,1,5,0002-00-0000-66.png,0003-00-0001-54.png
00000009,245,1,1450359512926,1450359513643,467,233,0,0,0,0,4,4,4,0005-00-0000-93.png,0001-00-0001-01.png
00000009,246,1,1450359514545,1450359515291,913,289,0,0,0,4,0,4,4,0001-00-0000-39.png,0005-00-0001-22.png
00000009,247,1,1450359516147,1450359516870,390,350,0,0,0,0,1,1,1,0005-00-0000-27.png,0004-00-0001-05.png
00000009,248,1,1450359517886,1450359518514,1022,245,0,0,0,3,1,2,4,0002-00-0001-24.png,0004-00-0000-41.png
00000009,249,1,1450359519383,1450359520205,459,232,0,0,0,1,3,2,4,0004-00-0000-31.png,0002-00-0001-03.png
00000009,250,1,1450359521063,1450359521901,995,238,0,0,0,3,0,3,3,0002-00-0001-67.png,0005-00-0000-94.png
00000009,251,1,1450359522783,1450359523808,472,254,0,0,0,2,3,1,5,0003-00-0001-49.png,0002-00-0001-95.png
00000009,252,0,1450359524787,1450359525497,889,321,0,0,0,3,4,1,7,0002-00-0001-23.png,0001-00-0001-14.png
00000009,253,0,1450359532788,1450359533392,924,358,0,0,0,1,4,3,5,0004-00-0000-52.png,0001-00-0001-61.png
00000009,254,1,1450359536617,1450359537188,913,322,0,0,0,4,2,2,6,0001-00-0000-80.png,0003-00-0000-56.png
00000009,255,0,1450359538044,1450359538706,913,316,0,0,0,2,4,2,6,0003-00-0001-59.png,0001-00-0001-97.png
00000009,256,1,1450359541564,1450359541620,910,360,0,0,0,2,0,2,2,0003-00-0001-49.png,0005-00-0000-89.png
00000009,257,1,1450359542611,1450359543685,1012,267,0,0,0,4,3,1,7,0001-00-0000-73.png,0002-00-0000-02.png
00000009,258,1,1450359544646,1450359545738,1029,265,0,0,0,1,0,1,1,0004-00-0000-99.png,0005-00-0001-25.png
00000009,259,1,1450359546586,1450359547417,918,400,0,0,0,2,1,1,3,0003-00-0000-61.png,0004-00-0000-58.png
00000009,260,1,1450359548340,1450359549157,924,317,0,0,0,4,1,3,5,0001-00-0001-06.png,0004-00-0000-94.png
00000009,261,1,1450359550122,1450359551043,1033,298,0,0,0,4,0,4,4,0001-00-0001-73.png,0005-00-0000-28.png
00000009,262,1,1450359551959,1450359552775,486,238,0,0,0,1,3,2,4,0004-00-0001-81.png,0002-00-0000-30.png
00000009,263,1,1450359553626,1450359554369,941,417,0,0,0,4,1,3,5,0001-00-0001-39.png,0004-00-0001-11.png
00000009,264,1,1450359555324,1450359556077,928,319,0,0,0,3,0,3,3,0002-00-0000-69.png,0005-00-0000-85.png
00000009,265,1,1450359557006,1450359557739,458,403,0,0,0,1,4,3,5,0004-00-0001-09.png,0001-00-0000-95.png
00000009,266,1,1450359558628,1450359559967,496,275,0,0,0,3,4,1,7,0002-00-0001-05.png,0001-00-0000-45.png
00000009,267,1,1450359560919,1450359561733,929,332,0,0,0,2,0,2,2,0003-00-0001-93.png,0005-00-0001-22.png
00000009,268,1,1450359562591,1450359563352,470,266,0,0,0,0,4,4,4,0005-00-0000-08.png,0001-00-0001-47.png
00000009,269,1,1450359564310,1450359564335,518,502,0,0,0,0,1,1,1,0005-00-0001-36.png,0004-00-0000-15.png
00000009,270,1,1450359565380,1450359566170,463,279,0,0,0,1,2,1,3,0004-00-0001-98.png,0003-00-0001-37.png
00000009,271,0,1450359567080,1450359567100,517,499,0,0,0,4,2,2,6,0001-00-0000-04.png,0003-00-0001-55.png
00000009,272,1,1450359570065,1450359570601,912,281,0,0,0,3,2,1,5,0002-00-0000-62.png,0003-00-0000-04.png
00000009,273,0,1450359571555,1450359572191,471,221,0,0,0,2,1,1,3,0003-00-0001-63.png,0004-00-0000-98.png
00000009,274,1,1450359575332,1450359576030,939,410,0,0,0,3,1,2,4,0002-00-0000-08.png,0004-00-0000-96.png
00000009,275,1,1450359577408,1450359578293,478,241,0,0,0,0,3,3,3,0005-00-0001-37.png,0002-00-0001-28.png
00000009,276,1,1450359579239,1450359580207,990,270,0,0,0,4,3,1,7,0001-00-0000-42.png,0002-00-0001-16.png
00000009,277,1,1450359581167,1450359581952,487,246,0,0,0,2,4,2,6,0003-00-0000-45.png,0001-00-0001-61.png
00000009,278,1,1450359582865,1450359582869,522,511,0,0,0,0,2,2,2,0005-00-0000-37.png,0003-00-0001-65.png
00000009,279,1,1450359584014,1450359584801,466,402,0,0,0,2,3,1,5,0003-00-0001-06.png,0002-00-0000-46.png
00000009,280,1,1450359585723,1450359586717,913,367,0,0,0,1,0,1,1,0004-00-0000-15.png,0005-00-0000-23.png
00000009,281,1,1450359587635,1450359589144,478,236,0,0,0,2,4,2,6,0003-00-0001-65.png,0001-00-0000-68.png
00000009,282,1,1450359590029,1450359590840,387,357,0,0,0,1,2,1,3,0004-00-0001-47.png,0003-00-0000-92.png
00000009,283,1,1450359591771,1450359592500,439,402,0,0,0,0,4,4,4,0005-00-0001-03.png,0001-00-0001-50.png
00000009,284,1,1450359593387,1450359594192,484,243,0,0,0,0,2,2,2,0005-00-0000-42.png,0003-00-0001-53.png
00000009,285,1,1450359595803,1450359596319,939,305,0,0,0,3,0,3,3,0002-00-0001-69.png,0005-00-0000-10.png
00000009,286,1,1450359597203,1450359598009,1052,234,0,0,0,4,0,4,4,0001-00-0000-76.png,0005-00-0001-38.png
00000009,287,1,1450359599033,1450359600085,974,253,0,0,0,4,3,1,7,0001-00-0001-02.png,0002-00-0001-65.png
00000009,288,1,1450359600980,1450359601887,475,237,0,0,0,2,3,1,5,0003-00-0000-10.png,0002-00-0001-02.png
00000009,289,1,1450359602768,1450359602780,523,444,0,0,0,0,1,1,1,0005-00-0000-16.png,0004-00-0000-65.png
00000009,290,1,1450359603868,1450359604742,414,320,0,0,0,1,3,2,4,0004-00-0000-22.png,0002-00-0000-87.png
00000009,291,1,1450359605617,1450359606306,1019,288,0,0,0,3,1,2,4,0002-00-0000-18.png,0004-00-0001-50.png
00000009,292,1,1450359607199,1450359608027,929,306,0,0,0,2,0,2,2,0003-00-0001-59.png,0005-00-0001-12.png
00000009,293,1,1450359608995,1450359609043,863,409,0,0,0,3,2,1,5,0002-00-0001-01.png,0003-00-0000-05.png
00000009,294,1,1450359610047,1450359610901,480,242,0,0,0,0,3,3,3,0005-00-0001-62.png,0002-00-0001-81.png
00000009,295,0,1450359611871,1450359612659,504,247,0,0,0,2,1,1,3,0003-00-0000-04.png,0004-00-0001-73.png
00000009,296,0,1450359615797,1450359616312,1027,279,0,0,0,3,4,1,7,0002-00-0000-46.png,0001-00-0001-62.png
00000009,297,1,1450359619384,1450359619978,514,256,0,0,0,1,4,3,5,0004-00-0000-69.png,0001-00-0001-71.png
00000009,298,1,1450359620833,1450359621500,912,331,0,0,0,1,0,1,1,0004-00-0001-99.png,0005-00-0000-06.png
00000009,299,1,1450359622426,1450359623208,999,279,0,0,0,4,1,3,5,0001-00-0001-80.png,0004-00-0000-36.png
00000009,300,1,1450359624189,1450359625303,1014,286,0,0,0,4,2,2,6,0001-00-0001-37.png,0003-00-0001-46.png
00000009,301,1,1450359626211,1450359627083,510,256,0,0,0,2,4,2,6,0003-00-0001-15.png,0001-00-0001-12.png
00000009,302,0,1450359627949,1450359627957,514,463,0,0,0,2,1,1,3,0003-00-0001-78.png,0004-00-0001-92.png
00000009,303,0,1450359631090,1450359631666,884,331,0,0,0,0,4,4,4,0005-00-0000-53.png,0001-00-0000-99.png
00000009,304,1,1450359634568,1450359635291,939,410,0,0,0,3,2,1,5,0002-00-0000-24.png,0003-00-0000-95.png
00000009,305,1,1450359636187,1450359637091,929,358,0,0,0,4,3,1,7,0001-00-0001-39.png,0002-00-0001-17.png
00000009,306,0,1450359638052,1450359639065,518,239,0,0,0,1,0,1,1,0004-00-0000-58.png,0005-00-0001-39.png
00000009,307,0,1450359642012,1450359642613,1041,242,0,0,0,0,2,2,2,0005-00-0000-77.png,0003-00-0001-99.png
00000009,308,0,1450359645659,1450359645694,876,355,0,0,0,1,4,3,5,0004-00-0000-36.png,0001-00-0000-63.png
00000009,309,1,1450359648849,1450359649432,1022,271,0,0,0,4,1,3,5,0001-00-0000-46.png,0004-00-0000-38.png
00000009,310,0,1450359650269,1450359651105,888,317,0,0,0,1,2,1,3,0004-00-0000-16.png,0003-00-0000-00.png
00000009,311,0,1450359654131,1450359654957,1041,253,0,0,0,2,3,1,5,0003-00-0001-08.png,0002-00-0001-41.png
00000009,312,0,1450359658111,1450359658226,919,282,0,0,0,0,3,3,3,0005-00-0001-14.png,0002-00-0001-73.png
00000009,313,0,1450359661109,1450359661125,892,403,0,0,0,0,1,1,1,0005-00-0000-36.png,0004-00-0001-12.png
00000009,314,1,1450359664781,1450359665282,1003,253,0,0,0,4,0,4,4,0001-00-0001-07.png,0005-00-0000-24.png
00000009,315,1,1450359666107,1450359666956,1016,270,0,0,0,3,0,3,3,0002-00-0001-55.png,0005-00-0000-98.png
00000009,316,1,1450359667848,1450359668691,939,332,0,0,0,4,2,2,6,0001-00-0001-01.png,0003-00-0001-41.png
00000009,317,0,1450359669635,1450359670481,941,369,0,0,0,1,3,2,4,0004-00-0000-86.png,0002-00-0001-06.png
00000009,318,1,1450359673620,1450359673664,893,308,0,0,0,2,0,2,2,0003-00-0001-53.png,0005-00-0000-46.png
00000009,319,1,1450359674535,1450359675428,943,399,0,0,0,3,1,2,4,0002-00-0001-77.png,0004-00-0001-57.png
00000009,320,1,1450359676354,1450359677547,427,378,0,0,0,3,4,1,7,0002-00-0000-55.png,0001-00-0001-49.png
00000009,321,1,1450359678386,1450359679226,930,358,0,0,0,4,2,2,6,0001-00-0000-33.png,0003-00-0001-65.png
00000009,322,0,1450359680229,1450359680973,495,227,0,0,0,1,0,1,1,0004-00-0000-53.png,0005-00-0001-06.png
00000009,323,1,1450359684134,1450359684198,880,335,0,0,0,3,1,2,4,0002-00-0001-46.png,0004-00-0000-78.png
00000009,324,1,1450359685108,1450359685853,472,261,0,0,0,0,4,4,4,0005-00-0000-06.png,0001-00-0000-64.png
00000009,325,0,1450359686725,1450359686774,520,494,0,0,0,4,3,1,7,0001-00-0001-61.png,0002-00-0001-68.png
00000009,326,1,1450359689857,1450359690475,504,265,0,0,0,0,2,2,2,0005-00-0000-92.png,0003-00-0001-87.png
00000009,327,0,1450359691326,1450359692220,1002,253,0,0,0,1,2,1,3,0004-00-0000-97.png,0003-00-0000-36.png
00000009,328,1,1450359695293,1450359695320,865,321,0,0,0,2,1,1,3,0003-00-0000-16.png,0004-00-0001-23.png
00000009,329,1,1450359696207,1450359697078,1041,253,0,0,0,4,0,4,4,0001-00-0001-93.png,0005-00-0001-62.png
00000009,330,0,1450359697943,1450359698889,1008,273,0,0,0,3,4,1,7,0002-00-0000-39.png,0001-00-0001-91.png
00000009,331,0,1450359702042,1450359702050,866,305,0,0,0,2,4,2,6,0003-00-0000-47.png,0001-00-0000-08.png
00000009,332,0,1450359705190,1450359705218,862,327,0,0,0,2,3,1,5,0003-00-0001-96.png,0002-00-0000-72.png
00000009,333,1,1450359710258,1450359710306,866,328,0,0,0,2,0,2,2,0003-00-0000-75.png,0005-00-0000-27.png
00000009,334,1,1450359711242,1450359712047,477,248,0,0,0,0,3,3,3,0005-00-0001-54.png,0002-00-0000-75.png
00000009,335,1,1450359712889,1450359713726,913,318,0,0,0,4,1,3,5,0001-00-0001-42.png,0004-00-0001-65.png
00000009,336,1,1450359714691,1450359715400,466,266,0,0,0,1,4,3,5,0004-00-0001-55.png,0001-00-0001-36.png
00000009,337,1,1450359716369,1450359716998,922,334,0,0,0,3,0,3,3,0002-00-0000-18.png,0005-00-0000-71.png
00000009,338,1,1450359717920,1450359718915,1016,253,0,0,0,3,2,1,5,0002-00-0001-38.png,0003-00-0001-88.png
00000009,339,1,1450359719777,1450359720483,502,267,0,0,0,0,1,1,1,0005-00-0000-87.png,0004-00-0000-29.png
00000009,340,1,1450359721606,1450359722459,507,262,0,0,0,1,3,2,4,0004-00-0001-12.png,0002-00-0000-92.png
00000009,341,1,1450359723334,1450359724256,424,342,0,0,0,3,4,1,7,0002-00-0000-97.png,0001-00-0001-32.png
00000009,342,1,1450359725274,1450359725901,919,343,0,0,0,2,0,2,2,0003-00-0001-75.png,0005-00-0000-28.png
00000009,343,1,1450359726873,1450359727628,497,262,0,0,0,1,4,3,5,0004-00-0000-43.png,0001-00-0001-92.png
00000009,344,1,1450359728573,1450359729454,948,325,0,0,0,4,2,2,6,0001-00-0001-62.png,0003-00-0001-82.png
00000009,345,0,1450359730320,1450359730966,416,380,0,0,0,1,0,1,1,0004-00-0000-10.png,0005-00-0001-13.png
00000009,346,1,1450359734438,1450359735026,1045,274,0,0,0,4,1,3,5,0001-00-0001-25.png,0004-00-0000-81.png
00000009,347,0,1450359735885,1450359736561,913,306,0,0,0,0,1,1,1,0005-00-0000-21.png,0004-00-0000-10.png
00000009,348,1,1450359739401,1450359740066,939,358,0,0,0,4,3,1,7,0001-00-0001-59.png,0002-00-0000-47.png
00000009,349,0,1450359740952,1450359741078,862,436,0,0,0,1,2,1,3,0004-00-0001-09.png,0003-00-0000-83.png
00000009,350,1,1450359744373,1450359744920,1016,306,0,0,0,3,1,2,4,0002-00-0000-02.png,0004-00-0000-20.png
00000009,351,1,1450359745792,1450359746656,478,253,0,0,0,1,3,2,4,0004-00-0000-18.png,0002-00-0000-88.png
00000009,352,1,1450359747510,1450359748223,1014,257,0,0,0,4,0,4,4,0001-00-0001-77.png,0005-00-0001-29.png
00000009,353,1,1450359749081,1450359749976,990,296,0,0,0,3,0,3,3,0002-00-0000-04.png,0005-00-0000-01.png
00000009,354,1,1450359751152,1450359752028,939,307,0,0,0,3,2,1,5,0002-00-0000-65.png,0003-00-0000-84.png
00000009,355,1,1450359752988,1450359753780,488,247,0,0,0,0,2,2,2,0005-00-0000-11.png,0003-00-0000-02.png
00000009,356,1,1450359754726,1450359755388,400,364,0,0,0,0,3,3,3,0005-00-0000-97.png,0002-00-0001-49.png
00000009,357,1,1450359756386,1450359757029,997,272,0,0,0,2,1,1,3,0003-00-0001-69.png,0004-00-0001-77.png
00000009,358,1,1450359758054,1450359758974,477,290,0,0,0,0,4,4,4,0005-00-0001-35.png,0001-00-0000-29.png
00000009,359,1,1450359759954,1450359760705,479,252,0,0,0,2,4,2,6,0003-00-0000-47.png,0001-00-0000-39.png
00000009,360,0,1450359761643,1450359762954,917,399,0,0,0,2,3,1,5,0003-00-0000-73.png,0002-00-0001-12.png
00000009,361,0,1450359766195,1450359766768,1041,263,0,0,0,2,3,1,5,0003-00-0001-77.png,0002-00-0001-92.png
00000009,362,1,1450359769991,1450359770592,1041,267,0,0,0,4,2,2,6,0001-00-0000-85.png,0003-00-0001-26.png
00000009,363,1,1450359771471,1450359772093,469,245,0,0,0,1,2,1,3,0004-00-0000-94.png,0003-00-0000-77.png
00000009,364,0,1450359773004,1450359773079,509,483,0,0,0,2,1,1,3,0003-00-0000-73.png,0004-00-0000-99.png
00000009,365,1,1450359775948,1450359775972,957,330,0,0,0,3,1,2,4,0002-00-0001-37.png,0004-00-0000-12.png
00000009,366,1,1450359776947,1450359777577,485,241,0,0,0,0,4,4,4,0005-00-0000-24.png,0001-00-0001-34.png
00000009,367,1,1450359778494,1450359779610,924,306,0,0,0,2,0,2,2,0003-00-0000-96.png,0005-00-0001-53.png
00000009,368,0,1450359780461,1450359781492,479,239,0,0,0,4,3,1,7,0001-00-0001-34.png,0002-00-0000-08.png
00000009,369,0,1450359784904,1450359785500,1028,279,0,0,0,1,3,2,4,0004-00-0001-75.png,0002-00-0000-98.png
00000009,370,1,1450359788440,1450359788492,976,350,0,0,0,4,0,4,4,0001-00-0000-09.png,0005-00-0000-02.png
00000009,371,1,1450359789387,1450359790092,1120,331,0,0,0,4,1,3,5,0001-00-0001-85.png,0004-00-0001-45.png
00000009,372,1,1450359790965,1450359791917,482,246,0,0,0,2,4,2,6,0003-00-0000-96.png,0001-00-0000-90.png
00000009,373,0,1450359792805,1450359794001,902,332,0,0,0,3,4,1,7,0002-00-0000-69.png,0001-00-0000-00.png
00000009,374,0,1450359797176,1450359797673,1010,258,0,0,0,0,1,1,1,0005-00-0000-46.png,0004-00-0000-07.png
00000009,375,1,1450359800725,1450359800961,887,328,0,0,0,1,0,1,1,0004-00-0001-44.png,0005-00-0000-94.png
00000009,376,1,1450359801888,1450359802850,922,310,0,0,0,3,2,1,5,0002-00-0001-54.png,0003-00-0001-16.png
00000009,377,0,1450359803715,1450359804721,931,284,0,0,0,1,4,3,5,0004-00-0001-11.png,0001-00-0000-95.png
00000009,378,1,1450359807810,1450359808433,487,265,0,0,0,0,2,2,2,0005-00-0001-90.png,0003-00-0001-49.png
00000009,379,1,1450359809268,1450359810061,478,241,0,0,0,0,3,3,3,0005-00-0001-12.png,0002-00-0000-04.png
00000009,380,1,1450359810948,1450359811803,887,344,0,0,0,3,0,3,3,0002-00-0000-72.png,0005-00-0000-85.png
00000009,381,0,1450359812811,1450359813431,465,306,0,0,0,1,0,1,1,0004-00-0001-75.png,0005-00-0000-36.png
00000009,382,1,1450359816565,1450359816629,882,304,0,0,0,3,1,2,4,0002-00-0000-11.png,0004-00-0000-18.png
00000009,383,1,1450359817486,1450359818105,870,327,0,0,0,4,1,3,5,0001-00-0001-69.png,0004-00-0000-72.png
00000009,384,1,1450359819655,1450359820479,912,333,0,0,0,3,0,3,3,0002-00-0000-44.png,0005-00-0000-68.png
00000009,385,1,1450359821413,1450359821461,864,422,0,0,0,2,1,1,3,0003-00-0000-12.png,0004-00-0000-42.png
00000009,386,1,1450359822499,1450359824137,964,354,0,0,0,4,3,1,7,0001-00-0000-63.png,0002-00-0000-18.png
00000009,387,0,1450359825227,1450359826103,920,338,0,0,0,3,4,1,7,0002-00-0000-00.png,0001-00-0001-37.png
00000009,388,1,1450359829276,1450359829809,430,354,0,0,0,0,4,4,4,0005-00-0001-47.png,0001-00-0001-78.png
00000009,389,1,1450359830633,1450359831372,418,338,0,0,0,0,2,2,2,0005-00-0000-67.png,0003-00-0001-83.png
00000009,390,1,1450359832220,1450359833045,922,306,0,0,0,3,2,1,5,0002-00-0000-84.png,0003-00-0001-12.png
00000009,391,0,1450359833974,1450359834804,410,361,0,0,0,4,2,2,6,0001-00-0000-90.png,0003-00-0001-77.png
00000009,392,0,1450359837990,1450359838026,883,294,0,0,0,1,3,2,4,0004-00-0000-77.png,0002-00-0000-49.png
00000009,393,1,1450359841170,1450359841713,501,264,0,0,0,0,3,3,3,0005-00-0001-49.png,0002-00-0001-66.png
00000009,394,1,1450359842535,1450359843510,493,249,0,0,0,2,4,2,6,0003-00-0000-69.png,0001-00-0000-07.png
00000009,395,1,1450359844439,1450359845206,480,280,0,0,0,1,2,1,3,0004-00-0001-90.png,0003-00-0000-22.png
00000009,396,1,1450359846199,1450359847077,483,265,0,0,0,0,1,1,1,0005-00-0001-87.png,0004-00-0001-38.png
00000009,397,1,1450359848063,1450359848873,905,313,0,0,0,2,0,2,2,0003-00-0000-45.png,0005-00-0001-57.png
00000009,398,1,1450359849785,1450359850758,500,267,0,0,0,1,4,3,5,0004-00-0001-08.png,0001-00-0001-47.png
00000009,399,1,1450359851772,1450359853037,507,262,0,0,0,2,3,1,5,0003-00-0001-39.png,0002-00-0001-10.png
00000009,400,1,1450359853959,1450359854834,1004,253,0,0,0,4,0,4,4,0001-00-0000-48.png,0005-00-0000-46.png
00000009,401,1,1450359855808,1450359855864,858,464,0,0,0,4,0,4,4,0001-00-0001-90.png,0005-00-0001-83.png
00000009,402,1,1450359856810,1450359857627,489,285,0,0,0,0,3,3,3,0005-00-0001-91.png,0002-00-0001-63.png
00000009,403,1,1450359858512,1450359859346,913,306,0,0,0,3,0,3,3,0002-00-0001-01.png,0005-00-0001-99.png
00000009,404,1,1450359860208,1450359861269,481,241,0,0,0,1,4,3,5,0004-00-0000-26.png,0001-00-0000-06.png
00000009,405,1,1450359862724,1450359863427,395,345,0,0,0,1,2,1,3,0004-00-0000-37.png,0003-00-0001-42.png
00000009,406,1,1450359864602,1450359865712,909,306,0,0,0,4,2,2,6,0001-00-0000-38.png,0003-00-0000-89.png
00000009,407,1,1450359866692,1450359867594,483,252,0,0,0,0,4,4,4,0005-00-0000-96.png,0001-00-0001-28.png
00000009,408,1,1450359868516,1450359869315,472,261,0,0,0,1,3,2,4,0004-00-0001-01.png,0002-00-0000-76.png
00000009,409,1,1450359870295,1450359871318,939,343,0,0,0,3,2,1,5,0002-00-0000-26.png,0003-00-0000-74.png
00000009,410,1,1450359872322,1450359873032,483,249,0,0,0,2,4,2,6,0003-00-0000-47.png,0001-00-0001-38.png
00000009,411,1,1450359873982,1450359875181,467,393,0,0,0,2,3,1,5,0003-00-0001-99.png,0002-00-0000-99.png
00000009,412,0,1450359876078,1450359877106,939,436,0,0,0,3,4,1,7,0002-00-0001-42.png,0001-00-0001-39.png
00000009,413,1,1450359880290,1450359880432,879,410,0,0,0,4,3,1,7,0001-00-0000-15.png,0002-00-0000-15.png
00000009,414,1,1450359881374,1450359882137,939,358,0,0,0,3,1,2,4,0002-00-0000-04.png,0004-00-0001-23.png
00000009,415,1,1450359883183,1450359883961,923,306,0,0,0,4,1,3,5,0001-00-0001-49.png,0004-00-0001-44.png
00000009,416,1,1450359884922,1450359884982,865,456,0,0,0,1,0,1,1,0004-00-0000-98.png,0005-00-0000-10.png
00000009,417,0,1450359886135,1450359887334,1016,279,0,0,0,0,2,2,2,0005-00-0000-69.png,0003-00-0001-78.png
00000009,418,1,1450359890467,1450359890993,939,374,0,0,0,2,1,1,3,0003-00-0000-64.png,0004-00-0000-53.png
00000009,419,1,1450359891868,1450359892815,923,311,0,0,0,2,0,2,2,0003-00-0001-21.png,0005-00-0001-55.png
00000009,420,1,1450359894968,1450359895527,483,248,0,0,0,0,1,1,1,0005-00-0000-83.png,0004-00-0001-54.png
00000009,421,1,1450359896426,1450359897178,492,251,0,0,0,0,3,3,3,0005-00-0001-07.png,0002-00-0000-37.png
00000009,422,0,1450359898134,1450359898903,876,348,0,0,0,1,4,3,5,0004-00-0000-71.png,0001-00-0000-21.png
00000009,423,0,1450359913885,1450359914796,898,410,0,0,0,3,4,1,7,0002-00-0000-30.png,0001-00-0000-05.png
00000009,424,0,1450359917644,1450359918188,939,410,0,0,0,2,4,2,6,0003-00-0000-46.png,0001-00-0001-52.png
00000009,425,1,1450359921233,1450359921895,1016,284,0,0,0,4,1,3,5,0001-00-0001-25.png,0004-00-0001-77.png
00000009,426,0,1450359922821,1450359924058,907,342,0,0,0,1,2,1,3,0004-00-0000-16.png,0003-00-0001-00.png
00000009,427,1,1450359927091,1450359927111,881,408,0,0,0,3,1,2,4,0002-00-0000-55.png,0004-00-0001-62.png
00000009,428,1,1450359928029,1450359928951,998,253,0,0,0,4,0,4,4,0001-00-0000-93.png,0005-00-0001-46.png
00000009,429,1,1450359929939,1450359931030,498,258,0,0,0,1,3,2,4,0004-00-0001-73.png,0002-00-0001-66.png
00000009,430,1,1450359931953,1450359932767,471,236,0,0,0,0,2,2,2,0005-00-0000-25.png,0003-00-0000-18.png
00000009,431,1,1450359933773,1450359934480,937,408,0,0,0,2,1,1,3,0003-00-0000-88.png,0004-00-0001-02.png
00000009,432,1,1450359935415,1450359936234,995,260,0,0,0,2,0,2,2,0003-00-0000-62.png,0005-00-0001-41.png
00000009,433,1,1450359937221,1450359938304,503,277,0,0,0,2,3,1,5,0003-00-0001-25.png,0002-00-0000-90.png
00000009,434,1,1450359939196,1450359940222,922,322,0,0,0,3,0,3,3,0002-00-0000-07.png,0005-00-0001-62.png
00000009,435,1,1450359941221,1450359941932,509,262,0,0,0,0,4,4,4,0005-00-0001-28.png,0001-00-0001-73.png
00000009,436,1,1450359949862,1450359950489,487,300,0,0,0,0,1,1,1,0005-00-0001-84.png,0004-00-0000-32.png
00000009,437,1,1450359951333,1450359952268,945,430,0,0,0,4,2,2,6,0001-00-0001-59.png,0003-00-0001-01.png
00000009,438,1,1450359953226,1450359954076,1004,279,0,0,0,1,0,1,1,0004-00-0000-22.png,0005-00-0001-55.png
00000009,439,0,1450359955013,1450359956217,506,301,0,0,0,4,3,1,7,0001-00-0000-64.png,0002-00-0000-23.png
00000009,440,1,1450359966143,1450359966713,904,359,0,0,0,3,2,1,5,0002-00-0000-82.png,0003-00-0000-60.png
00000009,441,1,1450359967673,1450359968628,1118,332,0,0,0,1,0,1,1,0004-00-0000-61.png,0005-00-0001-02.png
00000009,442,0,1450359969554,1450359970538,468,290,0,0,0,2,1,1,3,0003-00-0000-19.png,0004-00-0001-43.png
00000009,443,1,1450359974376,1450359975065,462,274,0,0,0,1,3,2,4,0004-00-0000-17.png,0002-00-0000-37.png
00000009,444,0,1450359975971,1450359976942,913,306,0,0,0,2,4,2,6,0003-00-0000-98.png,0001-00-0001-38.png
00000009,445,1,1450359980088,1450359980130,861,331,0,0,0,4,0,4,4,0001-00-0001-08.png,0005-00-0000-46.png
00000009,446,1,1450359981121,1450359981977,490,238,0,0,0,0,2,2,2,0005-00-0001-96.png,0003-00-0001-83.png
00000009,447,1,1450359982930,1450359983813,464,238,0,0,0,0,4,4,4,0005-00-0000-56.png,0001-00-0000-87.png
00000009,448,1,1450359984776,1450359985555,400,381,0,0,0,1,4,3,5,0004-00-0001-33.png,0001-00-0001-52.png
00000009,449,1,1450359986606,1450359987397,905,311,0,0,0,2,0,2,2,0003-00-0001-53.png,0005-00-0000-88.png
00000009,450,1,1450359988250,1450359989298,928,384,0,0,0,3,2,1,5,0002-00-0001-71.png,0003-00-0001-62.png
00000009,451,1,1450359990414,1450359991482,1021,312,0,0,0,4,3,1,7,0001-00-0001-96.png,0002-00-0000-10.png
00000009,452,1,1450359992468,1450359993344,913,320,0,0,0,3,0,3,3,0002-00-0001-02.png,0005-00-0001-26.png
00000009,453,1,1450359994285,1450359994384,866,408,0,0,0,4,1,3,5,0001-00-0000-13.png,0004-00-0001-22.png
00000009,454,0,1450359995519,1450359996423,888,317,0,0,0,2,3,1,5,0003-00-0000-21.png,0002-00-0000-47.png
00000009,455,1,1450360000190,1450360000760,949,359,0,0,0,4,2,2,6,0001-00-0001-52.png,0003-00-0000-51.png
00000009,456,1,1450360001632,1450360002473,477,302,0,0,0,1,2,1,3,0004-00-0000-22.png,0003-00-0000-27.png
00000009,457,1,1450360003997,1450360004688,497,316,0,0,0,0,3,3,3,0005-00-0000-68.png,0002-00-0000-29.png
00000009,458,1,1450360005524,1450360006351,939,342,0,0,0,3,1,2,4,0002-00-0001-65.png,0004-00-0001-69.png
00000009,459,0,1450360007305,1450360008444,908,343,0,0,0,3,4,1,7,0002-00-0000-90.png,0001-00-0001-43.png
00000009,460,1,1450360011669,1450360012248,473,444,0,0,0,0,1,1,1,0005-00-0001-23.png,0004-00-0001-55.png
00000009,461,1,1450360013206,1450360014009,486,271,0,0,0,1,2,1,3,0004-00-0001-44.png,0003-00-0001-42.png
00000009,462,1,1450360015057,1450360015061,499,521,0,0,0,1,3,2,4,0004-00-0001-24.png,0002-00-0001-87.png
00000009,463,1,1450360016255,1450360017192,929,404,0,0,0,4,0,4,4,0001-00-0000-19.png,0005-00-0000-47.png
00000009,464,1,1450360018086,1450360019359,935,342,0,0,0,3,2,1,5,0002-00-0000-92.png,0003-00-0000-94.png
00000009,465,1,1450360020505,1450360021272,484,276,0,0,0,1,4,3,5,0004-00-0001-77.png,0001-00-0000-76.png
00000009,466,0,1450360022159,1450360022179,515,496,0,0,0,3,1,2,4,0002-00-0001-25.png,0004-00-0000-33.png
00000009,467,1,1450360025322,1450360025962,428,326,0,0,0,0,3,3,3,0005-00-0001-28.png,0002-00-0001-61.png
00000009,468,1,1450360026949,1450360027006,513,535,0,0,0,0,4,4,4,0005-00-0000-37.png,0001-00-0001-39.png
00000009,469,0,1450360027928,1450360027988,515,529,0,0,0,3,0,3,3,0002-00-0001-92.png,0005-00-0001-93.png
00000009,470,0,1450360031213,1450360031249,919,303,0,0,0,2,4,2,6,0003-00-0000-35.png,0001-00-0001-62.png
00000009,471,0,1450360034412,1450360034979,1020,249,0,0,0,0,1,1,1,0005-00-0001-29.png,0004-00-0000-50.png
00000009,472,1,1450360038122,1450360038648,945,325,0,0,0,4,2,2,6,0001-00-0000-98.png,0003-00-0000-19.png
00000009,473,1,1450360039555,1450360040594,1016,270,0,0,0,2,1,1,3,0003-00-0000-44.png,0004-00-0001-09.png
00000009,474,1,1450360041689,1450360042520,407,379,0,0,0,2,3,1,5,0003-00-0001-92.png,0002-00-0001-16.png
00000009,475,1,1450360043545,1450360043565,521,473,0,0,0,0,2,2,2,0005-00-0001-30.png,0003-00-0000-89.png
00000009,476,0,1450360044639,1450360045605,489,275,0,0,0,4,3,1,7,0001-00-0000-95.png,0002-00-0001-92.png
00000009,477,1,1450360048813,1450360049357,1020,262,0,0,0,1,0,1,1,0004-00-0000-58.png,0005-00-0001-10.png
00000009,478,1,1450360050290,1450360051045,917,321,0,0,0,2,0,2,2,0003-00-0001-58.png,0005-00-0000-07.png
00000009,479,0,1450360052014,1450360053064,905,313,0,0,0,3,4,1,7,0002-00-0001-89.png,0001-00-0000-05.png
00000009,480,1,1450360056215,1450360056730,1041,252,0,0,0,4,1,3,5,0001-00-0000-66.png,0004-00-0001-13.png
00000009,481,1,1450360057669,1450360058449,931,417,0,0,0,2,0,2,2,0003-00-0001-17.png,0005-00-0000-71.png
00000009,482,1,1450360059497,1450360060350,928,419,0,0,0,4,0,4,4,0001-00-0000-92.png,0005-00-0001-58.png
00000009,483,0,1450360061345,1450360061361,858,406,0,0,0,1,4,3,5,0004-00-0000-54.png,0001-00-0000-88.png
00000009,484,1,1450360064525,1450360065348,965,358,0,0,0,3,1,2,4,0002-00-0000-49.png,0004-00-0001-46.png
00000009,485,1,1450360066274,1450360067003,1001,279,0,0,0,4,1,3,5,0001-00-0001-05.png,0004-00-0000-84.png
00000009,486,1,1450360068053,1450360068914,439,346,0,0,0,2,4,2,6,0003-00-0000-35.png,0001-00-0000-58.png
00000009,487,1,1450360069858,1450360070802,493,259,0,0,0,0,2,2,2,0005-00-0000-36.png,0003-00-0001-22.png
00000009,488,1,1450360071828,1450360072840,939,318,0,0,0,4,2,2,6,0001-00-0000-00.png,0003-00-0000-70.png
00000009,489,1,1450360073865,1450360074710,495,245,0,0,0,0,1,1,1,0005-00-0001-38.png,0004-00-0000-35.png
00000009,490,0,1450360075651,1450360076988,482,372,0,0,0,4,3,1,7,0001-00-0001-62.png,0002-00-0000-23.png
00000009,491,1,1450360079894,1450360080531,515,256,0,0,0,1,2,1,3,0004-00-0000-03.png,0003-00-0000-80.png
00000009,492,1,1450360081448,1450360082412,939,332,0,0,0,2,1,1,3,0003-00-0000-60.png,0004-00-0001-87.png
00000009,493,1,1450360083384,1450360084408,897,323,0,0,0,3,0,3,3,0002-00-0001-30.png,0005-00-0000-48.png
00000009,494,0,1450360085442,1450360086175,509,254,0,0,0,1,0,1,1,0004-00-0001-60.png,0005-00-0000-69.png
00000009,495,0,1450360089637,1450360089898,942,300,0,0,0,3,4,1,7,0002-00-0000-72.png,0001-00-0000-36.png
00000009,496,1,1450360115448,1450360116209,395,268,0,0,0,2,3,1,5,0003-00-0000-89.png,0002-00-0000-02.png
00000009,497,1,1450360117250,1450360118144,403,376,0,0,0,0,4,4,4,0005-00-0001-40.png,0001-00-0001-76.png
00000009,498,1,1450360119146,1450360120027,913,293,0,0,0,3,2,1,5,0002-00-0000-21.png,0003-00-0001-17.png
00000009,499,1,1450360121006,1450360121784,462,278,0,0,0,0,3,3,3,0005-00-0000-74.png,0002-00-0001-65.png
00000009,500,1,1450360122706,1450360123730,490,251,0,0,0,1,3,2,4,0004-00-0000-04.png,0002-00-0000-34.png
00000009,501,1,1450360124672,1450360125594,464,253,0,0,0,0,2,2,2,0005-00-0000-11.png,0003-00-0001-63.png
00000009,502,1,1450360126561,1450360127587,462,280,0,0,0,2,4,2,6,0003-00-0001-20.png,0001-00-0000-27.png
00000009,503,1,1450360128652,1450360129680,908,289,0,0,0,2,1,1,3,0003-00-0001-14.png,0004-00-0001-04.png
00000009,504,1,1450360130596,1450360131602,917,305,0,0,0,4,0,4,4,0001-00-0001-98.png,0005-00-0001-96.png
00000009,505,1,1450360132562,1450360133488,484,259,0,0,0,0,3,3,3,0005-00-0000-73.png,0002-00-0001-34.png
00000009,506,0,1450360134514,1450360134547,518,543,0,0,0,4,1,3,5,0001-00-0001-66.png,0004-00-0001-84.png
00000009,507,1,1450360137753,1450360137792,960,272,0,0,0,4,3,1,7,0001-00-0000-10.png,0002-00-0001-95.png
00000009,508,0,1450360138811,1450360139831,488,269,0,0,0,3,1,2,4,0002-00-0001-15.png,0004-00-0000-63.png
00000009,509,0,1450360143006,1450360143029,907,331,0,0,0,1,2,1,3,0004-00-0000-94.png,0003-00-0001-41.png
00000009,510,1,1450360145950,1450360146685,485,272,0,0,0,1,4,3,5,0004-00-0001-00.png,0001-00-0000-83.png
00000009,511,1,1450360147649,1450360148596,916,351,0,0,0,1,0,1,1,0004-00-0001-37.png,0005-00-0001-36.png
00000009,512,1,1450360149623,1450360150495,504,266,0,0,0,1,3,2,4,0004-00-0001-90.png,0002-00-0000-88.png
00000009,513,1,1450360151464,1450360152542,426,352,0,0,0,2,3,1,5,0003-00-0001-16.png,0002-00-0000-49.png
00000009,514,1,1450360153566,1450360154900,917,350,0,0,0,3,2,1,5,0002-00-0001-97.png,0003-00-0000-10.png
00000009,515,0,1450360155895,1450360157197,929,358,0,0,0,3,4,1,7,0002-00-0000-14.png,0001-00-0001-71.png
00000009,516,0,1450360160405,1450360160413,872,356,0,0,0,0,1,1,1,0005-00-0001-24.png,0004-00-0001-41.png
00000009,517,1,1450360163549,1450360163613,913,306,0,0,0,4,2,2,6,0001-00-0001-98.png,0003-00-0000-97.png
00000009,518,1,1450360164533,1450360165576,450,280,0,0,0,0,4,4,4,0005-00-0000-10.png,0001-00-0001-28.png
00000009,519,1,1450360166537,1450360167380,917,324,0,0,0,2,0,2,2,0003-00-0000-97.png,0005-00-0001-63.png
00000009,520,1,1450360168325,1450360169446,927,332,0,0,0,3,0,3,3,0002-00-0001-85.png,0005-00-0000-49.png
00000009,521,0,1450360170357,1450360170479,865,501,0,0,0,1,4,3,5,0004-00-0000-10.png,0001-00-0000-16.png
00000009,522,0,1450360173624,1450360173692,900,324,0,0,0,0,2,2,2,0005-00-0000-64.png,0003-00-0000-99.png
00000009,523,0,1450360179882,1450360180491,924,312,0,0,0,1,3,2,4,0004-00-0000-16.png,0002-00-0001-16.png
00000009,524,1,1450360183723,1450360183762,942,283,0,0,0,3,2,1,5,0002-00-0000-15.png,0003-00-0000-88.png
00000009,525,1,1450360184756,1450360185692,928,326,0,0,0,2,1,1,3,0003-00-0001-93.png,0004-00-0000-93.png
00000009,526,1,1450360186683,1450360188098,517,250,0,0,0,2,4,2,6,0003-00-0001-77.png,0001-00-0000-13.png
00000009,527,0,1450360189059,1450360189071,523,477,0,0,0,3,1,2,4,0002-00-0001-43.png,0004-00-0001-95.png
00000009,528,1,1450360192077,1450360192372,1019,272,0,0,0,4,1,3,5,0001-00-0000-17.png,0004-00-0000-23.png
00000009,529,1,1450360193249,1450360194173,498,242,0,0,0,1,2,1,3,0004-00-0001-93.png,0003-00-0000-23.png
00000009,530,1,1450360195092,1450360196682,947,399,0,0,0,4,2,2,6,0001-00-0000-48.png,0003-00-0000-11.png
00000009,531,1,1450360197644,1450360198609,900,316,0,0,0,2,0,2,2,0003-00-0001-86.png,0005-00-0000-24.png
00000009,532,1,1450360199541,1450360199660,863,465,0,0,0,3,0,3,3,0002-00-0000-14.png,0005-00-0000-45.png
00000009,533,0,1450360200851,1450360202085,496,261,0,0,0,4,3,1,7,0001-00-0001-76.png,0002-00-0000-16.png
00000009,534,0,1450360205167,1450360205183,882,357,0,0,0,2,3,1,5,0003-00-0000-78.png,0002-00-0001-68.png
00000009,535,1,1450360208097,1450360208790,504,278,0,0,0,3,4,1,7,0002-00-0001-58.png,0001-00-0001-21.png
00000009,536,1,1450360209799,1450360210642,410,350,0,0,0,0,4,4,4,0005-00-0001-10.png,0001-00-0000-51.png
00000009,537,1,1450360211595,1450360212495,486,254,0,0,0,0,3,3,3,0005-00-0000-10.png,0002-00-0000-40.png
00000009,538,1,1450360213386,1450360213453,521,540,0,0,0,0,1,1,1,0005-00-0001-77.png,0004-00-0000-91.png
00000009,539,1,1450360214565,1450360215430,913,346,0,0,0,4,0,4,4,0001-00-0001-34.png,0005-00-0000-17.png
00000009,540,1,1450360216343,1450360217177,1118,395,0,0,0,1,0,1,1,0004-00-0000-55.png,0005-00-0001-30.png
00000009,541,1,1450360218212,1450360218980,449,430,0,0,0,0,2,2,2,0005-00-0000-91.png,0003-00-0001-76.png
00000009,542,1,1450360219992,1450360220783,507,260,0,0,0,1,4,3,5,0004-00-0000-89.png,0001-00-0001-40.png
00000009,543,0,1450360221801,1450360222744,927,349,0,0,0,1,3,2,4,0004-00-0000-36.png,0002-00-0001-70.png
00000009,544,1,1450360226424,1450360227053,939,344,0,0,0,1,0,1,1,0004-00-0001-26.png,0005-00-0000-66.png
00000009,545,1,1450360227904,1450360228816,1016,245,0,0,0,2,1,1,3,0003-00-0001-01.png,0004-00-0001-26.png
00000009,546,1,1450360229772,1450360230651,947,301,0,0,0,3,1,2,4,0002-00-0000-65.png,0004-00-0001-60.png
00000009,547,1,1450360232201,1450360233163,490,384,0,0,0,0,1,1,1,0005-00-0000-69.png,0004-00-0001-27.png
00000009,548,1,1450360234064,1450360234816,495,265,0,0,0,1,2,1,3,0004-00-0001-45.png,0003-00-0001-22.png
00000009,549,1,1450360235821,1450360236807,944,296,0,0,0,4,2,2,6,0001-00-0001-01.png,0003-00-0000-15.png
00000009,550,1,1450360237721,1450360239008,470,399,0,0,0,2,3,1,5,0003-00-0000-22.png,0002-00-0000-39.png
00000009,551,1,1450360239982,1450360240737,932,286,0,0,0,3,2,1,5,0002-00-0001-31.png,0003-00-0000-92.png
00000009,552,0,1450360241726,1450360242577,904,327,0,0,0,2,4,2,6,0003-00-0000-94.png,0001-00-0001-19.png
00000009,553,1,1450360278937,1450360279508,475,267,0,0,0,0,4,4,4,0005-00-0000-32.png,0001-00-0000-05.png
00000009,554,1,1450360280387,1450360281130,902,335,0,0,0,3,0,3,3,0002-00-0001-06.png,0005-00-0001-33.png
00000009,555,1,1450360281986,1450360282928,878,337,0,0,0,4,3,1,7,0001-00-0001-79.png,0002-00-0000-63.png
00000009,556,1,1450360283816,1450360285155,411,297,0,0,0,0,3,3,3,0005-00-0000-93.png,0002-00-0001-08.png
00000009,557,0,1450360285990,1450360286054,486,534,0,0,0,2,0,2,2,0003-00-0001-08.png,0005-00-0001-42.png
00000009,558,1,1450360289134,1450360289174,893,317,0,0,0,4,1,3,5,0001-00-0000-30.png,0004-00-0001-79.png
00000009,559,0,1450360290067,1450360291141,991,258,0,0,0,3,4,1,7,0002-00-0000-43.png,0001-00-0000-22.png
00000009,560,1,1450360295843,1450360296348,919,365,0,0,0,4,0,4,4,0001-00-0001-92.png,0005-00-0001-39.png
00000009,561,1,1450360297742,1450360298409,913,315,0,0,0,1,0,1,1,0004-00-0000-94.png,0005-00-0001-72.png
00000009,562,1,1450360299278,1450360299994,1001,245,0,0,0,4,0,4,4,0001-00-0000-70.png,0005-00-0000-88.png
00000009,563,1,1450360300846,1450360301685,480,235,0,0,0,0,3,3,3,0005-00-0001-22.png,0002-00-0001-34.png
00000009,564,0,1450360303226,1450360303914,967,251,0,0,0,1,2,1,3,0004-00-0001-74.png,0003-00-0000-31.png
00000009,565,0,1450360307126,1450360307875,473,288,0,0,0,4,2,2,6,0001-00-0000-60.png,0003-00-0000-75.png
00000009,566,0,1450360313094,1450360313394,959,255,0,0,0,1,3,2,4,0004-00-0001-25.png,0002-00-0000-60.png
00000009,567,1,1450360316503,1450360316582,912,325,0,0,0,3,1,2,4,0002-00-0000-68.png,0004-00-0000-79.png
00000009,568,1,1450360317502,1450360318411,482,252,0,0,0,0,2,2,2,0005-00-0000-89.png,0003-00-0001-33.png
00000009,569,1,1450360319355,1450360320347,480,246,0,0,0,2,3,1,5,0003-00-0000-81.png,0002-00-0000-13.png
00000009,570,0,1450360321289,1450360321309,516,480,0,0,0,3,2,1,5,0002-00-0001-55.png,0003-00-0001-38.png
00000009,571,1,1450360324572,1450360325180,965,328,0,0,0,2,1,1,3,0003-00-0001-66.png,0004-00-0001-27.png
00000009,572,1,1450360326031,1450360326867,477,257,0,0,0,1,4,3,5,0004-00-0000-78.png,0001-00-0001-75.png
00000009,573,1,1450360327730,1450360339416,888,368,0,0,0,4,3,1,7,0001-00-0000-58.png,0002-00-0000-57.png
00000009,574,0,1450360340254,1450360341264,937,325,0,0,0,2,4,2,6,0003-00-0000-36.png,0001-00-0000-80.png
00000009,575,1,1450360344597,1450360345078,1046,275,0,0,0,2,0,2,2,0003-00-0001-66.png,0005-00-0001-22.png
00000009,576,1,1450360346410,1450360347093,964,410,0,0,0,4,1,3,5,0001-00-0001-15.png,0004-00-0000-32.png
00000009,577,1,1450360347970,1450360348611,509,258,0,0,0,0,1,1,1,0005-00-0001-19.png,0004-00-0001-70.png
00000009,578,1,1450360350103,1450360350739,485,282,0,0,0,0,4,4,4,0005-00-0001-32.png,0001-00-0000-42.png
00000009,579,1,1450360352202,1450360352767,1007,279,0,0,0,3,0,3,3,0002-00-0001-42.png,0005-00-0000-32.png
00000009,580,0,1450360354118,1450360354714,997,260,0,0,0,3,4,1,7,0002-00-0001-33.png,0001-00-0000-77.png
00000009,581,1,1450360375626,1450360376409,910,332,0,0,0,4,0,4,4,0001-00-0001-60.png,0005-00-0000-86.png
00000009,582,1,1450360377235,1450360378029,475,264,0,0,0,0,3,3,3,0005-00-0000-85.png,0002-00-0001-23.png
00000009,583,0,1450360378966,1450360379968,460,260,0,0,0,3,0,3,3,0002-00-0000-57.png,0005-00-0000-18.png
00000009,584,0,1450360383110,1450360383149,893,336,0,0,0,2,4,2,6,0003-00-0001-56.png,0001-00-0000-54.png
00000009,585,0,1450360386928,1450360387747,513,270,0,0,0,3,2,1,5,0002-00-0000-56.png,0003-00-0001-87.png
00000009,586,0,1450360390909,1450360390968,871,324,0,0,0,1,3,2,4,0004-00-0001-74.png,0002-00-0001-58.png
00000009,587,1,1450360394222,1450360394238,884,334,0,0,0,4,1,3,5,0001-00-0000-02.png,0004-00-0000-19.png
00000009,588,1,1450360395184,1450360396153,913,315,0,0,0,4,2,2,6,0001-00-0000-57.png,0003-00-0001-37.png
00000009,589,1,1450360397073,1450360398028,477,272,0,0,0,3,4,1,7,0002-00-0000-10.png,0001-00-0000-04.png
00000009,590,1,1450360398968,1450360399719,888,316,0,0,0,2,0,2,2,0003-00-0000-09.png,0005-00-0000-62.png
00000009,591,0,1450360400611,1450360401558,934,387,0,0,0,0,1,1,1,0005-00-0001-50.png,0004-00-0000-85.png
00000009,592,1,1450360405263,1450360405824,940,339,0,0,0,2,1,1,3,0003-00-0001-71.png,0004-00-0001-87.png
00000009,593,1,1450360406710,1450360407673,477,277,0,0,0,0,4,4,4,0005-00-0001-25.png,0001-00-0001-72.png
00000009,594,0,1450360408641,1450360408664,499,488,0,0,0,3,1,2,4,0002-00-0000-75.png,0004-00-0001-96.png
00000009,595,1,1450360411641,1450360412285,491,276,0,0,0,2,3,1,5,0003-00-0000-91.png,0002-00-0001-97.png
00000009,596,0,1450360413231,1450360414808,939,394,0,0,0,1,4,3,5,0004-00-0001-51.png,0001-00-0000-90.png
00000009,597,1,1450360417771,1450360418456,913,310,0,0,0,4,3,1,7,0001-00-0001-64.png,0002-00-0000-29.png
00000009,598,1,1450360419402,1450360420076,464,272,0,0,0,1,2,1,3,0004-00-0001-98.png,0003-00-0001-01.png
00000009,599,1,1450360421043,1450360421095,518,469,0,0,0,0,2,2,2,0005-00-0000-99.png,0003-00-0001-38.png
00000009,600,1,1450360422285,1450360423124,898,324,0,0,0,1,0,1,1,0004-00-0000-46.png,0005-00-0000-98.png
00000009,601,1,1450360423980,1450360425744,516,228,0,0,0,0,2,2,2,0005-00-0000-69.png,0003-00-0000-07.png
00000009,602,1,1450360426710,1450360427729,929,332,0,0,0,4,2,2,6,0001-00-0001-35.png,0003-00-0001-61.png
00000009,603,1,1450360428609,1450360429836,464,251,0,0,0,0,1,1,1,0005-00-0001-30.png,0004-00-0000-75.png
00000009,604,1,1450360430788,1450360431602,913,410,0,0,0,3,0,3,3,0002-00-0000-11.png,0005-00-0000-98.png
00000009,605,1,1450360432595,1450360433802,1008,246,0,0,0,4,0,4,4,0001-00-0000-41.png,0005-00-0001-62.png
00000009,606,1,1450360434755,1450360435497,938,277,0,0,0,3,1,2,4,0002-00-0001-11.png,0004-00-0001-67.png
00000009,607,1,1450360436495,1450360437496,515,290,0,0,0,2,4,2,6,0003-00-0001-89.png,0001-00-0001-34.png
00000009,608,1,1450360438381,1450360439188,1002,279,0,0,0,4,1,3,5,0001-00-0001-10.png,0004-00-0001-21.png
00000009,609,1,1450360440210,1450360441476,939,394,0,0,0,4,3,1,7,0001-00-0000-37.png,0002-00-0001-25.png
00000009,610,0,1450360442398,1450360442429,872,360,0,0,0,2,3,1,5,0003-00-0001-30.png,0002-00-0001-53.png
00000009,611,0,1450360447167,1450360447270,890,348,0,0,0,1,4,3,5,0004-00-0001-31.png,0001-00-0000-15.png
00000009,612,1,1450360450435,1450360451003,436,407,0,0,0,0,4,4,4,0005-00-0000-79.png,0001-00-0001-29.png
00000009,613,1,1450360451875,1450360452869,891,354,0,0,0,1,0,1,1,0004-00-0001-57.png,0005-00-0001-33.png
00000009,614,0,1450360453792,1450360454815,979,279,0,0,0,1,3,2,4,0004-00-0001-01.png,0002-00-0000-25.png
00000009,615,1,1450360457646,1450360458396,478,292,0,0,0,1,2,1,3,0004-00-0000-95.png,0003-00-0001-35.png
00000009,616,1,1450360459289,1450360460237,500,265,0,0,0,0,3,3,3,0005-00-0000-52.png,0002-00-0000-10.png
00000009,617,0,1450360461177,1450360462374,964,264,0,0,0,3,4,1,7,0002-00-0001-37.png,0001-00-0000-85.png
00000009,618,1,1450360465421,1450360465437,881,284,0,0,0,2,1,1,3,0003-00-0000-63.png,0004-00-0000-07.png
00000009,619,0,1450360466406,1450360466430,511,558,0,0,0,2,0,2,2,0003-00-0001-66.png,0005-00-0001-76.png
00000009,620,1,1450360469285,1450360469910,940,402,0,0,0,3,2,1,5,0002-00-0001-66.png,0003-00-0001-76.png
00000009,621,1,1450360470807,1450360471703,909,322,0,0,0,3,2,1,5,0002-00-0001-37.png,0003-00-0001-33.png
00000009,622,1,1450360472684,1450360473744,1000,253,0,0,0,3,0,3,3,0002-00-0000-17.png,0005-00-0000-98.png
00000009,623,1,1450360474681,1450360475663,498,227,0,0,0,0,1,1,1,0005-00-0001-81.png,0004-00-0001-43.png
00000009,624,1,1450360476682,1450360477694,990,295,0,0,0,2,1,1,3,0003-00-0000-32.png,0004-00-0001-73.png
00000009,625,1,1450360478776,1450360479849,923,306,0,0,0,4,0,4,4,0001-00-0000-17.png,0005-00-0000-10.png
00000009,626,1,1450360480824,1450360481691,1000,253,0,0,0,2,0,2,2,0003-00-0001-78.png,0005-00-0001-58.png
00000009,627,1,1450360482663,1450360483603,496,263,0,0,0,1,2,1,3,0004-00-0001-26.png,0003-00-0000-56.png
00000009,628,1,1450360484539,1450360486170,516,327,0,0,0,3,4,1,7,0002-00-0001-54.png,0001-00-0000-38.png
00000009,629,0,1450360487112,1450360487966,888,332,0,0,0,2,4,2,6,0003-00-0000-78.png,0001-00-0000-02.png
00000009,630,0,1450360494510,1450360494566,902,356,0,0,0,2,3,1,5,0003-00-0001-56.png,0002-00-0001-59.png
00000009,631,1,1450360497455,1450360497492,862,393,0,0,0,4,1,3,5,0001-00-0001-38.png,0004-00-0001-08.png
00000009,632,1,1450360498465,1450360499174,492,250,0,0,0,0,4,4,4,0005-00-0000-93.png,0001-00-0000-17.png
00000009,633,1,1450360500162,1450360500915,489,268,0,0,0,0,3,3,3,0005-00-0000-83.png,0002-00-0000-92.png
00000009,634,1,1450360501788,1450360502540,482,287,0,0,0,0,2,2,2,0005-00-0001-30.png,0003-00-0001-14.png
00000009,635,0,1450360503478,1450360503551,484,524,0,0,0,3,1,2,4,0002-00-0000-77.png,0004-00-0001-05.png
00000009,636,0,1450360506698,1450360506714,861,339,0,0,0,1,4,3,5,0004-00-0001-30.png,0001-00-0001-68.png
00000009,637,1,1450360514542,1450360515083,939,347,0,0,0,4,3,1,7,0001-00-0001-44.png,0002-00-0001-00.png
00000009,638,1,1450360516001,1450360516784,881,339,0,0,0,1,0,1,1,0004-00-0001-14.png,0005-00-0001-30.png
00000009,639,1,1450360517709,1450360518801,482,272,0,0,0,1,3,2,4,0004-00-0001-37.png,0002-00-0000-75.png
00000009,640,1,1450360519701,1450360520674,890,309,0,0,0,4,2,2,6,0001-00-0001-34.png,0003-00-0000-37.png
00000009,641,1,1450360521659,1450360522479,497,275,0,0,0,1,2,1,3,0004-00-0000-67.png,0003-00-0001-55.png
00000009,642,1,1450360523447,1450360524271,869,338,0,0,0,3,1,2,4,0002-00-0001-83.png,0004-00-0001-24.png
00000009,643,1,1450360525316,1450360526691,493,263,0,0,0,3,4,1,7,0002-00-0001-05.png,0001-00-0001-64.png
00000009,644,1,1450360527641,1450360528889,489,266,0,0,0,1,4,3,5,0004-00-0001-09.png,0001-00-0001-68.png
00000009,645,1,1450360529821,1450360530689,460,282,0,0,0,2,4,2,6,0003-00-0001-69.png,0001-00-0000-12.png
00000009,646,1,1450360532561,1450360533333,508,291,0,0,0,0,2,2,2,0005-00-0000-09.png,0003-00-0001-21.png
00000009,647,0,1450360534248,1450360534322,504,534,0,0,0,2,1,1,3,0003-00-0001-59.png,0004-00-0001-98.png
00000009,648,1,1450360537320,1450360537344,880,343,0,0,0,1,0,1,1,0004-00-0001-52.png,0005-00-0000-07.png
00000009,649,1,1450360538330,1450360538993,893,366,0,0,0,2,0,2,2,0003-00-0000-65.png,0005-00-0000-85.png
00000009,650,1,1450360539903,1450360540795,941,449,0,0,0,3,2,1,5,0002-00-0000-78.png,0003-00-0000-66.png
00000009,651,1,1450360541781,1450360542862,435,372,0,0,0,1,3,2,4,0004-00-0000-14.png,0002-00-0001-90.png
00000009,652,1,1450360543816,1450360544691,505,258,0,0,0,0,1,1,1,0005-00-0000-36.png,0004-00-0000-11.png
00000009,653,1,1450360545565,1450360546566,932,393,0,0,0,4,0,4,4,0001-00-0000-46.png,0005-00-0000-01.png
00000009,654,0,1450360547431,1450360548608,517,268,0,0,0,4,3,1,7,0001-00-0001-95.png,0002-00-0000-87.png
00000009,655,1,1450360586519,1450360586531,859,383,0,0,0,4,1,3,5,0001-00-0001-51.png,0004-00-0000-60.png
00000009,656,1,1450360587657,1450360588661,1118,292,0,0,0,4,2,2,6,0001-00-0001-78.png,0003-00-0001-94.png
00000009,657,1,1450360589675,1450360590478,404,413,0,0,0,0,4,4,4,0005-00-0001-88.png,0001-00-0001-69.png
00000009,658,1,1450360591625,1450360592697,428,317,0,0,0,0,3,3,3,0005-00-0000-09.png,0002-00-0000-01.png
00000009,659,1,1450360593676,1450360594599,484,239,0,0,0,2,3,1,5,0003-00-0001-52.png,0002-00-0000-14.png
00000009,660,1,1450360595484,1450360596382,994,276,0,0,0,3,0,3,3,0002-00-0001-14.png,0005-00-0000-32.png
00000009,661,1,1450360597340,1450360598010,489,265,0,0,0,0,1,1,1,0005-00-0001-96.png,0004-00-0001-92.png
00000009,662,1,1450360598992,1450360599769,899,353,0,0,0,1,0,1,1,0004-00-0001-94.png,0005-00-0000-61.png
00000009,663,1,1450360600738,1450360601738,981,279,0,0,0,3,1,2,4,0002-00-0001-49.png,0004-00-0001-09.png
00000009,664,1,1450360602720,1450360603436,505,270,0,0,0,0,2,2,2,0005-00-0001-00.png,0003-00-0001-59.png
00000009,665,0,1450360604486,1450360604498,521,496,0,0,0,4,1,3,5,0001-00-0000-86.png,0004-00-0000-02.png
00000009,666,1,1450360608256,1450360608800,933,367,0,0,0,4,0,4,4,0001-00-0001-00.png,0005-00-0000-69.png
00000009,667,1,1450360609678,1450360610335,377,377,0,0,0,1,2,1,3,0004-00-0001-29.png,0003-00-0000-78.png
00000009,668,0,1450360611291,1450360612455,472,261,0,0,0,3,2,1,5,0002-00-0001-00.png,0003-00-0000-31.png
00000009,669,1,1450360615469,1450360616143,501,267,0,0,0,2,4,2,6,0003-00-0001-38.png,0001-00-0001-55.png
00000009,670,1,1450360617050,1450360617086,516,502,0,0,0,1,4,3,5,0004-00-0001-91.png,0001-00-0000-86.png
00000009,671,1,1450360618126,1450360618193,518,531,0,0,0,0,3,3,3,0005-00-0001-49.png,0002-00-0001-41.png
00000009,672,1,1450360619265,1450360620015,894,321,0,0,0,3,0,3,3,0002-00-0001-03.png,0005-00-0000-21.png
00000009,673,1,1450360620994,1450360621941,495,293,0,0,0,2,3,1,5,0003-00-0001-05.png,0002-00-0000-90.png
00000009,674,1,1450360622875,1450360623655,486,270,0,0,0,0,4,4,4,0005-00-0000-24.png,0001-00-0000-08.png
00000009,675,1,1450360625418,1450360626299,920,296,0,0,0,2,1,1,3,0003-00-0000-27.png,0004-00-0000-73.png
00000009,676,1,1450360627224,1450360628155,904,328,0,0,0,4,2,2,6,0001-00-0000-29.png,0003-00-0001-55.png
00000009,677,1,1450360629141,1450360630537,501,426,0,0,0,3,4,1,7,0002-00-0001-34.png,0001-00-0000-43.png
00000009,678,1,1450360631527,1450360632565,903,313,0,0,0,4,3,1,7,0001-00-0000-19.png,0002-00-0001-57.png
00000009,679,1,1450360633594,1450360634566,1010,261,0,0,0,2,0,2,2,0003-00-0001-53.png,0005-00-0001-01.png
00000009,680,1,1450360691712,1450360692497,452,292,0,0,0,1,3,2,4,0004-00-0000-89.png,0002-00-0000-99.png
00000009,681,0,1450360693468,1450360694428,940,356,0,0,0,2,4,2,6,0003-00-0000-67.png,0001-00-0000-33.png
00000009,682,1,1450360697556,1450360698096,487,287,0,0,0,0,2,2,2,0005-00-0001-78.png,0003-00-0001-86.png
00000009,683,1,1450360699035,1450360699992,964,279,0,0,0,4,0,4,4,0001-00-0000-25.png,0005-00-0001-59.png
00000009,684,1,1450360700924,1450360702215,455,267,0,0,0,0,4,4,4,0005-00-0001-84.png,0001-00-0001-31.png
00000009,685,1,1450360703195,1450360703227,523,484,0,0,0,1,3,2,4,0004-00-0000-38.png,0002-00-0001-44.png
00000009,686,1,1450360704883,1450360705434,990,271,0,0,0,3,0,3,3,0002-00-0001-39.png,0005-00-0001-88.png
00000009,687,1,1450360706492,1450360707459,895,324,0,0,0,4,3,1,7,0001-00-0001-92.png,0002-00-0000-13.png
00000009,688,0,1450360708460,1450360709221,888,327,0,0,0,0,1,1,1,0005-00-0000-40.png,0004-00-0000-93.png
00000009,689,1,1450360714533,1450360714577,861,359,0,0,0,3,2,1,5,0002-00-0001-57.png,0003-00-0000-93.png
00000009,690,0,1450360715562,1450360716528,907,345,0,0,0,1,2,1,3,0004-00-0001-06.png,0003-00-0001-58.png
00000009,691,0,1450360720202,1450360720291,967,254,0,0,0,0,3,3,3,0005-00-0001-90.png,0002-00-0000-25.png
00000009,692,0,1450360860359,1450360861174,472,315,0,0,0,2,0,2,2,0003-00-0001-08.png,0005-00-0001-62.png
00000009,693,0,1450360864294,1450360864351,884,325,0,0,0,2,3,1,5,0003-00-0001-41.png,0002-00-0001-64.png
00000009,694,0,1450360867503,1450360868849,472,351,0,0,0,4,2,2,6,0001-00-0000-73.png,0003-00-0001-36.png
00000009,695,1,1450360871990,1450360872608,995,288,0,0,0,4,1,3,5,0001-00-0000-90.png,0004-00-0000-77.png
00000009,696,1,1450360873621,1450360874601,507,230,0,0,0,1,4,3,5,0004-00-0000-98.png,0001-00-0001-91.png
00000009,697,1,1450360875611,1450360876365,897,344,0,0,0,1,0,1,1,0004-00-0001-16.png,0005-00-0001-66.png
00000009,698,0,1450360877334,1450360878244,1002,231,0,0,0,3,4,1,7,0002-00-0001-01.png,0001-00-0001-04.png
00000009,699,0,1450360881100,1450360882144,496,268,0,0,0,3,1,2,4,0002-00-0001-15.png,0004-00-0001-18.png
00000009,700,1,1450360886040,1450360886616,1024,243,0,0,0,2,1,1,3,0003-00-0000-74.png,0004-00-0001-79.png
00000009,701,1,1450360887550,1450360888699,1043,261,0,0,0,2,1,1,3,0003-00-0001-97.png,0004-00-0001-44.png
00000009,702,1,1450360889698,1450360890477,465,263,0,0,0,1,4,3,5,0004-00-0000-67.png,0001-00-0001-09.png
00000009,703,1,1450360891425,1450360892694,383,346,0,0,0,0,2,2,2,0005-00-0000-56.png,0003-00-0000-86.png
00000009,704,1,1450360893702,1450360894478,920,352,0,0,0,4,0,4,4,0001-00-0000-33.png,0005-00-0001-44.png
00000009,705,0,1450360895476,1450360896591,522,261,0,0,0,2,0,2,2,0003-00-0000-62.png,0005-00-0001-85.png
00000009,706,1,1450360899943,1450360900525,1046,220,0,0,0,3,2,1,5,0002-00-0000-47.png,0003-00-0000-62.png
00000009,707,1,1450360901537,1450360902571,964,396,0,0,0,4,3,1,7,0001-00-0000-54.png,0002-00-0001-46.png
00000009,708,1,1450360903548,1450360904674,513,272,0,0,0,2,3,1,5,0003-00-0001-69.png,0002-00-0001-54.png
00000009,709,1,1450360905672,1450360906532,515,282,0,0,0,0,3,3,3,0005-00-0000-13.png,0002-00-0000-91.png
00000009,710,1,1450360907579,1450360908443,434,367,0,0,0,3,4,1,7,0002-00-0001-84.png,0001-00-0000-28.png
00000009,711,1,1450360909532,1450360910916,478,292,0,0,0,0,4,4,4,0005-00-0000-22.png,0001-00-0000-36.png
00000009,712,1,1450360911917,1450360912738,933,288,0,0,0,4,1,3,5,0001-00-0001-94.png,0004-00-0000-43.png
00000009,713,1,1450360913801,1450360914571,904,306,0,0,0,3,1,2,4,0002-00-0001-39.png,0004-00-0001-74.png
00000009,714,1,1450360915603,1450360916350,387,360,0,0,0,1,3,2,4,0004-00-0000-93.png,0002-00-0000-16.png
00000009,715,1,1450360917382,1450360918319,1012,246,0,0,0,4,2,2,6,0001-00-0000-97.png,0003-00-0000-33.png
00000009,716,1,1450360919349,1450360920141,475,429,0,0,0,1,2,1,3,0004-00-0000-38.png,0003-00-0001-80.png
00000009,717,0,1450360921255,1450360922029,928,295,0,0,0,0,1,1,1,0005-00-0001-95.png,0004-00-0001-58.png
00000009,718,1,1450361010187,1450361010748,909,379,0,0,0,1,0,1,1,0004-00-0000-32.png,0005-00-0001-86.png
00000009,719,1,1450361011615,1450361012540,889,368,0,0,0,3,0,3,3,0002-00-0001-48.png,0005-00-0000-20.png
00000009,720,1,1450361013634,1450361014456,502,460,0,0,0,2,4,2,6,0003-00-0000-71.png,0001-00-0001-90.png
00000009,721,1,1450361015502,1450361016684,988,306,0,0,0,4,2,2,6,0001-00-0000-15.png,0003-00-0001-65.png
00000009,722,1,1450361017590,1450361018713,487,254,0,0,0,0,3,3,3,0005-00-0000-43.png,0002-00-0000-17.png
00000009,723,1,1450361019647,1450361021128,371,375,0,0,0,2,3,1,5,0003-00-0000-60.png,0002-00-0001-48.png
00000009,724,1,1450361023205,1450361024026,479,270,0,0,0,3,4,1,7,0002-00-0000-54.png,0001-00-0001-72.png
00000009,725,1,1450361025013,1450361025752,1006,279,0,0,0,3,2,1,5,0002-00-0001-38.png,0003-00-0001-95.png
00000009,726,1,1450361026753,1450361027683,438,291,0,0,0,1,2,1,3,0004-00-0000-12.png,0003-00-0001-83.png
00000009,727,1,1450361029248,1450361029906,478,265,0,0,0,1,3,2,4,0004-00-0000-67.png,0002-00-0000-45.png
00000009,728,1,1450361031004,1450361031834,900,332,0,0,0,3,0,3,3,0002-00-0001-79.png,0005-00-0000-02.png
00000009,729,0,1450361032824,1450361034112,470,286,0,0,0,3,1,2,4,0002-00-0001-40.png,0004-00-0001-43.png
00000009,730,1,1450361037117,1450361037653,937,341,0,0,0,2,0,2,2,0003-00-0000-05.png,0005-00-0000-99.png
00000009,731,1,1450361038580,1450361039508,996,295,0,0,0,4,1,3,5,0001-00-0001-92.png,0004-00-0001-12.png
00000009,732,1,1450361040566,1450361041319,488,265,0,0,0,0,4,4,4,0005-00-0001-03.png,0001-00-0000-94.png
00000009,733,1,1450361042365,1450361043315,878,366,0,0,0,2,1,1,3,0003-00-0001-22.png,0004-00-0001-64.png
00000009,734,0,1450361044321,1450361045332,897,352,0,0,0,0,1,1,1,0005-00-0000-82.png,0004-00-0001-21.png
00000009,735,0,1450361052672,1450361053794,903,324,0,0,0,2,4,2,6,0003-00-0001-35.png,0001-00-0001-16.png
00000009,736,1,1450361056977,1450361057499,1045,255,0,0,0,1,0,1,1,0004-00-0000-48.png,0005-00-0000-16.png
00000009,737,1,1450361058405,1450361059440,945,325,0,0,0,4,0,4,4,0001-00-0001-28.png,0005-00-0001-83.png
00000009,738,1,1450361060546,1450361061604,913,296,0,0,0,4,3,1,7,0001-00-0000-90.png,0002-00-0001-08.png
00000009,739,1,1450361062572,1450361063621,490,252,0,0,0,0,2,2,2,0005-00-0000-17.png,0003-00-0000-04.png
00000009,740,1,1450361064656,1450361065820,478,290,0,0,0,1,4,3,5,0004-00-0000-26.png,0001-00-0000-34.png
00000009,741,1,1450361066875,1450361067702,979,266,0,0,0,2,1,1,3,0003-00-0000-85.png,0004-00-0000-33.png
00000009,742,1,1450361068853,1450361069918,910,334,0,0,0,4,2,2,6,0001-00-0000-18.png,0003-00-0000-94.png
00000009,743,1,1450361071155,1450361071946,889,342,0,0,0,3,0,3,3,0002-00-0000-94.png,0005-00-0001-07.png
00000009,744,1,1450361072964,1450361073814,939,391,0,0,0,3,1,2,4,0002-00-0001-10.png,0004-00-0001-75.png
00000009,745,1,1450361074811,1450361075624,997,234,0,0,0,4,1,3,5,0001-00-0001-73.png,0004-00-0001-89.png
00000009,746,0,1450361076730,1450361077575,913,336,0,0,0,2,3,1,5,0003-00-0000-10.png,0002-00-0001-53.png
00000009,747,0,1450361080855,1450361081447,915,340,0,0,0,3,4,1,7,0002-00-0000-90.png,0001-00-0000-84.png
00000009,748,1,1450361086539,1450361087131,962,323,0,0,0,3,2,1,5,0002-00-0000-04.png,0003-00-0001-88.png
00000009,749,1,1450361088079,1450361089018,937,335,0,0,0,4,0,4,4,0001-00-0000-10.png,0005-00-0000-06.png
00000009,750,1,1450361089956,1450361090818,462,273,0,0,0,0,3,3,3,0005-00-0001-71.png,0002-00-0000-21.png
00000009,751,1,1450361091694,1450361092883,490,293,0,0,0,1,2,1,3,0004-00-0000-17.png,0003-00-0000-02.png
00000009,752,1,1450361093801,1450361094510,1118,343,0,0,0,2,0,2,2,0003-00-0001-25.png,0005-00-0000-37.png
00000009,753,1,1450361095612,1450361096415,507,291,0,0,0,2,4,2,6,0003-00-0000-72.png,0001-00-0001-34.png
00000009,754,1,1450361097370,1450361098294,481,261,0,0,0,1,4,3,5,0004-00-0000-09.png,0001-00-0000-87.png
00000009,755,1,1450361099237,1450361100107,964,271,0,0,0,1,0,1,1,0004-00-0000-88.png,0005-00-0001-91.png
00000009,756,1,1450361101714,1450361102577,939,384,0,0,0,4,3,1,7,0001-00-0001-05.png,0002-00-0000-73.png
00000009,757,1,1450361103664,1450361104318,463,275,0,0,0,0,2,2,2,0005-00-0001-14.png,0003-00-0001-97.png
00000009,758,1,1450361105983,1450361106595,499,277,0,0,0,0,4,4,4,0005-00-0000-23.png,0001-00-0001-54.png
00000009,759,1,1450361107555,1450361108545,480,274,0,0,0,1,3,2,4,0004-00-0000-46.png,0002-00-0001-98.png
00000009,760,0,1450361110156,1450361110863,937,380,0,0,0,0,1,1,1,0005-00-0001-70.png,0004-00-0000-10.png
00000009,761,1,1450361137399,1450361137926,913,332,0,0,0,4,2,2,6,0001-00-0001-19.png,0003-00-0000-10.png
00000009,762,0,1450361138880,1450361139762,465,303,0,0,0,3,1,2,4,0002-00-0001-92.png,0004-00-0000-01.png
00000009,763,1,1450361142881,1450361143452,1010,312,0,0,0,3,0,3,3,0002-00-0001-18.png,0005-00-0001-00.png
00000009,764,0,1450361145057,1450361145715,513,238,0,0,0,4,0,4,4,0001-00-0001-28.png,0005-00-0000-18.png
00000009,765,1,1450361148888,1450361149551,459,367,0,0,0,0,3,3,3,0005-00-0001-63.png,0002-00-0001-73.png
00000009,766,1,1450361150606,1450361152034,512,252,0,0,0,2,3,1,5,0003-00-0000-04.png,0002-00-0001-48.png
00000009,767,1,1450361153043,1450361154216,921,307,0,0,0,2,1,1,3,0003-00-0000-48.png,0004-00-0001-30.png
00000009,768,0,1450361155277,1450361156011,879,321,0,0,0,0,1,1,1,0005-00-0001-45.png,0004-00-0001-56.png
00000009,769,0,1450361159192,1450361159789,983,276,0,0,0,2,4,2,6,0003-00-0001-91.png,0001-00-0000-01.png
00000009,770,1,1450361162829,1450361163454,485,277,0,0,0,1,3,2,4,0004-00-0001-79.png,0002-00-0001-28.png
00000009,771,1,1450361164427,1450361165220,858,322,0,0,0,1,0,1,1,0004-00-0000-44.png,0005-00-0000-40.png
00000009,772,0,1450361166240,1450361167618,455,262,0,0,0,2,0,2,2,0003-00-0000-50.png,0005-00-0000-29.png
00000009,773,0,1450361180625,1450361180672,904,307,0,0,0,0,2,2,2,0005-00-0001-05.png,0003-00-0000-15.png
00000009,774,1,1450361183616,1450361184182,485,298,0,0,0,0,4,4,4,0005-00-0001-96.png,0001-00-0000-55.png
00000009,775,1,1450361185164,1450361186308,492,264,0,0,0,1,2,1,3,0004-00-0000-74.png,0003-00-0000-73.png
00000009,776,0,1450361187371,1450361187375,517,531,0,0,0,4,1,3,5,0001-00-0000-40.png,0004-00-0000-76.png
00000009,777,1,1450361190651,1450361191263,463,240,0,0,0,1,4,3,5,0004-00-0001-04.png,0001-00-0000-76.png
00000009,778,1,1450361192301,1450361193259,918,338,0,0,0,4,3,1,7,0001-00-0001-69.png,0002-00-0001-57.png
00000009,779,1,1450361194157,1450361195117,1014,313,0,0,0,3,2,1,5,0002-00-0000-04.png,0003-00-0001-85.png
00000009,780,1,1450361196234,1450361196961,487,281,0,0,0,3,4,1,7,0002-00-0001-68.png,0001-00-0001-11.png
00000009,781,1,1450361197961,1450361198768,481,274,0,0,0,0,1,1,1,0005-00-0001-56.png,0004-00-0000-74.png
00000009,782,1,1450361199750,1450361201045,399,361,0,0,0,1,4,3,5,0004-00-0000-44.png,0001-00-0000-53.png
00000009,783,1,1450361202076,1450361202856,454,267,0,0,0,1,3,2,4,0004-00-0000-83.png,0002-00-0000-78.png
00000009,784,1,1450361203822,1450361205005,915,339,0,0,0,3,0,3,3,0002-00-0000-62.png,0005-00-0000-37.png
00000009,785,1,1450361206063,1450361207025,902,338,0,0,0,3,2,1,5,0002-00-0000-02.png,0003-00-0000-70.png
00000009,786,0,1450361207999,1450361208079,517,515,0,0,0,4,3,1,7,0001-00-0001-32.png,0002-00-0001-12.png
00000009,787,1,1450361211297,1450361211861,1022,295,0,0,0,2,0,2,2,0003-00-0001-99.png,0005-00-0001-88.png
00000009,788,1,1450361212769,1450361213714,494,272,0,0,0,0,2,2,2,0005-00-0000-10.png,0003-00-0001-41.png
00000009,789,0,1450361215434,1450361215977,990,279,0,0,0,2,4,2,6,0003-00-0000-61.png,0001-00-0001-98.png
00000009,790,0,1450361220747,1450361220835,875,339,0,0,0,3,4,1,7,0002-00-0000-15.png,0001-00-0000-11.png
00000009,791,1,1450361224022,1450361224592,503,267,0,0,0,0,4,4,4,0005-00-0000-66.png,0001-00-0000-19.png
00000009,792,1,1450361225610,1450361226541,877,325,0,0,0,3,1,2,4,0002-00-0000-71.png,0004-00-0001-01.png
00000009,793,1,1450361227605,1450361228637,913,358,0,0,0,4,1,3,5,0001-00-0000-36.png,0004-00-0001-25.png
00000009,794,1,1450361229653,1450361230491,928,366,0,0,0,1,0,1,1,0004-00-0001-99.png,0005-00-0001-07.png
00000009,795,1,1450361231461,1450361232537,481,289,0,0,0,2,3,1,5,0003-00-0001-37.png,0002-00-0000-03.png
00000009,796,1,1450361233623,1450361234506,964,292,0,0,0,4,0,4,4,0001-00-0001-89.png,0005-00-0001-54.png
00000009,797,1,1450361235478,1450361236477,490,237,0,0,0,0,3,3,3,0005-00-0001-76.png,0002-00-0000-63.png
00000009,798,0,1450361237424,1450361238749,470,247,0,0,0,2,1,1,3,0003-00-0000-02.png,0004-00-0001-76.png
00000009,799,0,1450361292249,1450361292341,879,309,0,0,0,1,2,1,3,0004-00-0001-81.png,0003-00-0000-12.png
00000009,800,1,1450361295519,1450361296096,1018,282,0,0,0,4,2,2,6,0001-00-0000-20.png,0003-00-0000-31.png
00000009,801,1,1450361296990,1450361297914,505,234,0,0,0,0,1,1,1,0005-00-0000-49.png,0004-00-0000-71.png
00000009,802,1,1450361298886,1450361298934,501,482,0,0,0,1,2,1,3,0004-00-0000-37.png,0003-00-0001-61.png
00000009,803,1,1450361299933,1450361300843,475,430,0,0,0,1,4,3,5,0004-00-0000-77.png,0001-00-0000-77.png
00000009,804,0,1450361302318,1450361303299,888,315,0,0,0,3,4,1,7,0002-00-0001-48.png,0001-00-0000-23.png
00000009,805,1,1450361306254,1450361306338,862,448,0,0,0,3,1,2,4,0002-00-0000-69.png,0004-00-0000-15.png
00000009,806,1,1450361307303,1450361308451,489,265,0,0,0,2,4,2,6,0003-00-0001-61.png,0001-00-0001-69.png
00000009,807,1,1450361309355,1450361310313,451,282,0,0,0,0,3,3,3,0005-00-0000-73.png,0002-00-0001-56.png
00000009,808,1,1450361311944,1450361312570,990,250,0,0,0,2,1,1,3,0003-00-0001-90.png,0004-00-0001-61.png
00000009,809,1,1450361313476,1450361314331,935,315,0,0,0,4,0,4,4,0001-00-0001-44.png,0005-00-0001-38.png
00000009,810,1,1450361315262,1450361317291,1040,250,0,0,0,4,3,1,7,0001-00-0001-27.png,0002-00-0001-72.png
00000009,811,1,1450361318160,1450361319025,920,377,0,0,0,4,1,3,5,0001-00-0001-35.png,0004-00-0001-59.png
00000009,812,1,1450361320003,1450361321114,917,339,0,0,0,3,2,1,5,0002-00-0000-87.png,0003-00-0000-07.png
00000009,813,0,1450361322091,1450361323262,1030,332,0,0,0,1,3,2,4,0004-00-0001-84.png,0002-00-0001-79.png
00000009,814,0,1450361326376,1450361327162,504,266,0,0,0,1,0,1,1,0004-00-0001-19.png,0005-00-0000-55.png
00000009,815,0,1450361330083,1450361330737,1135,383,0,0,0,2,3,1,5,0003-00-0001-98.png,0002-00-0000-57.png
00000009,816,1,1450361337533,1450361338073,967,308,0,0,0,2,0,2,2,0003-00-0001-84.png,0005-00-0001-24.png
00000009,817,1,1450361338972,1450361339956,929,326,0,0,0,4,2,2,6,0001-00-0000-31.png,0003-00-0000-41.png
00000009,818,1,1450361340914,1450361341736,1025,279,0,0,0,3,0,3,3,0002-00-0001-93.png,0005-00-0001-36.png
00000009,819,1,1450361342713,1450361343619,491,267,0,0,0,0,4,4,4,0005-00-0001-94.png,0001-00-0001-63.png
00000009,820,1,1450361344607,1450361345489,496,257,0,0,0,0,2,2,2,0005-00-0000-47.png,0003-00-0000-56.png
00000009,821,1,1450361346356,1450361347125,510,269,0,0,0,0,3,3,3,0005-00-0001-12.png,0002-00-0000-68.png
00000009,822,1,1450361348078,1450361349081,918,296,0,0,0,4,2,2,6,0001-00-0000-73.png,0003-00-0001-46.png
00000009,823,1,1450361349939,1450361350936,495,264,0,0,0,1,4,3,5,0004-00-0000-44.png,0001-00-0001-78.png
00000009,824,0,1450361352084,1450361353052,1005,264,0,0,0,0,2,2,2,0005-00-0000-57.png,0003-00-0000-39.png
00000009,825,1,1450361452463,1450361453007,929,312,0,0,0,4,1,3,5,0001-00-0000-03.png,0004-00-0001-97.png
00000009,826,1,1450361454015,1450361455025,472,280,0,0,0,3,4,1,7,0002-00-0001-96.png,0001-00-0000-37.png
00000009,827,1,1450361455889,1450361456701,405,393,0,0,0,2,4,2,6,0003-00-0001-83.png,0001-00-0001-57.png
00000009,828,1,1450361457631,1450361458441,990,270,0,0,0,1,0,1,1,0004-00-0001-81.png,0005-00-0000-03.png
00000009,829,1,1450361459379,1450361460052,895,326,0,0,0,3,0,3,3,0002-00-0001-25.png,0005-00-0001-23.png
00000009,830,1,1450361461457,1450361462047,473,282,0,0,0,0,4,4,4,0005-00-0000-53.png,0001-00-0001-56.png
00000009,831,0,1450361462965,1450361463005,516,498,0,0,0,2,1,1,3,0003-00-0001-42.png,0004-00-0001-94.png
00000009,832,1,1450361466128,1450361466160,872,336,0,0,0,4,3,1,7,0001-00-0000-39.png,0002-00-0000-06.png
00000009,833,1,1450361467038,1450361467863,483,245,0,0,0,1,2,1,3,0004-00-0000-57.png,0003-00-0001-72.png
00000009,834,0,1450361468780,1450361469653,988,286,0,0,0,2,3,1,5,0003-00-0001-94.png,0002-00-0001-64.png
00000009,835,0,1450361472785,1450361473331,993,259,0,0,0,1,3,2,4,0004-00-0001-79.png,0002-00-0001-55.png
00000009,836,1,1450361476491,1450361477118,489,285,0,0,0,0,1,1,1,0005-00-0001-28.png,0004-00-0001-17.png
00000009,837,1,1450361477971,1450361478609,902,335,0,0,0,4,0,4,4,0001-00-0001-79.png,0005-00-0000-51.png
00000009,838,1,1450361479543,1450361480267,903,324,0,0,0,2,0,2,2,0003-00-0000-73.png,0005-00-0001-96.png
00000009,839,1,1450361481173,1450361482156,924,428,0,0,0,3,2,1,5,0002-00-0000-04.png,0003-00-0000-04.png
00000009,840,1,1450361483158,1450361484103,904,334,0,0,0,3,1,2,4,0002-00-0001-77.png,0004-00-0001-48.png
00000009,841,1,1450361485028,1450361485992,505,249,0,0,0,1,3,2,4,0004-00-0000-12.png,0002-00-0001-28.png
00000009,842,1,1450361486895,1450361487735,912,337,0,0,0,2,0,2,2,0003-00-0000-89.png,0005-00-0001-36.png
00000009,843,1,1450361488675,1450361489754,498,281,0,0,0,2,3,1,5,0003-00-0001-30.png,0002-00-0000-27.png
00000009,844,1,1450361490713,1450361491903,913,289,0,0,0,4,3,1,7,0001-00-0000-51.png,0002-00-0001-55.png
00000009,845,1,1450361492795,1450361493571,1020,270,0,0,0,4,0,4,4,0001-00-0000-23.png,0005-00-0001-10.png
00000009,846,1,1450361494577,1450361495300,446,278,0,0,0,1,2,1,3,0004-00-0001-44.png,0003-00-0001-65.png
00000009,847,0,1450361496388,1450361497154,505,272,0,0,0,3,1,2,4,0002-00-0001-70.png,0004-00-0001-70.png
00000009,848,0,1450361500390,1450361501012,454,356,0,0,0,2,1,1,3,0003-00-0001-27.png,0004-00-0000-14.png
00000009,849,1,1450361504116,1450361504652,1021,258,0,0,0,4,1,3,5,0001-00-0001-98.png,0004-00-0000-98.png
00000009,850,0,1450361505539,1450361505611,862,460,0,0,0,0,1,1,1,0005-00-0000-77.png,0004-00-0001-92.png
00000009,851,1,1450361508759,1450361509937,477,283,0,0,0,2,4,2,6,0003-00-0000-17.png,0001-00-0000-73.png
00000009,852,1,1450361510862,1450361512034,944,333,0,0,0,3,2,1,5,0002-00-0000-77.png,0003-00-0001-39.png
00000009,853,1,1450361513043,1450361513815,490,244,0,0,0,0,2,2,2,0005-00-0001-06.png,0003-00-0000-30.png
00000009,854,0,1450361514769,1450361514781,507,540,0,0,0,3,0,3,3,0002-00-0000-68.png,0005-00-0000-44.png
00000009,855,1,1450361517834,1450361518384,1014,277,0,0,0,4,2,2,6,0001-00-0001-09.png,0003-00-0000-85.png
00000009,856,1,1450361519333,1450361520392,497,280,0,0,0,3,4,1,7,0002-00-0000-28.png,0001-00-0000-10.png
00000009,857,1,1450361521378,1450361522231,480,265,0,0,0,0,3,3,3,0005-00-0000-66.png,0002-00-0000-05.png
00000009,858,1,1450361523111,1450361523846,881,334,0,0,0,1,0,1,1,0004-00-0000-20.png,0005-00-0001-92.png
00000009,859,1,1450361524779,1450361525523,459,262,0,0,0,1,4,3,5,0004-00-0001-99.png,0001-00-0001-37.png
00000009,860,1,1450361526449,1450361527246,487,240,0,0,0,0,4,4,4,0005-00-0001-18.png,0001-00-0000-78.png
00000009,861,1,1450361528227,1450361528979,990,268,0,0,0,3,0,3,3,0002-00-0000-02.png,0005-00-0000-02.png
00000009,862,1,1450361529936,1450361530908,513,290,0,0,0,3,4,1,7,0002-00-0001-15.png,0001-00-0001-57.png
00000009,863,1,1450361531885,1450361532525,1009,273,0,0,0,1,0,1,1,0004-00-0001-83.png,0005-00-0001-89.png
00000009,864,1,1450361533510,1450361534284,479,270,0,0,0,1,2,1,3,0004-00-0001-59.png,0003-00-0000-46.png
00000009,865,0,1450361535750,1450361536460,902,314,0,0,0,2,3,1,5,0003-00-0000-29.png,0002-00-0001-00.png
00000009,866,1,1450361540928,1450361541413,904,335,0,0,0,2,0,2,2,0003-00-0000-54.png,0005-00-0001-34.png
00000009,867,1,1450361542287,1450361543011,513,258,0,0,0,0,4,4,4,0005-00-0000-36.png,0001-00-0001-68.png
00000009,868,0,1450361544066,1450361544737,882,337,0,0,0,0,1,1,1,0005-00-0001-83.png,0004-00-0001-02.png
00000009,869,0,1450361547706,1450361547750,890,352,0,0,0,1,3,2,4,0004-00-0001-87.png,0002-00-0001-54.png
00000009,870,0,1450361551202,1450361551815,478,288,0,0,0,3,1,2,4,0002-00-0000-81.png,0004-00-0001-36.png
00000009,871,1,1450361554979,1450361555027,922,306,0,0,0,4,1,3,5,0001-00-0000-04.png,0004-00-0000-61.png
00000009,872,1,1450361555963,1450361556657,478,262,0,0,0,0,2,2,2,0005-00-0001-19.png,0003-00-0000-84.png
00000009,873,1,1450361557732,1450361558801,481,274,0,0,0,2,4,2,6,0003-00-0001-48.png,0001-00-0001-52.png
00000009,874,0,1450361559797,1450361560656,476,252,0,0,0,2,1,1,3,0003-00-0000-47.png,0004-00-0001-05.png
00000009,875,0,1450361563803,1450361564494,933,330,0,0,0,1,4,3,5,0004-00-0001-45.png,0001-00-0001-22.png
00000009,876,1,1450361567637,1450361568187,934,299,0,0,0,4,0,4,4,0001-00-0001-28.png,0005-00-0001-71.png
00000009,877,0,1450361569068,1450361570211,917,320,0,0,0,0,3,3,3,0005-00-0000-55.png,0002-00-0000-21.png
00000009,878,1,1450361573271,1450361573838,949,410,0,0,0,4,2,2,6,0001-00-0000-82.png,0003-00-0001-10.png
00000009,879,1,1450361574762,1450361575739,917,290,0,0,0,3,2,1,5,0002-00-0000-09.png,0003-00-0001-61.png
00000009,880,0,1450361576700,1450361577993,468,286,0,0,0,4,3,1,7,0001-00-0001-75.png,0002-00-0001-29.png
00000009,881,0,1450361581201,1450361581237,862,332,0,0,0,1,3,2,4,0004-00-0000-88.png,0002-00-0000-87.png
00000009,882,1,1450361584549,1450361584569,888,332,0,0,0,3,2,1,5,0002-00-0000-99.png,0003-00-0001-64.png
00000009,883,1,1450361585553,1450361586186,463,267,0,0,0,0,3,3,3,0005-00-0000-61.png,0002-00-0001-46.png
00000009,884,0,1450361587164,1450361588057,907,321,0,0,0,0,2,2,2,0005-00-0001-10.png,0003-00-0000-54.png
00000009,885,1,1450361591258,1450361591820,1026,268,0,0,0,4,0,4,4,0001-00-0000-63.png,0005-00-0001-93.png
00000009,886,1,1450361593196,1450361593880,893,293,0,0,0,4,2,2,6,0001-00-0000-07.png,0003-00-0000-28.png
00000009,887,1,1450361594935,1450361595700,465,263,0,0,0,1,4,3,5,0004-00-0001-85.png,0001-00-0001-40.png
00000009,888,1,1450361596622,1450361597443,900,304,0,0,0,2,1,1,3,0003-00-0000-25.png,0004-00-0000-49.png
00000009,889,0,1450361598452,1450361599434,905,336,0,0,0,0,1,1,1,0005-00-0000-01.png,0004-00-0001-91.png
00000009,890,0,1450361604376,1450361605540,887,426,0,0,0,3,4,1,7,0002-00-0000-22.png,0001-00-0000-34.png
00000009,891,1,1450361609124,1450361609164,861,325,0,0,0,3,0,3,3,0002-00-0000-62.png,0005-00-0000-41.png
00000009,892,0,1450361610147,1450361610832,474,267,0,0,0,1,0,1,1,0004-00-0000-53.png,0005-00-0000-43.png
00000009,893,1,1450361614034,1450361614535,994,261,0,0,0,3,1,2,4,0002-00-0000-22.png,0004-00-0001-40.png
00000009,894,1,1450361615495,1450361616217,416,436,0,0,0,0,4,4,4,0005-00-0000-37.png,0001-00-0001-76.png
00000009,895,0,1450361617115,1450361617163,514,527,0,0,0,2,0,2,2,0003-00-0001-99.png,0005-00-0000-05.png
00000009,896,1,1450361620284,1450361621184,486,296,0,0,0,2,4,2,6,0003-00-0001-23.png,0001-00-0000-42.png
00000009,897,1,1450361622234,1450361623120,463,274,0,0,0,1,2,1,3,0004-00-0000-72.png,0003-00-0001-21.png
00000009,898,1,1450361624151,1450361625169,923,329,0,0,0,4,1,3,5,0001-00-0000-90.png,0004-00-0000-23.png
00000009,899,1,1450361626137,1450361626284,860,511,0,0,0,4,3,1,7,0001-00-0001-24.png,0002-00-0000-40.png
00000009,900,1,1450361627311,1450361628250,479,271,0,0,0,2,3,1,5,0003-00-0001-88.png,0002-00-0000-08.png
00000009,901,1,1450361629306,1450361630023,1027,253,0,0,0,2,0,2,2,0003-00-0001-21.png,0005-00-0001-07.png
00000009,902,1,1450361630966,1450361631783,888,314,0,0,0,1,0,1,1,0004-00-0001-68.png,0005-00-0001-31.png
00000009,903,1,1450361632851,1450361633751,988,253,0,0,0,4,2,2,6,0001-00-0001-42.png,0003-00-0001-50.png
00000009,904,1,1450361634771,1450361635771,909,310,0,0,0,2,1,1,3,0003-00-0001-56.png,0004-00-0000-98.png
00000009,905,1,1450361636817,1450361637593,479,259,0,0,0,1,3,2,4,0004-00-0001-19.png,0002-00-0001-68.png
00000009,906,1,1450361638639,1450361639770,911,307,0,0,0,4,1,3,5,0001-00-0001-40.png,0004-00-0000-52.png
00000009,907,1,1450361640755,1450361641576,461,440,0,0,0,0,2,2,2,0005-00-0001-50.png,0003-00-0001-38.png
00000009,908,1,1450361642553,1450361643368,491,266,0,0,0,0,4,4,4,0005-00-0001-35.png,0001-00-0001-87.png
00000009,909,1,1450361644609,1450361645874,399,372,0,0,0,2,4,2,6,0003-00-0001-84.png,0001-00-0001-52.png
00000009,910,1,1450361646936,1450361647968,462,272,0,0,0,2,3,1,5,0003-00-0000-14.png,0002-00-0001-47.png
00000009,911,1,1450361885804,1450361886335,966,261,0,0,0,4,3,1,7,0001-00-0000-71.png,0002-00-0000-48.png
00000009,912,1,1450361887278,1450361888137,509,269,0,0,0,0,1,1,1,0005-00-0001-72.png,0004-00-0000-48.png
00000009,913,1,1450361889175,1450361889816,894,322,0,0,0,3,2,1,5,0002-00-0001-10.png,0003-00-0000-74.png
00000009,914,1,1450361890737,1450361891669,469,263,0,0,0,1,4,3,5,0004-00-0001-83.png,0001-00-0001-92.png
00000009,915,1,1450361892668,1450361895561,393,362,0,0,0,3,4,1,7,0002-00-0000-77.png,0001-00-0001-21.png
00000009,916,1,1450361896599,1450361897503,473,262,0,0,0,0,3,3,3,0005-00-0000-04.png,0002-00-0001-51.png
00000009,917,0,1450361898493,1450361899456,992,275,0,0,0,1,2,1,3,0004-00-0000-52.png,0003-00-0000-56.png
00000009,918,1,1450361902758,1450361904045,964,317,0,0,0,3,1,2,4,0002-00-0001-08.png,0004-00-0001-30.png
00000009,919,1,1450361904984,1450361905654,910,336,0,0,0,4,0,4,4,0001-00-0000-76.png,0005-00-0001-86.png
00000009,920,1,1450361906730,1450361940775,913,373,0,0,0,3,0,3,3,0002-00-0001-91.png,0005-00-0000-71.png
00000009,921,0,1450362128640,1450362129136,1038,320,0,0,0,1,3,2,4,0004-00-0000-13.png,0002-00-0000-56.png
00000009,922,1,1450362132316,1450362133380,1016,269,0,0,0,4,3,1,7,0001-00-0000-79.png,0002-00-0001-99.png
00000009,923,1,1450362134293,1450362135425,496,260,0,0,0,0,3,3,3,0005-00-0001-11.png,0002-00-0000-44.png
00000009,924,0,1450362136430,1450362137267,911,336,0,0,0,3,4,1,7,0002-00-0000-89.png,0001-00-0000-41.png
00000009,925,1,1450362530423,1450362531577,985,277,0,0,0,4,1,3,5,0001-00-0001-09.png,0004-00-0001-24.png
00000009,926,0,1450362532523,1450362532762,900,485,0,0,0,0,1,1,1,0005-00-0000-37.png,0004-00-0001-01.png
00000009,927,1,1450362535686,1450362536223,960,314,0,0,0,3,1,2,4,0002-00-0000-14.png,0004-00-0000-45.png
00000009,928,1,1450362537214,1450362538178,522,282,0,0,0,1,2,1,3,0004-00-0001-05.png,0003-00-0001-79.png
00000009,929,1,1450362539240,1450362540151,904,334,0,0,0,3,0,3,3,0002-00-0000-93.png,0005-00-0000-29.png
00000009,930,1,1450362541057,1450362542167,1005,307,0,0,0,2,1,1,3,0003-00-0000-93.png,0004-00-0001-08.png
00000009,931,1,1450362543175,1450362544217,495,250,0,0,0,1,4,3,5,0004-00-0001-96.png,0001-00-0000-73.png
00000009,932,1,1450362545260,1450362545951,917,320,0,0,0,3,2,1,5,0002-00-0001-81.png,0003-00-0001-06.png
00000009,933,0,1450362546972,1450362547849,484,249,0,0,0,1,0,1,1,0004-00-0000-17.png,0005-00-0000-44.png
00000009,934,1,1450362810383,1450362811135,1014,247,0,0,0,2,0,2,2,0003-00-0000-25.png,0005-00-0001-06.png
00000009,935,1,1450362812047,1450362813138,372,382,0,0,0,2,4,2,6,0003-00-0000-51.png,0001-00-0000-57.png
00000009,936,0,1450362814103,1450362814860,483,279,0,0,0,4,2,2,6,0001-00-0001-68.png,0003-00-0000-25.png
00000009,937,1,1450362817908,1450362818526,453,390,0,0,0,0,2,2,2,0005-00-0001-81.png,0003-00-0000-59.png
00000009,938,1,1450362819428,1450362820341,906,314,0,0,0,4,0,4,4,0001-00-0001-08.png,0005-00-0000-56.png
00000009,939,1,1450362821246,1450362822085,461,272,0,0,0,0,4,4,4,0005-00-0000-47.png,0001-00-0000-06.png
00000009,940,0,1450362822985,1450362823863,997,262,0,0,0,2,3,1,5,0003-00-0001-52.png,0002-00-0001-78.png
00000009,941,0,1450362827022,1450362827686,479,286,0,0,0,1,0,1,1,0004-00-0000-57.png,0005-00-0000-60.png
00000009,942,1,1450362830549,1450362831117,1006,287,0,0,0,4,1,3,5,0001-00-0000-78.png,0004-00-0000-65.png
00000009,943,1,1450362832008,1450362832859,915,291,0,0,0,3,1,2,4,0002-00-0001-85.png,0004-00-0001-36.png
00000009,944,1,1450362833886,1450362834951,916,336,0,0,0,4,2,2,6,0001-00-0000-09.png,0003-00-0000-79.png
00000009,945,1,1450362835945,1450362837032,478,242,0,0,0,2,3,1,5,0003-00-0001-17.png,0002-00-0001-39.png
00000009,946,1,1450362838048,1450362838671,1010,244,0,0,0,4,0,4,4,0001-00-0000-01.png,0005-00-0001-30.png
00000009,947,1,1450362839623,1450362840407,936,288,0,0,0,3,2,1,5,0002-00-0001-60.png,0003-00-0000-04.png
00000009,948,1,1450362841469,1450362842329,481,290,0,0,0,2,4,2,6,0003-00-0001-33.png,0001-00-0001-02.png
00000009,949,1,1450362843268,1450362844301,982,247,0,0,0,3,0,3,3,0002-00-0000-39.png,0005-00-0000-32.png
00000009,950,0,1450362845284,1450362846054,908,317,0,0,0,0,1,1,1,0005-00-0001-35.png,0004-00-0001-66.png
