subject_id,trial,correct_response,stim_time,response_time,x_coord,y_coord,trial_timeout,timeout_time,interTrial_timeout,left_rank,right_rank,distance,joint_rank,left_image,right_image
00000014,1,1,1450363309707,1450363310520,464,412,0,0,0,0,2,2,2,0005-00-0001-89.png,0003-00-0001-91.png
00000014,2,0,1450363311604,1450363312043,406,473,0,0,0,4,3,1,7,0001-00-0000-40.png,0002-00-0001-94.png
00000014,3,0,1450363314891,1450363315354,857,369,0,0,0,0,1,1,1,0005-00-0000-35.png,0004-00-0001-77.png
00000014,4,1,1450363318200,1450363318616,965,423,0,0,0,2,0,2,2,0003-00-0001-27.png,0005-00-0000-40.png
00000014,5,0,1450363319612,1450363320111,951,489,0,0,0,3,4,1,7,0002-00-0001-29.png,0001-00-0001-08.png
00000014,6,1,1450363323157,1450363323537,998,418,0,0,0,4,0,4,4,0001-00-0001-16.png,0005-00-0001-45.png
00000014,7,0,1450363324461,1450363324950,928,433,0,0,0,2,4,2,6,0003-00-0000-90.png,0001-00-0000-77.png
00000014,8,0,1450363327933,1450363328311,1015,396,0,0,0,2,3,1,5,0003-00-0000-24.png,0002-00-0000-75.png
00000014,9,0,1450363331148,1450363331212,515,373,0,0,0,2,1,1,3,0003-00-0001-44.png,0004-00-0000-85.png
00000014,10,1,1450363334254,1450363334659,864,406,0,0,0,3,2,1,5,0002-00-0001-12.png,0003-00-0000-22.png
00000014,11,1,1450363335668,1450363336175,388,396,0,0,0,0,3,3,3,0005-00-0000-94.png,0002-00-0001-15.png
00000014,12,1,1450363337198,1450363337787,899,482,0,0,0,4,1,3,5,0001-00-0000-46.png,0004-00-0000-50.png
00000014,13,0,1450363338769,1450363339235,370,478,0,0,0,3,1,2,4,0002-00-0000-87.png,0004-00-0000-31.png
00000014,14,0,1450363342104,1450363342156,471,321,0,0,0,4,2,2,6,0001-00-0000-22.png,0003-00-0000-13.png
00000014,15,0,1450363345624,1450363346089,923,462,0,0,0,1,3,2,4,0004-00-0000-70.png,0002-00-0000-69.png
00000014,16,1,1450363349500,1450363349890,993,441,0,0,0,3,0,3,3,0002-00-0001-35.png,0005-00-0001-03.png
00000014,17,1,1450363350943,1450363351411,338,427,0,0,0,0,4,4,4,0005-00-0000-42.png,0001-00-0000-39.png
00000014,18,1,1450363352937,1450363353431,928,416,0,0,0,1,0,1,1,0004-00-0001-18.png,0005-00-0001-78.png
00000014,19,1,1450363354945,1450363355537,367,418,0,0,0,1,2,1,3,0004-00-0000-33.png,0003-00-0001-03.png
00000014,20,0,1450363356852,1450363357348,925,517,0,0,0,1,4,3,5,0004-00-0001-54.png,0001-00-0001-89.png
00000014,21,1,1450363360244,1450363360764,504,422,0,0,0,1,3,2,4,0004-00-0001-20.png,0002-00-0001-14.png
00000014,22,1,1450363361755,1450363362319,951,437,0,0,0,3,1,2,4,0002-00-0001-12.png,0004-00-0000-22.png
00000014,23,1,1450363363546,1450363364009,385,448,0,0,0,0,4,4,4,0005-00-0001-91.png,0001-00-0000-73.png
00000014,24,1,1450363365586,1450363366143,920,517,0,0,0,2,0,2,2,0003-00-0001-36.png,0005-00-0001-25.png
00000014,25,1,1450363367225,1450363367812,888,410,0,0,0,3,0,3,3,0002-00-0001-01.png,0005-00-0000-50.png
00000014,26,0,1450363369181,1450363369691,921,434,0,0,0,2,3,1,5,0003-00-0001-12.png,0002-00-0000-92.png
00000014,27,0,1450363377623,1450363377986,907,475,0,0,0,1,2,1,3,0004-00-0001-78.png,0003-00-0000-36.png
00000014,28,0,1450363381526,1450363381934,942,385,0,0,0,0,1,1,1,0005-00-0000-73.png,0004-00-0001-46.png
00000014,29,0,1450363386019,1450363386442,933,449,0,0,0,1,4,3,5,0004-00-0001-29.png,0001-00-0000-35.png
00000014,30,1,1450363390337,1450363390729,914,475,0,0,0,4,3,1,7,0001-00-0001-11.png,0002-00-0001-06.png
00000014,31,1,1450363391699,1450363392217,927,398,0,0,0,4,2,2,6,0001-00-0001-55.png,0003-00-0000-57.png
00000014,32,1,1450363393294,1450363393815,877,516,0,0,0,4,1,3,5,0001-00-0000-30.png,0004-00-0001-86.png
00000014,33,1,1450363394823,1450363395252,346,472,0,0,0,0,3,3,3,0005-00-0000-86.png,0002-00-0000-07.png
00000014,34,1,1450363396708,1450363397193,920,429,0,0,0,1,0,1,1,0004-00-0000-34.png,0005-00-0000-19.png
00000014,35,0,1450363398200,1450363398659,901,410,0,0,0,3,4,1,7,0002-00-0000-14.png,0001-00-0000-09.png
00000014,36,1,1450363401730,1450363402164,952,410,0,0,0,3,2,1,5,0002-00-0000-94.png,0003-00-0001-35.png
00000014,37,1,1450363403101,1450363403619,946,446,0,0,0,4,0,4,4,0001-00-0000-95.png,0005-00-0000-29.png
00000014,38,1,1450363404628,1450363405105,364,475,0,0,0,0,2,2,2,0005-00-0001-49.png,0003-00-0001-88.png
00000014,39,1,1450363406122,1450363406637,878,548,0,0,0,2,1,1,3,0003-00-0000-18.png,0004-00-0001-12.png
00000014,40,0,1450363407631,1450363408179,925,437,0,0,0,2,4,2,6,0003-00-0000-43.png,0001-00-0000-54.png
00000014,41,1,1450363411086,1450363411584,950,404,0,0,0,4,2,2,6,0001-00-0000-78.png,0003-00-0000-60.png
00000014,42,1,1450363412889,1450363413387,922,498,0,0,0,2,1,1,3,0003-00-0001-75.png,0004-00-0001-65.png
00000014,43,1,1450363414500,1450363415027,868,511,0,0,0,4,0,4,4,0001-00-0000-62.png,0005-00-0001-36.png
00000014,44,1,1450363416051,1450363416505,435,455,0,0,0,0,3,3,3,0005-00-0001-45.png,0002-00-0001-82.png
00000014,45,0,1450363417544,1450363418452,356,434,0,0,0,4,3,1,7,0001-00-0001-32.png,0002-00-0001-28.png
00000014,46,1,1450363423854,1450363424260,977,397,0,0,0,4,1,3,5,0001-00-0001-77.png,0004-00-0001-65.png
00000014,47,1,1450363425184,1450363425690,401,431,0,0,0,0,4,4,4,0005-00-0001-42.png,0001-00-0000-65.png
00000014,48,1,1450363426875,1450363427409,901,502,0,0,0,3,1,2,4,0002-00-0001-78.png,0004-00-0000-11.png
00000014,49,1,1450363428425,1450363428944,867,537,0,0,0,3,2,1,5,0002-00-0000-20.png,0003-00-0000-79.png
00000014,50,0,1450363430058,1450363430592,928,416,0,0,0,1,3,2,4,0004-00-0001-76.png,0002-00-0000-49.png
00000014,51,0,1450363435065,1450363435469,931,487,0,0,0,2,3,1,5,0003-00-0001-27.png,0002-00-0001-62.png
00000014,52,1,1450363438614,1450363439066,899,482,0,0,0,1,0,1,1,0004-00-0000-94.png,0005-00-0000-27.png
00000014,53,1,1450363440073,1450363440491,376,476,0,0,0,0,1,1,1,0005-00-0000-22.png,0004-00-0001-88.png
00000014,54,1,1450363441508,1450363441928,398,482,0,0,0,1,2,1,3,0004-00-0000-21.png,0003-00-0001-90.png
00000014,55,1,1450363442854,1450363443346,376,455,0,0,0,0,2,2,2,0005-00-0001-16.png,0003-00-0001-31.png
00000014,56,0,1450363444792,1450363445239,862,410,0,0,0,2,4,2,6,0003-00-0000-17.png,0001-00-0001-52.png
00000014,57,1,1450363448171,1450363448662,916,495,0,0,0,3,0,3,3,0002-00-0000-69.png,0005-00-0000-23.png
00000014,58,0,1450363449649,1450363450184,926,423,0,0,0,3,4,1,7,0002-00-0000-77.png,0001-00-0001-82.png
00000014,59,0,1450363453159,1450363453595,976,427,0,0,0,1,4,3,5,0004-00-0000-03.png,0001-00-0001-20.png
00000014,60,1,1450363456920,1450363457348,950,405,0,0,0,2,0,2,2,0003-00-0001-85.png,0005-00-0000-31.png
00000014,61,0,1450363458391,1450363458893,890,516,0,0,0,1,4,3,5,0004-00-0000-45.png,0001-00-0001-63.png
00000014,62,1,1450363461805,1450363462191,912,476,0,0,0,4,0,4,4,0001-00-0001-37.png,0005-00-0001-62.png
00000014,63,1,1450363463178,1450363463704,877,517,0,0,0,3,1,2,4,0002-00-0000-30.png,0004-00-0001-56.png
00000014,64,1,1450363464770,1450363465268,920,437,0,0,0,1,0,1,1,0004-00-0000-13.png,0005-00-0000-46.png
00000014,65,1,1450363466366,1450363466782,401,502,0,0,0,1,2,1,3,0004-00-0001-77.png,0003-00-0001-25.png
00000014,66,1,1450363467830,1450363468253,386,475,0,0,0,0,1,1,1,0005-00-0001-03.png,0004-00-0001-20.png
00000014,67,1,1450363469411,1450363469878,343,433,0,0,0,0,3,3,3,0005-00-0001-27.png,0002-00-0000-61.png
00000014,68,0,1450363471000,1450363471016,504,426,0,0,0,2,1,1,3,0003-00-0001-44.png,0004-00-0001-62.png
00000014,69,1,1450363473866,1450363474439,925,488,0,0,0,4,1,3,5,0001-00-0001-50.png,0004-00-0001-88.png
00000014,70,1,1450363475481,1450363475991,902,441,0,0,0,4,3,1,7,0001-00-0001-71.png,0002-00-0001-07.png
00000014,71,1,1450363477062,1450363477589,925,413,0,0,0,3,0,3,3,0002-00-0001-75.png,0005-00-0001-59.png
00000014,72,1,1450363478753,1450363479251,919,435,0,0,0,3,2,1,5,0002-00-0000-84.png,0003-00-0000-31.png
00000014,73,0,1450363480374,1450363480864,887,475,0,0,0,3,4,1,7,0002-00-0001-92.png,0001-00-0000-39.png
00000014,74,0,1450363483799,1450363484231,938,398,0,0,0,2,3,1,5,0003-00-0001-15.png,0002-00-0000-59.png
00000014,75,0,1450363487216,1450363487613,913,369,0,0,0,1,3,2,4,0004-00-0000-99.png,0002-00-0000-12.png
00000014,76,1,1450363490629,1450363491069,434,394,0,0,0,0,2,2,2,0005-00-0000-17.png,0003-00-0001-63.png
00000014,77,0,1450363492095,1450363492573,924,431,0,0,0,2,4,2,6,0003-00-0000-86.png,0001-00-0001-82.png
00000014,78,1,1450363495617,1450363496018,976,410,0,0,0,4,2,2,6,0001-00-0001-39.png,0003-00-0001-48.png
00000014,79,1,1450363497061,1450363497478,437,482,0,0,0,0,4,4,4,0005-00-0001-65.png,0001-00-0001-61.png
00000014,80,1,1450363498529,1450363499018,923,432,0,0,0,2,0,2,2,0003-00-0001-78.png,0005-00-0001-66.png
00000014,81,1,1450363500156,1450363500668,877,520,0,0,0,3,1,2,4,0002-00-0000-63.png,0004-00-0000-97.png
00000014,82,1,1450363501781,1450363502271,873,535,0,0,0,2,0,2,2,0003-00-0000-24.png,0005-00-0000-15.png
00000014,83,1,1450363503371,1450363503835,369,480,0,0,0,0,1,1,1,0005-00-0001-41.png,0004-00-0000-62.png
00000014,84,1,1450363505149,1450363505577,925,410,0,0,0,1,0,1,1,0004-00-0000-66.png,0005-00-0000-31.png
00000014,85,1,1450363507033,1450363507492,453,488,0,0,0,0,3,3,3,0005-00-0000-54.png,0002-00-0000-18.png
00000014,86,1,1450363508634,1450363509101,453,462,0,0,0,1,4,3,5,0004-00-0000-13.png,0001-00-0000-66.png
00000014,87,0,1450363510225,1450363510840,413,478,0,0,0,4,1,3,5,0001-00-0000-57.png,0004-00-0001-80.png
00000014,88,1,1450363513784,1450363514227,927,435,0,0,0,3,2,1,5,0002-00-0000-17.png,0003-00-0000-54.png
00000014,89,1,1450363515311,1450363515783,900,436,0,0,0,2,1,1,3,0003-00-0001-80.png,0004-00-0001-49.png
00000014,90,1,1450363516878,1450363517364,449,438,0,0,0,1,2,1,3,0004-00-0001-89.png,0003-00-0000-15.png
00000014,91,0,1450363518465,1450363518927,888,462,0,0,0,2,4,2,6,0003-00-0001-29.png,0001-00-0000-08.png
00000014,92,1,1450363521843,1450363522307,433,411,0,0,0,2,3,1,5,0003-00-0001-45.png,0002-00-0000-21.png
00000014,93,0,1450363523425,1450363523947,877,521,0,0,0,3,4,1,7,0002-00-0001-63.png,0001-00-0000-27.png
00000014,94,0,1450363526864,1450363526904,514,373,0,0,0,4,3,1,7,0001-00-0000-15.png,0002-00-0000-57.png
00000014,95,1,1450363529808,1450363530354,899,491,0,0,0,3,0,3,3,0002-00-0000-27.png,0005-00-0000-67.png
00000014,96,1,1450363531360,1450363531852,406,544,0,0,0,1,3,2,4,0004-00-0001-71.png,0002-00-0000-23.png
00000014,97,1,1450363532889,1450363533390,877,444,0,0,0,4,0,4,4,0001-00-0001-50.png,0005-00-0000-82.png
00000014,98,1,1450363534526,1450363534950,394,477,0,0,0,0,2,2,2,0005-00-0000-66.png,0003-00-0000-87.png
00000014,99,0,1450363536164,1450363536604,427,449,0,0,0,4,2,2,6,0001-00-0001-97.png,0003-00-0000-24.png
00000014,100,1,1450363539482,1450363539890,424,366,0,0,0,0,4,4,4,0005-00-0000-89.png,0001-00-0000-58.png
00000014,101,1,1450363541016,1450363541529,389,446,0,0,0,0,1,1,1,0005-00-0000-30.png,0004-00-0000-06.png
00000014,102,1,1450363542661,1450363543123,377,460,0,0,0,0,3,3,3,0005-00-0001-88.png,0002-00-0000-10.png
00000014,103,0,1450363544428,1450363544963,413,554,0,0,0,4,1,3,5,0001-00-0001-81.png,0004-00-0001-48.png
00000014,104,1,1450363548003,1450363548440,440,443,0,0,0,0,2,2,2,0005-00-0001-24.png,0003-00-0000-35.png
00000014,105,0,1450363549509,1450363549993,881,542,0,0,0,1,2,1,3,0004-00-0000-70.png,0003-00-0001-00.png
00000014,106,1,1450363552917,1450363553326,942,419,0,0,0,1,0,1,1,0004-00-0001-51.png,0005-00-0000-07.png
00000014,107,1,1450363554387,1450363555379,883,392,0,0,0,4,0,4,4,0001-00-0000-05.png,0005-00-0000-99.png
00000014,108,0,1450363556434,1450363556962,882,538,0,0,0,1,3,2,4,0004-00-0001-46.png,0002-00-0000-79.png
00000014,109,1,1450363560258,1450363560667,899,490,0,0,0,3,0,3,3,0002-00-0000-74.png,0005-00-0001-63.png
00000014,110,1,1450363561677,1450363562170,874,516,0,0,0,4,2,2,6,0001-00-0001-25.png,0003-00-0001-33.png
00000014,111,0,1450363563198,1450363563668,878,427,0,0,0,1,4,3,5,0004-00-0001-46.png,0001-00-0001-61.png
00000014,112,0,1450363566535,1450363566979,923,409,0,0,0,2,3,1,5,0003-00-0000-50.png,0002-00-0001-32.png
00000014,113,1,1450363570128,1450363570202,504,488,0,0,0,3,4,1,7,0002-00-0000-19.png,0001-00-0000-36.png
00000014,114,1,1450363571181,1450363571733,922,443,0,0,0,2,1,1,3,0003-00-0000-46.png,0004-00-0000-44.png
00000014,115,1,1450363572842,1450363573347,924,437,0,0,0,2,0,2,2,0003-00-0000-87.png,0005-00-0000-47.png
00000014,116,1,1450363574433,1450363574927,924,413,0,0,0,3,2,1,5,0002-00-0001-61.png,0003-00-0001-19.png
00000014,117,0,1450363576050,1450363576555,858,535,0,0,0,2,4,2,6,0003-00-0001-15.png,0001-00-0001-20.png
00000014,118,0,1450363579657,1450363580820,926,513,0,0,0,0,4,4,4,0005-00-0000-05.png,0001-00-0001-29.png
00000014,119,1,1450363584047,1450363584455,892,483,0,0,0,4,3,1,7,0001-00-0001-90.png,0002-00-0001-14.png
00000014,120,1,1450363585505,1450363586005,919,416,0,0,0,3,1,2,4,0002-00-0001-38.png,0004-00-0001-51.png
00000014,121,0,1450363587015,1450363587526,862,528,0,0,0,2,3,1,5,0003-00-0000-06.png,0002-00-0001-35.png
00000014,122,1,1450363590611,1450363591045,926,410,0,0,0,3,2,1,5,0002-00-0001-71.png,0003-00-0001-00.png
00000014,123,1,1450363592078,1450363592571,865,384,0,0,0,4,3,1,7,0001-00-0001-70.png,0002-00-0001-01.png
00000014,124,0,1450363593633,1450363594167,926,449,0,0,0,3,4,1,7,0002-00-0000-43.png,0001-00-0001-46.png
00000014,125,0,1450363597189,1450363597643,901,494,0,0,0,1,3,2,4,0004-00-0001-95.png,0002-00-0000-09.png
00000014,126,0,1450363600756,1450363601177,953,414,0,0,0,0,4,4,4,0005-00-0001-70.png,0001-00-0001-41.png
00000014,127,1,1450363604324,1450363604774,912,529,0,0,0,2,1,1,3,0003-00-0001-38.png,0004-00-0001-67.png
00000014,128,1,1450363606243,1450363606724,864,501,0,0,0,2,0,2,2,0003-00-0000-51.png,0005-00-0000-53.png
00000014,129,1,1450363607851,1450363608286,427,475,0,0,0,0,3,3,3,0005-00-0001-31.png,0002-00-0000-21.png
00000014,130,1,1450363609513,1450363610057,888,462,0,0,0,4,0,4,4,0001-00-0000-69.png,0005-00-0001-71.png
00000014,131,1,1450363611261,1450363611719,877,521,0,0,0,4,1,3,5,0001-00-0001-89.png,0004-00-0000-05.png
00000014,132,1,1450363612924,1450363613351,419,560,0,0,0,0,1,1,1,0005-00-0001-03.png,0004-00-0001-63.png
00000014,133,1,1450363614604,1450363615044,358,418,0,0,0,1,2,1,3,0004-00-0000-43.png,0003-00-0001-75.png
00000014,134,1,1450363616207,1450363616746,870,524,0,0,0,4,2,2,6,0001-00-0001-91.png,0003-00-0001-87.png
00000014,135,0,1450363617896,1450363618367,381,565,0,0,0,1,0,1,1,0004-00-0000-18.png,0005-00-0001-47.png
00000014,136,0,1450363621339,1450363621756,861,528,0,0,0,2,4,2,6,0003-00-0000-63.png,0001-00-0001-28.png
00000014,137,1,1450363624722,1450363625197,901,513,0,0,0,3,1,2,4,0002-00-0001-17.png,0004-00-0000-28.png
00000014,138,1,1450363626364,1450363626847,900,424,0,0,0,3,0,3,3,0002-00-0001-36.png,0005-00-0001-15.png
00000014,139,1,1450363627983,1450363628443,370,433,0,0,0,1,4,3,5,0004-00-0000-92.png,0001-00-0001-19.png
00000014,140,1,1450363629711,1450363630203,440,549,0,0,0,0,2,2,2,0005-00-0000-90.png,0003-00-0000-98.png
00000014,141,0,1450363631340,1450363631841,860,552,0,0,0,1,2,1,3,0004-00-0000-70.png,0003-00-0000-42.png
00000014,142,0,1450363635131,1450363635613,948,470,0,0,0,2,4,2,6,0003-00-0000-03.png,0001-00-0000-46.png
00000014,143,0,1450363638734,1450363639116,951,422,0,0,0,2,3,1,5,0003-00-0001-15.png,0002-00-0000-91.png
00000014,144,0,1450363642136,1450363642604,976,407,0,0,0,3,4,1,7,0002-00-0001-91.png,0001-00-0000-06.png
00000014,145,1,1450363645662,1450363646058,976,410,0,0,0,3,0,3,3,0002-00-0000-34.png,0005-00-0001-04.png
00000014,146,1,1450363647164,1450363647642,367,403,0,0,0,0,1,1,1,0005-00-0000-91.png,0004-00-0000-15.png
00000014,147,1,1450363648792,1450363649215,406,463,0,0,0,0,4,4,4,0005-00-0001-90.png,0001-00-0001-90.png
00000014,148,1,1450363650345,1450363651121,931,496,0,0,0,4,3,1,7,0001-00-0000-32.png,0002-00-0000-06.png
00000014,149,0,1450363652287,1450363652299,478,488,0,0,0,3,1,2,4,0002-00-0000-33.png,0004-00-0000-77.png
00000014,150,1,1450363655161,1450363655565,891,492,0,0,0,2,0,2,2,0003-00-0000-63.png,0005-00-0000-66.png
00000014,151,1,1450363656724,1450363657159,388,473,0,0,0,0,3,3,3,0005-00-0000-46.png,0002-00-0001-74.png
00000014,152,1,1450363658377,1450363658850,898,455,0,0,0,4,0,4,4,0001-00-0000-42.png,0005-00-0001-15.png
00000014,153,1,1450363660037,1450363660551,927,410,0,0,0,3,2,1,5,0002-00-0000-58.png,0003-00-0000-86.png
00000014,154,1,1450363661677,1450363662266,860,421,0,0,0,4,1,3,5,0001-00-0001-56.png,0004-00-0001-82.png
00000014,155,1,1450363663368,1450363663871,877,522,0,0,0,4,2,2,6,0001-00-0001-66.png,0003-00-0000-14.png
00000014,156,0,1450363665034,1450363665522,927,434,0,0,0,0,2,2,2,0005-00-0000-53.png,0003-00-0001-77.png
00000014,157,0,1450363668693,1450363669080,900,514,0,0,0,1,3,2,4,0004-00-0000-90.png,0002-00-0000-30.png
00000014,158,1,1450363672112,1450363672551,952,438,0,0,0,1,0,1,1,0004-00-0000-47.png,0005-00-0001-66.png
00000014,159,1,1450363673542,1450363674023,886,528,0,0,0,2,1,1,3,0003-00-0000-22.png,0004-00-0000-92.png
00000014,160,1,1450363675048,1450363675574,367,392,0,0,0,1,4,3,5,0004-00-0001-91.png,0001-00-0000-33.png
00000014,161,0,1450363676734,1450363676761,504,462,0,0,0,1,0,1,1,0004-00-0001-29.png,0005-00-0000-51.png
00000014,162,1,1450363679694,1450363679754,523,417,0,0,0,0,1,1,1,0005-00-0001-61.png,0004-00-0000-49.png
00000014,163,1,1450363680857,1450363681363,946,447,0,0,0,3,0,3,3,0002-00-0001-08.png,0005-00-0001-01.png
00000014,164,1,1450363682476,1450363683001,901,435,0,0,0,2,1,1,3,0003-00-0001-14.png,0004-00-0001-53.png
00000014,165,0,1450363684126,1450363684636,897,462,0,0,0,1,4,3,5,0004-00-0001-68.png,0001-00-0000-52.png
00000014,166,1,1450363687491,1450363688055,975,404,0,0,0,3,1,2,4,0002-00-0000-09.png,0004-00-0001-74.png
00000014,167,1,1450363689154,1450363689653,900,423,0,0,0,3,2,1,5,0002-00-0001-89.png,0003-00-0000-50.png
00000014,168,1,1450363690753,1450363691193,376,463,0,0,0,0,4,4,4,0005-00-0001-27.png,0001-00-0000-14.png
00000014,169,1,1450363692429,1450363692933,350,422,0,0,0,0,2,2,2,0005-00-0001-10.png,0003-00-0001-10.png
00000014,170,1,1450363694079,1450363694618,868,538,0,0,0,4,3,1,7,0001-00-0001-42.png,0002-00-0000-25.png
00000014,171,1,1450363695782,1450363696301,900,438,0,0,0,4,1,3,5,0001-00-0001-83.png,0004-00-0000-51.png
00000014,172,0,1450363697461,1450363697990,869,551,0,0,0,2,4,2,6,0003-00-0001-64.png,0001-00-0000-90.png
00000014,173,1,1450363701037,1450363701442,904,375,0,0,0,2,0,2,2,0003-00-0000-24.png,0005-00-0001-06.png
00000014,174,0,1450363702580,1450363703095,928,402,0,0,0,2,3,1,5,0003-00-0000-81.png,0002-00-0001-38.png
00000014,175,1,1450363705943,1450363706453,401,526,0,0,0,1,3,2,4,0004-00-0000-02.png,0002-00-0001-85.png
00000014,176,0,1450363707534,1450363708064,939,449,0,0,0,3,4,1,7,0002-00-0000-62.png,0001-00-0001-71.png
00000014,177,1,1450363711104,1450363711560,958,448,0,0,0,4,2,2,6,0001-00-0000-21.png,0003-00-0001-49.png
00000014,178,1,1450363712627,1450363713149,382,420,0,0,0,1,2,1,3,0004-00-0000-23.png,0003-00-0000-36.png
00000014,179,1,1450363714296,1450363714811,874,514,0,0,0,4,0,4,4,0001-00-0001-26.png,0005-00-0000-04.png
00000014,180,1,1450363715906,1450363716381,376,499,0,0,0,0,3,3,3,0005-00-0001-39.png,0002-00-0000-60.png
00000014,181,1,1450363717537,1450363718073,899,470,0,0,0,3,0,3,3,0002-00-0001-69.png,0005-00-0001-50.png
00000014,182,1,1450363719147,1450363719579,381,544,0,0,0,0,1,1,1,0005-00-0001-43.png,0004-00-0001-42.png
00000014,183,1,1450363720727,1450363721258,870,541,0,0,0,4,3,1,7,0001-00-0001-60.png,0002-00-0001-40.png
00000014,184,0,1450363722356,1450363722846,900,463,0,0,0,2,3,1,5,0003-00-0000-24.png,0002-00-0001-22.png
00000014,185,1,1450363725940,1450363726373,961,421,0,0,0,3,1,2,4,0002-00-0000-78.png,0004-00-0000-96.png
00000014,186,1,1450363728116,1450363728504,376,410,0,0,0,0,3,3,3,0005-00-0000-88.png,0002-00-0001-94.png
00000014,187,1,1450363729571,1450363730021,401,447,0,0,0,0,4,4,4,0005-00-0000-66.png,0001-00-0000-51.png
00000014,188,1,1450363731212,1450363731845,922,471,0,0,0,1,0,1,1,0004-00-0001-68.png,0005-00-0001-75.png
00000014,189,1,1450363732935,1450363733351,434,446,0,0,0,1,2,1,3,0004-00-0001-67.png,0003-00-0000-54.png
00000014,190,1,1450363734540,1450363735023,900,436,0,0,0,2,0,2,2,0003-00-0000-46.png,0005-00-0001-12.png
00000014,191,1,1450363736120,1450363736640,887,450,0,0,0,3,2,1,5,0002-00-0001-79.png,0003-00-0001-91.png
00000014,192,1,1450363737757,1450363738233,478,528,0,0,0,1,4,3,5,0004-00-0000-62.png,0001-00-0000-87.png
00000014,193,1,1450363739353,1450363739974,388,389,0,0,0,3,4,1,7,0002-00-0000-05.png,0001-00-0001-16.png
00000014,194,1,1450363741115,1450363741730,350,475,0,0,0,1,3,2,4,0004-00-0000-05.png,0002-00-0000-91.png
00000014,195,1,1450363742877,1450363743460,912,477,0,0,0,4,0,4,4,0001-00-0000-09.png,0005-00-0001-11.png
00000014,196,1,1450363744544,1450363745042,895,446,0,0,0,2,1,1,3,0003-00-0000-41.png,0004-00-0001-88.png
00000014,197,0,1450363746176,1450363746574,471,505,0,0,0,4,2,2,6,0001-00-0000-57.png,0003-00-0000-73.png
00000014,198,0,1450363749802,1450363750196,919,442,0,0,0,0,2,2,2,0005-00-0000-76.png,0003-00-0001-35.png
00000014,199,1,1450363753193,1450363753648,977,475,0,0,0,4,1,3,5,0001-00-0001-51.png,0004-00-0000-50.png
00000014,200,0,1450363754642,1450363755156,874,515,0,0,0,2,4,2,6,0003-00-0000-73.png,0001-00-0000-03.png
00000014,201,0,1450363758200,1450363758676,925,437,0,0,0,0,4,4,4,0005-00-0000-89.png,0001-00-0000-82.png
00000014,202,1,1450363761777,1450363762213,966,475,0,0,0,4,3,1,7,0001-00-0001-87.png,0002-00-0000-90.png
00000014,203,1,1450363763345,1450363763844,872,534,0,0,0,2,1,1,3,0003-00-0001-53.png,0004-00-0000-70.png
00000014,204,1,1450363764979,1450363765473,868,548,0,0,0,3,0,3,3,0002-00-0001-78.png,0005-00-0001-40.png
00000014,205,0,1450363766554,1450363767054,875,463,0,0,0,3,4,1,7,0002-00-0000-80.png,0001-00-0000-60.png
00000014,206,0,1450363770046,1450363770573,958,473,0,0,0,1,3,2,4,0004-00-0001-32.png,0002-00-0001-90.png
00000014,207,1,1450363773602,1450363774090,900,502,0,0,0,3,1,2,4,0002-00-0000-13.png,0004-00-0001-01.png
00000014,208,0,1450363775243,1450363775855,325,423,0,0,0,1,0,1,1,0004-00-0000-65.png,0005-00-0000-24.png
00000014,209,0,1450363778702,1450363779195,898,392,0,0,0,0,1,1,1,0005-00-0001-97.png,0004-00-0000-23.png
00000014,210,0,1450363782057,1450363782454,929,531,0,0,0,2,4,2,6,0003-00-0000-54.png,0001-00-0000-40.png
00000014,211,1,1450363785510,1450363785935,977,463,0,0,0,4,0,4,4,0001-00-0000-85.png,0005-00-0001-48.png
00000014,212,1,1450363786923,1450363787397,926,462,0,0,0,3,2,1,5,0002-00-0000-00.png,0003-00-0001-53.png
00000014,213,1,1450363788553,1450363789120,895,550,0,0,0,2,0,2,2,0003-00-0001-17.png,0005-00-0001-22.png
00000014,214,1,1450363790233,1450363790782,458,540,0,0,0,1,4,3,5,0004-00-0001-94.png,0001-00-0000-80.png
00000014,215,1,1450363791982,1450363792413,401,436,0,0,0,1,2,1,3,0004-00-0001-27.png,0003-00-0000-50.png
00000014,216,1,1450363793581,1450363794072,900,438,0,0,0,4,1,3,5,0001-00-0000-98.png,0004-00-0000-71.png
00000014,217,0,1450363795351,1450363795886,912,535,0,0,0,2,3,1,5,0003-00-0000-56.png,0002-00-0000-91.png
00000014,218,1,1450363799391,1450363799807,952,476,0,0,0,4,2,2,6,0001-00-0000-77.png,0003-00-0001-85.png
00000014,219,1,1450363800833,1450363801284,401,464,0,0,0,0,3,3,3,0005-00-0000-04.png,0002-00-0000-29.png
00000014,220,1,1450363802438,1450363802879,419,479,0,0,0,0,2,2,2,0005-00-0001-61.png,0003-00-0001-68.png
00000014,221,1,1450363803997,1450363804492,900,462,0,0,0,2,0,2,2,0003-00-0000-77.png,0005-00-0001-67.png
00000014,222,1,1450363805619,1450363806123,894,457,0,0,0,4,0,4,4,0001-00-0001-12.png,0005-00-0000-95.png
00000014,223,0,1450363807328,1450363807364,504,475,0,0,0,3,0,3,3,0002-00-0000-03.png,0005-00-0001-98.png
00000014,224,1,1450363810204,1450363810729,415,410,0,0,0,1,3,2,4,0004-00-0001-99.png,0002-00-0000-44.png
00000014,225,0,1450363811760,1450363812249,900,437,0,0,0,1,2,1,3,0004-00-0001-43.png,0003-00-0001-77.png
00000014,226,1,1450363815177,1450363815643,388,396,0,0,0,0,2,2,2,0005-00-0000-91.png,0003-00-0001-43.png
00000014,227,0,1450363816730,1450363817184,459,439,0,0,0,4,1,3,5,0001-00-0001-97.png,0004-00-0001-82.png
00000014,228,1,1450363820155,1450363820555,964,424,0,0,0,2,1,1,3,0003-00-0001-55.png,0004-00-0001-41.png
00000014,229,1,1450363821588,1450363822491,464,423,0,0,0,3,4,1,7,0002-00-0000-44.png,0001-00-0001-82.png
00000014,230,0,1450363823677,1450363824140,395,453,0,0,0,4,2,2,6,0001-00-0001-06.png,0003-00-0000-03.png
00000014,231,1,1450363826978,1450363827491,889,527,0,0,0,3,2,1,5,0002-00-0001-36.png,0003-00-0001-24.png
00000014,232,0,1450363828515,1450363829049,874,515,0,0,0,1,4,3,5,0004-00-0001-65.png,0001-00-0001-88.png
00000014,233,0,1450363832282,1450363832694,973,419,0,0,0,2,4,2,6,0003-00-0001-99.png,0001-00-0001-37.png
00000014,234,0,1450363835547,1450363836094,419,397,0,0,0,3,1,2,4,0002-00-0000-88.png,0004-00-0000-14.png
00000014,235,0,1450363839020,1450363839465,942,461,0,0,0,0,3,3,3,0005-00-0000-01.png,0002-00-0001-13.png
00000014,236,0,1450363842305,1450363842770,940,397,0,0,0,0,4,4,4,0005-00-0000-43.png,0001-00-0001-42.png
00000014,237,0,1450363845905,1450363846294,953,462,0,0,0,2,3,1,5,0003-00-0000-79.png,0002-00-0000-87.png
00000014,238,1,1450363849366,1450363849818,907,501,0,0,0,1,0,1,1,0004-00-0000-14.png,0005-00-0001-93.png
00000014,239,1,1450363850928,1450363851382,350,410,0,0,0,0,1,1,1,0005-00-0000-52.png,0004-00-0000-96.png
00000014,240,1,1450363852419,1450363852927,869,543,0,0,0,4,3,1,7,0001-00-0001-91.png,0002-00-0000-23.png
00000014,241,0,1450363854042,1450363854684,876,544,0,0,0,0,4,4,4,0005-00-0001-06.png,0001-00-0000-98.png
00000014,242,0,1450363858050,1450363858516,913,528,0,0,0,0,1,1,1,0005-00-0001-26.png,0004-00-0000-30.png
00000014,243,0,1450363861602,1450363861972,949,430,0,0,0,2,4,2,6,0003-00-0001-82.png,0001-00-0000-90.png
00000014,244,0,1450363864976,1450363865385,977,435,0,0,0,1,2,1,3,0004-00-0000-33.png,0003-00-0001-99.png
00000014,245,1,1450363868275,1450363868774,415,424,0,0,0,0,2,2,2,0005-00-0001-85.png,0003-00-0000-68.png
00000014,246,1,1450363869770,1450363870276,875,514,0,0,0,4,3,1,7,0001-00-0000-71.png,0002-00-0000-65.png
00000014,247,1,1450363871379,1450363871900,921,446,0,0,0,4,1,3,5,0001-00-0000-31.png,0004-00-0000-49.png
00000014,248,1,1450363873011,1450363873515,898,435,0,0,0,2,1,1,3,0003-00-0000-54.png,0004-00-0001-26.png
00000014,249,1,1450363874605,1450363875122,870,524,0,0,0,4,0,4,4,0001-00-0001-67.png,0005-00-0001-89.png
00000014,250,0,1450363876191,1450363876602,471,506,0,0,0,3,2,1,5,0002-00-0000-06.png,0003-00-0000-94.png
00000014,251,0,1450363879646,1450363880055,927,528,0,0,0,2,3,1,5,0003-00-0001-83.png,0002-00-0001-12.png
00000014,252,1,1450363883101,1450363883703,977,448,0,0,0,4,2,2,6,0001-00-0000-86.png,0003-00-0000-24.png
00000014,253,1,1450363884702,1450363885604,330,435,0,0,0,0,3,3,3,0005-00-0000-15.png,0002-00-0001-30.png
00000014,254,1,1450363886675,1450363887356,401,443,0,0,0,1,3,2,4,0004-00-0000-77.png,0002-00-0001-82.png
00000014,255,0,1450363888422,1450363888991,376,420,0,0,0,3,1,2,4,0002-00-0001-51.png,0004-00-0001-18.png
00000014,256,0,1450363892053,1450363892466,955,480,0,0,0,3,4,1,7,0002-00-0001-75.png,0001-00-0001-80.png
00000014,257,1,1450363895368,1450363895894,951,411,0,0,0,1,0,1,1,0004-00-0001-27.png,0005-00-0000-13.png
00000014,258,1,1450363896921,1450363897400,401,462,0,0,0,1,4,3,5,0004-00-0000-68.png,0001-00-0000-17.png
00000014,259,1,1450363898442,1450363898916,923,459,0,0,0,2,0,2,2,0003-00-0001-26.png,0005-00-0001-47.png
00000014,260,1,1450363900032,1450363900548,888,560,0,0,0,3,0,3,3,0002-00-0000-44.png,0005-00-0001-46.png
00000014,261,0,1450363901582,1450363902139,879,480,0,0,0,2,3,1,5,0003-00-0000-26.png,0002-00-0001-52.png
00000014,262,1,1450363905039,1450363905472,947,445,0,0,0,1,0,1,1,0004-00-0001-73.png,0005-00-0000-88.png
00000014,263,0,1450363906597,1450363907074,895,525,0,0,0,3,4,1,7,0002-00-0001-11.png,0001-00-0000-27.png
00000014,264,0,1450363910426,1450363910809,952,450,0,0,0,1,2,1,3,0004-00-0000-46.png,0003-00-0001-98.png
00000014,265,0,1450363914522,1450363915013,414,475,0,0,0,3,2,1,5,0002-00-0001-18.png,0003-00-0001-44.png
00000014,266,1,1450363917844,1450363918308,913,488,0,0,0,3,0,3,3,0002-00-0001-00.png,0005-00-0000-15.png
00000014,267,1,1450363919312,1450363919799,859,393,0,0,0,2,1,1,3,0003-00-0001-85.png,0004-00-0001-35.png
00000014,268,1,1450363920874,1450363921270,376,474,0,0,0,0,1,1,1,0005-00-0000-88.png,0004-00-0001-68.png
00000014,269,0,1450363922571,1450363923156,900,489,0,0,0,0,3,3,3,0005-00-0001-05.png,0002-00-0001-98.png
00000014,270,1,1450363926385,1450363926790,971,456,0,0,0,2,0,2,2,0003-00-0001-73.png,0005-00-0001-76.png
00000014,271,1,1450363927873,1450363928322,325,449,0,0,0,0,4,4,4,0005-00-0000-66.png,0001-00-0000-52.png
00000014,272,1,1450363929344,1450363929846,899,475,0,0,0,4,3,1,7,0001-00-0000-84.png,0002-00-0001-44.png
00000014,273,1,1450363930969,1450363931482,903,470,0,0,0,3,1,2,4,0002-00-0000-46.png,0004-00-0000-13.png
00000014,274,0,1450363932520,1450363933183,925,462,0,0,0,2,4,2,6,0003-00-0000-19.png,0001-00-0001-70.png
00000014,275,0,1450363936275,1450363936758,954,441,0,0,0,1,4,3,5,0004-00-0001-55.png,0001-00-0001-23.png
00000014,276,1,1450363939797,1450363940329,904,533,0,0,0,4,0,4,4,0001-00-0001-67.png,0005-00-0000-34.png
00000014,277,1,1450363941334,1450363941847,386,462,0,0,0,1,3,2,4,0004-00-0000-64.png,0002-00-0000-78.png
00000014,278,0,1450363943004,1450363943677,504,422,0,0,0,4,2,2,6,0001-00-0000-96.png,0003-00-0000-20.png
00000014,279,1,1450363946729,1450363947251,954,463,0,0,0,4,1,3,5,0001-00-0000-77.png,0004-00-0001-42.png
00000014,280,1,1450363948387,1450363948895,315,415,0,0,0,0,2,2,2,0005-00-0001-87.png,0003-00-0001-77.png
00000014,281,1,1450363950015,1450363950540,901,462,0,0,0,4,3,1,7,0001-00-0000-05.png,0002-00-0000-64.png
00000014,282,1,1450363951709,1450363952123,407,566,0,0,0,0,1,1,1,0005-00-0001-27.png,0004-00-0001-14.png
00000014,283,1,1450363953288,1450363953786,898,469,0,0,0,3,0,3,3,0002-00-0000-64.png,0005-00-0001-70.png
00000014,284,1,1450363954934,1450363955432,888,449,0,0,0,4,2,2,6,0001-00-0001-57.png,0003-00-0001-20.png
00000014,285,1,1450363956596,1450363957024,337,451,0,0,0,1,2,1,3,0004-00-0000-11.png,0003-00-0001-60.png
00000014,286,1,1450363958210,1450363958637,376,447,0,0,0,1,3,2,4,0004-00-0000-90.png,0002-00-0000-73.png
00000014,287,1,1450363959837,1450363960362,902,468,0,0,0,4,0,4,4,0001-00-0000-01.png,0005-00-0000-23.png
00000014,288,1,1450363961453,1450363961994,926,437,0,0,0,3,1,2,4,0002-00-0000-37.png,0004-00-0000-92.png
00000014,289,0,1450363963129,1450363963686,899,438,0,0,0,2,4,2,6,0003-00-0001-70.png,0001-00-0001-28.png
00000014,290,0,1450363966597,1450363967064,342,438,0,0,0,3,2,1,5,0002-00-0001-51.png,0003-00-0000-15.png
00000014,291,1,1450363970212,1450363970782,462,381,0,0,0,0,4,4,4,0005-00-0000-58.png,0001-00-0001-25.png
00000014,292,1,1450363971856,1450363972347,874,554,0,0,0,2,0,2,2,0003-00-0000-87.png,0005-00-0001-20.png
00000014,293,1,1450363973392,1450363973819,376,474,0,0,0,1,4,3,5,0004-00-0000-94.png,0001-00-0001-41.png
00000014,294,1,1450363975070,1450363975621,350,399,0,0,0,0,2,2,2,0005-00-0001-95.png,0003-00-0001-52.png
00000014,295,1,1450363976906,1450363977381,418,548,0,0,0,0,3,3,3,0005-00-0001-56.png,0002-00-0000-83.png
00000014,296,1,1450363978581,1450363979090,880,454,0,0,0,2,1,1,3,0003-00-0000-34.png,0004-00-0001-81.png
00000014,297,1,1450363980395,1450363980459,504,560,0,0,0,3,4,1,7,0002-00-0000-85.png,0001-00-0000-72.png
00000014,298,1,1450363981688,1450363982216,876,544,0,0,0,4,1,3,5,0001-00-0000-07.png,0004-00-0000-43.png
00000014,299,0,1450363983496,1450363984023,466,410,0,0,0,1,0,1,1,0004-00-0000-28.png,0005-00-0000-89.png
00000014,300,1,1450363986878,1450363987765,476,411,0,0,0,2,3,1,5,0003-00-0001-20.png,0002-00-0001-67.png
00000014,301,1,1450363988923,1450363989427,925,464,0,0,0,3,2,1,5,0002-00-0000-40.png,0003-00-0000-85.png
00000014,302,1,1450363990522,1450363991025,912,480,0,0,0,4,0,4,4,0001-00-0000-62.png,0005-00-0001-20.png
00000014,303,1,1450363992253,1450363992734,862,554,0,0,0,2,1,1,3,0003-00-0001-81.png,0004-00-0000-34.png
00000014,304,1,1450363993901,1450363994538,867,453,0,0,0,4,3,1,7,0001-00-0001-85.png,0002-00-0001-78.png
00000014,305,0,1450363995707,1450363996169,875,464,0,0,0,2,3,1,5,0003-00-0000-81.png,0002-00-0001-19.png
00000014,306,1,1450363999155,1450363999630,949,458,0,0,0,4,1,3,5,0001-00-0000-05.png,0004-00-0000-26.png
00000014,307,1,1450364000751,1450364001286,887,526,0,0,0,3,0,3,3,0002-00-0000-98.png,0005-00-0000-01.png
00000014,308,1,1450364002379,1450364002883,904,453,0,0,0,1,0,1,1,0004-00-0001-55.png,0005-00-0000-87.png
00000014,309,0,1450364004140,1450364005137,939,424,0,0,0,1,3,2,4,0004-00-0000-44.png,0002-00-0000-53.png
00000014,310,1,1450364008440,1450364008846,927,384,0,0,0,3,1,2,4,0002-00-0000-50.png,0004-00-0000-03.png
00000014,311,0,1450364009852,1450364010315,387,462,0,0,0,4,2,2,6,0001-00-0000-34.png,0003-00-0001-60.png
00000014,312,0,1450364013347,1450364014133,957,468,0,0,0,3,4,1,7,0002-00-0001-21.png,0001-00-0000-75.png
00000014,313,0,1450364017173,1450364017609,911,529,0,0,0,0,1,1,1,0005-00-0001-80.png,0004-00-0001-78.png
00000014,314,1,1450364020507,1450364020999,926,410,0,0,0,2,0,2,2,0003-00-0001-98.png,0005-00-0001-69.png
00000014,315,1,1450364022159,1450364022688,415,526,0,0,0,0,2,2,2,0005-00-0000-57.png,0003-00-0001-12.png
00000014,316,1,1450364023816,1450364024282,350,450,0,0,0,0,3,3,3,0005-00-0001-07.png,0002-00-0000-22.png
00000014,317,1,1450364025396,1450364025876,345,463,0,0,0,0,4,4,4,0005-00-0001-44.png,0001-00-0000-56.png
00000014,318,0,1450364027193,1450364027719,898,456,0,0,0,1,4,3,5,0004-00-0001-33.png,0001-00-0001-79.png
00000014,319,1,1450364030762,1450364031240,397,413,0,0,0,1,2,1,3,0004-00-0000-85.png,0003-00-0001-17.png
00000014,320,0,1450364032314,1450364032835,863,553,0,0,0,2,4,2,6,0003-00-0000-40.png,0001-00-0000-51.png
00000014,321,1,1450364035748,1450364036391,376,438,0,0,0,2,4,2,6,0003-00-0000-02.png,0001-00-0001-24.png
00000014,322,1,1450364037520,1450364037960,376,451,0,0,0,1,3,2,4,0004-00-0000-68.png,0002-00-0000-98.png
00000014,323,1,1450364038996,1450364040334,357,419,0,0,0,0,4,4,4,0005-00-0000-50.png,0001-00-0000-66.png
00000014,324,1,1450364041374,1450364041908,907,457,0,0,0,1,0,1,1,0004-00-0001-64.png,0005-00-0001-86.png
00000014,325,1,1450364043065,1450364043585,898,456,0,0,0,2,1,1,3,0003-00-0000-29.png,0004-00-0001-51.png
00000014,326,1,1450364044708,1450364045138,376,476,0,0,0,1,2,1,3,0004-00-0000-43.png,0003-00-0001-50.png
00000014,327,1,1450364046217,1450364046719,877,467,0,0,0,4,0,4,4,0001-00-0001-46.png,0005-00-0001-83.png
00000014,328,1,1450364047827,1450364048316,363,468,0,0,0,1,4,3,5,0004-00-0000-22.png,0001-00-0001-40.png
00000014,329,1,1450364049495,1450364050008,900,463,0,0,0,2,0,2,2,0003-00-0000-92.png,0005-00-0001-37.png
00000014,330,1,1450364051244,1450364051814,905,480,0,0,0,3,1,2,4,0002-00-0001-34.png,0004-00-0001-52.png
00000014,331,1,1450364053039,1450364053481,445,480,0,0,0,0,1,1,1,0005-00-0000-75.png,0004-00-0000-18.png
00000014,332,0,1450364054733,1450364054741,504,488,0,0,0,3,2,1,5,0002-00-0001-68.png,0003-00-0000-12.png
00000014,333,0,1450364057653,1450364058181,913,397,0,0,0,2,3,1,5,0003-00-0001-36.png,0002-00-0001-08.png
00000014,334,1,1450364061041,1450364061501,935,447,0,0,0,4,1,3,5,0001-00-0000-07.png,0004-00-0001-25.png
00000014,335,1,1450364062496,1450364063332,367,494,0,0,0,0,2,2,2,0005-00-0001-47.png,0003-00-0001-22.png
00000014,336,0,1450364064484,1450364064992,899,533,0,0,0,3,4,1,7,0002-00-0001-73.png,0001-00-0001-95.png
00000014,337,1,1450364067929,1450364068383,952,450,0,0,0,3,0,3,3,0002-00-0001-09.png,0005-00-0001-34.png
00000014,338,0,1450364069464,1450364069913,413,491,0,0,0,4,3,1,7,0001-00-0001-41.png,0002-00-0000-10.png
00000014,339,1,1450364072814,1450364073275,928,438,0,0,0,4,2,2,6,0001-00-0000-95.png,0003-00-0000-84.png
00000014,340,1,1450364074283,1450364075707,436,414,0,0,0,0,3,3,3,0005-00-0000-94.png,0002-00-0001-46.png
00000014,341,1,1450364076888,1450364077335,427,450,0,0,0,0,4,4,4,0005-00-0001-40.png,0001-00-0000-16.png
00000014,342,0,1450364078479,1450364079050,926,475,0,0,0,1,2,1,3,0004-00-0001-73.png,0003-00-0001-88.png
00000014,343,0,1450364082164,1450364082631,976,485,0,0,0,0,3,3,3,0005-00-0001-02.png,0002-00-0000-92.png
00000014,344,1,1450364085540,1450364086190,951,436,0,0,0,3,2,1,5,0002-00-0000-49.png,0003-00-0001-00.png
00000014,345,0,1450364087241,1450364087767,887,554,0,0,0,1,3,2,4,0004-00-0000-82.png,0002-00-0001-30.png
00000014,346,0,1450364090599,1450364090639,520,363,0,0,0,4,3,1,7,0001-00-0000-48.png,0002-00-0001-89.png
00000014,347,1,1450364093500,1450364093954,959,471,0,0,0,1,0,1,1,0004-00-0001-03.png,0005-00-0001-37.png
00000014,348,1,1450364095012,1450364095506,363,425,0,0,0,1,4,3,5,0004-00-0001-58.png,0001-00-0001-15.png
00000014,349,0,1450364096666,1450364096702,504,462,0,0,0,3,1,2,4,0002-00-0000-50.png,0004-00-0000-71.png
00000014,350,0,1450364099687,1450364100140,977,449,0,0,0,0,1,1,1,0005-00-0001-69.png,0004-00-0001-41.png
00000014,351,1,1450364103123,1450364103583,874,553,0,0,0,2,0,2,2,0003-00-0000-96.png,0005-00-0000-24.png
00000014,352,1,1450364104565,1450364105070,862,423,0,0,0,4,1,3,5,0001-00-0001-58.png,0004-00-0000-95.png
00000014,353,0,1450364106114,1450364106640,869,533,0,0,0,2,3,1,5,0003-00-0000-49.png,0002-00-0001-91.png
00000014,354,0,1450364110018,1450364110445,970,451,0,0,0,0,2,2,2,0005-00-0000-77.png,0003-00-0001-72.png
00000014,355,0,1450364113376,1450364113791,978,436,0,0,0,3,4,1,7,0002-00-0001-58.png,0001-00-0001-72.png
00000014,356,1,1450364116632,1450364117217,900,476,0,0,0,3,0,3,3,0002-00-0001-55.png,0005-00-0001-99.png
00000014,357,1,1450364118258,1450364118828,924,483,0,0,0,4,2,2,6,0001-00-0000-97.png,0003-00-0001-96.png
00000014,358,1,1450364119958,1450364120629,896,444,0,0,0,2,1,1,3,0003-00-0000-50.png,0004-00-0000-30.png
00000014,359,1,1450364121737,1450364122247,861,524,0,0,0,4,0,4,4,0001-00-0001-17.png,0005-00-0000-57.png
00000014,360,0,1450364123306,1450364123798,901,462,0,0,0,2,4,2,6,0003-00-0001-70.png,0001-00-0001-84.png
00000014,361,0,1450364126641,1450364127204,924,414,0,0,0,1,4,3,5,0004-00-0001-17.png,0001-00-0000-28.png
00000014,362,1,1450364130059,1450364130530,388,383,0,0,0,1,3,2,4,0004-00-0000-57.png,0002-00-0001-17.png
00000014,363,0,1450364131623,1450364132093,436,470,0,0,0,3,1,2,4,0002-00-0001-86.png,0004-00-0001-08.png
00000014,364,0,1450364135004,1450364135498,950,429,0,0,0,2,3,1,5,0003-00-0001-15.png,0002-00-0000-05.png
00000014,365,1,1450364138472,1450364138881,959,447,0,0,0,3,0,3,3,0002-00-0001-86.png,0005-00-0000-68.png
00000014,366,1,1450364139911,1450364140438,394,428,0,0,0,0,3,3,3,0005-00-0000-65.png,0002-00-0001-14.png
00000014,367,1,1450364141454,1450364141961,922,420,0,0,0,4,0,4,4,0001-00-0001-23.png,0005-00-0000-86.png
00000014,368,0,1450364143125,1450364143571,896,446,0,0,0,2,4,2,6,0003-00-0000-60.png,0001-00-0000-07.png
00000014,369,1,1450364146580,1450364147018,952,435,0,0,0,2,0,2,2,0003-00-0000-82.png,0005-00-0000-87.png
00000014,370,1,1450364148113,1450364148587,874,539,0,0,0,3,2,1,5,0002-00-0001-30.png,0003-00-0000-67.png
00000014,371,1,1450364149762,1450364150218,387,501,0,0,0,3,4,1,7,0002-00-0001-31.png,0001-00-0001-39.png
00000014,372,1,1450364151463,1450364151940,900,489,0,0,0,4,3,1,7,0001-00-0001-40.png,0002-00-0001-69.png
00000014,373,0,1450364153062,1450364153580,914,448,0,0,0,0,1,1,1,0005-00-0001-67.png,0004-00-0000-12.png
00000014,374,1,1450364156668,1450364157120,895,550,0,0,0,4,2,2,6,0001-00-0001-42.png,0003-00-0000-14.png
00000014,375,1,1450364158211,1450364158652,896,470,0,0,0,1,0,1,1,0004-00-0001-74.png,0005-00-0000-75.png
00000014,376,1,1450364159820,1450364160319,919,469,0,0,0,2,1,1,3,0003-00-0001-87.png,0004-00-0001-98.png
00000014,377,1,1450364161484,1450364161912,438,474,0,0,0,0,2,2,2,0005-00-0001-23.png,0003-00-0000-52.png
00000014,378,0,1450364163163,1450364163207,504,488,0,0,0,4,1,3,5,0001-00-0000-81.png,0004-00-0000-88.png
00000014,379,0,1450364166200,1450364166811,925,542,0,0,0,1,2,1,3,0004-00-0001-29.png,0003-00-0000-52.png
00000014,380,1,1450364169760,1450364170211,434,420,0,0,0,0,4,4,4,0005-00-0001-76.png,0001-00-0000-00.png
00000014,381,1,1450364171313,1450364171732,461,470,0,0,0,1,4,3,5,0004-00-0000-26.png,0001-00-0001-75.png
00000014,382,0,1450364172943,1450364173411,899,438,0,0,0,2,3,1,5,0003-00-0001-02.png,0002-00-0001-57.png
00000014,383,1,1450364176531,1450364176967,932,526,0,0,0,3,2,1,5,0002-00-0000-38.png,0003-00-0000-82.png
00000014,384,0,1450364177981,1450364178442,923,462,0,0,0,1,2,1,3,0004-00-0001-18.png,0003-00-0000-05.png
00000014,385,1,1450364181335,1450364181778,395,408,0,0,0,0,2,2,2,0005-00-0001-72.png,0003-00-0001-26.png
00000014,386,1,1450364182862,1450364183318,401,463,0,0,0,1,3,2,4,0004-00-0001-37.png,0002-00-0001-37.png
00000014,387,0,1450364184623,1450364185121,862,554,0,0,0,2,4,2,6,0003-00-0000-62.png,0001-00-0001-97.png
00000014,388,1,1450364188418,1450364188841,900,554,0,0,0,4,2,2,6,0001-00-0001-57.png,0003-00-0001-09.png
00000014,389,1,1450364189889,1450364190368,861,528,0,0,0,4,0,4,4,0001-00-0001-62.png,0005-00-0000-41.png
00000014,390,1,1450364191466,1450364192052,937,476,0,0,0,4,1,3,5,0001-00-0000-06.png,0004-00-0000-57.png
00000014,391,1,1450364193120,1450364193651,904,479,0,0,0,1,0,1,1,0004-00-0001-76.png,0005-00-0000-39.png
00000014,392,1,1450364194836,1450364195288,401,474,0,0,0,0,4,4,4,0005-00-0001-51.png,0001-00-0000-76.png
00000014,393,0,1450364196512,1450364196926,463,450,0,0,0,3,0,3,3,0002-00-0001-15.png,0005-00-0001-73.png
00000014,394,1,1450364199777,1450364200280,939,449,0,0,0,3,1,2,4,0002-00-0000-42.png,0004-00-0001-60.png
00000014,395,1,1450364201336,1450364201954,442,527,0,0,0,3,4,1,7,0002-00-0001-70.png,0001-00-0001-38.png
00000014,396,1,1450364203114,1450364203594,420,453,0,0,0,0,3,3,3,0005-00-0000-62.png,0002-00-0001-39.png
00000014,397,1,1450364204795,1450364205310,876,501,0,0,0,4,3,1,7,0001-00-0001-65.png,0002-00-0001-71.png
00000014,398,1,1450364206564,1450364207018,371,439,0,0,0,0,1,1,1,0005-00-0000-92.png,0004-00-0000-17.png
00000014,399,1,1450364208204,1450364208655,875,463,0,0,0,2,1,1,3,0003-00-0000-73.png,0004-00-0001-62.png
00000014,400,1,1450364210025,1450364210536,894,429,0,0,0,2,0,2,2,0003-00-0000-21.png,0005-00-0001-29.png
00000014,401,0,1450364211808,1450364212298,912,443,0,0,0,2,4,2,6,0003-00-0000-52.png,0001-00-0000-27.png
00000014,402,1,1450364215287,1450364215727,951,437,0,0,0,3,1,2,4,0002-00-0000-77.png,0004-00-0001-30.png
00000014,403,1,1450364216837,1450364217348,388,427,0,0,0,1,3,2,4,0004-00-0000-93.png,0002-00-0001-65.png
00000014,404,1,1450364218610,1450364219231,901,476,0,0,0,4,1,3,5,0001-00-0000-67.png,0004-00-0000-14.png
00000014,405,0,1450364220385,1450364220802,465,475,0,0,0,4,2,2,6,0001-00-0001-08.png,0003-00-0000-26.png
00000014,406,1,1450364223697,1450364224199,919,451,0,0,0,1,0,1,1,0004-00-0000-07.png,0005-00-0001-49.png
00000014,407,1,1450364225214,1450364225689,401,501,0,0,0,0,2,2,2,0005-00-0001-57.png,0003-00-0001-51.png
00000014,408,0,1450364226790,1450364227267,376,410,0,0,0,3,2,1,5,0002-00-0001-47.png,0003-00-0001-94.png
00000014,409,0,1450364230473,1450364231002,972,493,0,0,0,3,4,1,7,0002-00-0000-70.png,0001-00-0001-33.png
00000014,410,0,1450364234117,1450364234605,977,436,0,0,0,0,1,1,1,0005-00-0000-18.png,0004-00-0000-55.png
00000014,411,0,1450364237638,1450364238042,977,463,0,0,0,0,3,3,3,0005-00-0000-77.png,0002-00-0000-61.png
00000014,412,1,1450364241447,1450364241902,904,533,0,0,0,2,0,2,2,0003-00-0001-12.png,0005-00-0001-43.png
00000014,413,1,1450364243011,1450364243488,874,515,0,0,0,3,0,3,3,0002-00-0001-40.png,0005-00-0001-63.png
00000014,414,1,1450364244588,1450364245133,898,456,0,0,0,4,3,1,7,0001-00-0000-08.png,0002-00-0001-94.png
00000014,415,1,1450364246333,1450364246813,898,440,0,0,0,4,0,4,4,0001-00-0001-70.png,0005-00-0000-18.png
00000014,416,1,1450364247966,1450364248441,876,519,0,0,0,2,1,1,3,0003-00-0001-25.png,0004-00-0000-31.png
00000014,417,1,1450364249536,1450364250178,410,564,0,0,0,1,2,1,3,0004-00-0001-92.png,0003-00-0001-21.png
00000014,418,0,1450364251344,1450364251881,900,462,0,0,0,2,3,1,5,0003-00-0000-39.png,0002-00-0000-84.png
00000014,419,1,1450364254751,1450364255259,446,506,0,0,0,0,4,4,4,0005-00-0001-53.png,0001-00-0001-53.png
00000014,420,1,1450364256417,1450364256948,422,539,0,0,0,1,4,3,5,0004-00-0000-10.png,0001-00-0001-75.png
00000014,421,0,1450364258186,1450364258646,868,538,0,0,0,2,4,2,6,0003-00-0000-86.png,0001-00-0000-27.png
00000014,422,1,1450364261718,1450364262166,952,437,0,0,0,4,2,2,6,0001-00-0000-73.png,0003-00-0000-74.png
00000014,423,0,1450364264108,1450364264520,933,474,0,0,0,1,2,1,3,0004-00-0000-75.png,0003-00-0001-48.png
00000014,424,1,1450364267560,1450364267964,948,471,0,0,0,3,1,2,4,0002-00-0000-13.png,0004-00-0000-57.png
00000014,425,1,1450364268996,1450364269425,376,452,0,0,0,0,4,4,4,0005-00-0000-41.png,0001-00-0001-11.png
00000014,426,1,1450364270567,1450364271008,418,479,0,0,0,1,3,2,4,0004-00-0000-46.png,0002-00-0000-76.png
00000014,427,1,1450364272222,1450364272772,863,554,0,0,0,4,1,3,5,0001-00-0001-69.png,0004-00-0001-15.png
00000014,428,1,1450364273932,1450364274329,458,473,0,0,0,0,2,2,2,0005-00-0000-95.png,0003-00-0000-88.png
00000014,429,0,1450364275616,1450364276604,359,417,0,0,0,4,3,1,7,0001-00-0000-06.png,0002-00-0001-60.png
00000014,430,0,1450364279877,1450364280304,952,435,0,0,0,2,3,1,5,0003-00-0000-47.png,0002-00-0000-93.png
00000014,431,1,1450364283345,1450364283957,925,501,0,0,0,4,0,4,4,0001-00-0000-68.png,0005-00-0000-59.png
00000014,432,0,1450364284966,1450364285460,911,473,0,0,0,3,4,1,7,0002-00-0001-49.png,0001-00-0000-67.png
00000014,433,1,1450364288860,1450364289378,447,460,0,0,0,1,4,3,5,0004-00-0000-69.png,0001-00-0001-16.png
00000014,434,1,1450364290477,1450364290894,923,457,0,0,0,2,0,2,2,0003-00-0000-41.png,0005-00-0001-01.png
00000014,435,1,1450364291967,1450364292467,899,490,0,0,0,1,0,1,1,0004-00-0001-53.png,0005-00-0001-65.png
00000014,436,1,1450364293624,1450364293640,510,467,0,0,0,0,1,1,1,0005-00-0001-12.png,0004-00-0001-52.png
00000014,437,1,1450364294978,1450364295497,900,452,0,0,0,2,1,1,3,0003-00-0000-76.png,0004-00-0001-30.png
00000014,438,1,1450364296634,1450364297157,899,463,0,0,0,3,0,3,3,0002-00-0000-66.png,0005-00-0001-61.png
00000014,439,1,1450364298317,1450364298734,469,480,0,0,0,0,3,3,3,0005-00-0001-09.png,0002-00-0001-67.png
00000014,440,0,1450364300048,1450364300520,407,462,0,0,0,3,2,1,5,0002-00-0000-59.png,0003-00-0001-15.png
00000014,441,0,1450364303485,1450364304028,947,470,0,0,0,1,2,1,3,0004-00-0000-63.png,0003-00-0000-14.png
00000014,442,0,1450364306901,1450364307356,444,428,0,0,0,4,2,2,6,0001-00-0000-40.png,0003-00-0001-72.png
00000014,443,1,1450364310583,1450364311139,928,542,0,0,0,4,3,1,7,0001-00-0001-97.png,0002-00-0000-39.png
00000014,444,0,1450364312300,1450364312770,401,540,0,0,0,1,0,1,1,0004-00-0001-58.png,0005-00-0001-07.png
00000014,445,1,1450364315896,1450364316369,435,420,0,0,0,1,4,3,5,0004-00-0001-06.png,0001-00-0001-51.png
00000014,446,1,1450364317540,1450364318072,400,402,0,0,0,1,3,2,4,0004-00-0001-09.png,0002-00-0000-62.png
00000014,447,0,1450364319268,1450364320181,368,425,0,0,0,4,0,4,4,0001-00-0001-55.png,0005-00-0001-62.png
00000014,448,0,1450364324979,1450364325452,885,549,0,0,0,3,4,1,7,0002-00-0001-68.png,0001-00-0000-15.png
00000014,449,1,1450364328529,1450364329858,896,418,0,0,0,3,0,3,3,0002-00-0001-94.png,0005-00-0000-74.png
00000014,450,1,1450364330915,1450364331369,350,450,0,0,0,0,2,2,2,0005-00-0001-23.png,0003-00-0000-15.png
00000014,451,1,1450364332577,1450364333142,867,546,0,0,0,3,1,2,4,0002-00-0001-10.png,0004-00-0001-69.png
00000014,452,1,1450364334267,1450364334738,900,462,0,0,0,2,1,1,3,0003-00-0001-63.png,0004-00-0001-19.png
00000014,453,1,1450364335866,1450364336300,442,495,0,0,0,0,4,4,4,0005-00-0001-45.png,0001-00-0000-93.png
00000014,454,0,1450364337567,1450364338087,883,469,0,0,0,2,4,2,6,0003-00-0000-75.png,0001-00-0000-38.png
00000014,455,0,1450364341858,1450364342276,970,451,0,0,0,0,1,1,1,0005-00-0001-57.png,0004-00-0001-04.png
00000014,456,1,1450364345453,1450364346014,427,397,0,0,0,0,3,3,3,0005-00-0000-04.png,0002-00-0001-44.png
00000014,457,1,1450364347096,1450364347554,902,467,0,0,0,4,1,3,5,0001-00-0000-35.png,0004-00-0000-58.png
00000014,458,1,1450364348589,1450364349071,899,465,0,0,0,2,0,2,2,0003-00-0000-43.png,0005-00-0001-69.png
00000014,459,0,1450364350148,1450364350621,900,450,0,0,0,2,3,1,5,0003-00-0000-67.png,0002-00-0000-67.png
00000014,460,1,1450364353655,1450364354131,975,431,0,0,0,3,2,1,5,0002-00-0000-18.png,0003-00-0000-42.png
00000014,461,1,1450364355296,1450364355751,350,474,0,0,0,0,2,2,2,0005-00-0000-62.png,0003-00-0001-31.png
00000014,462,1,1450364356935,1450364357424,921,467,0,0,0,2,0,2,2,0003-00-0001-87.png,0005-00-0000-39.png
00000014,463,1,1450364358526,1450364359007,871,470,0,0,0,4,3,1,7,0001-00-0000-33.png,0002-00-0000-28.png
00000014,464,1,1450364360256,1450364360749,888,475,0,0,0,2,1,1,3,0003-00-0000-84.png,0004-00-0001-70.png
00000014,465,0,1450364361826,1450364362364,350,395,0,0,0,1,0,1,1,0004-00-0000-98.png,0005-00-0000-12.png
00000014,466,0,1450364365273,1450364365792,952,461,0,0,0,1,4,3,5,0004-00-0001-39.png,0001-00-0000-27.png
00000014,467,1,1450364368840,1450364369305,906,417,0,0,0,4,0,4,4,0001-00-0001-67.png,0005-00-0000-05.png
00000014,468,1,1450364370323,1450364370865,871,550,0,0,0,3,0,3,3,0002-00-0000-01.png,0005-00-0001-35.png
00000014,469,0,1450364371923,1450364372444,889,475,0,0,0,1,3,2,4,0004-00-0000-34.png,0002-00-0001-80.png
00000014,470,1,1450364375353,1450364375955,968,440,0,0,0,3,1,2,4,0002-00-0001-23.png,0004-00-0001-97.png
00000014,471,0,1450364377063,1450364377577,913,462,0,0,0,2,4,2,6,0003-00-0000-73.png,0001-00-0000-88.png
00000014,472,0,1450364380771,1450364380807,519,444,0,0,0,4,1,3,5,0001-00-0001-06.png,0004-00-0000-65.png
00000014,473,0,1450364383732,1450364384186,976,438,0,0,0,0,1,1,1,0005-00-0001-37.png,0004-00-0000-90.png
00000014,474,0,1450364387368,1450364387855,934,525,0,0,0,0,4,4,4,0005-00-0001-03.png,0001-00-0000-53.png
00000014,475,0,1450364390856,1450364391306,965,449,0,0,0,3,4,1,7,0002-00-0000-64.png,0001-00-0001-31.png
00000014,476,1,1450364394154,1450364394755,328,392,0,0,0,0,3,3,3,0005-00-0000-83.png,0002-00-0000-58.png
00000014,477,1,1450364395799,1450364396313,857,541,0,0,0,4,2,2,6,0001-00-0000-62.png,0003-00-0001-57.png
00000014,478,0,1450364397388,1450364397879,878,453,0,0,0,2,3,1,5,0003-00-0001-42.png,0002-00-0001-75.png
00000014,479,1,1450364401668,1450364402116,900,541,0,0,0,3,2,1,5,0002-00-0001-94.png,0003-00-0001-05.png
00000014,480,0,1450364403133,1450364403673,912,450,0,0,0,1,2,1,3,0004-00-0001-61.png,0003-00-0001-49.png
00000014,481,0,1450364406677,1450364407146,952,489,0,0,0,2,4,2,6,0003-00-0001-79.png,0001-00-0001-58.png
00000014,482,1,1450364410544,1450364410985,376,384,0,0,0,1,2,1,3,0004-00-0001-82.png,0003-00-0001-72.png
00000014,483,1,1450364411995,1450364412508,901,461,0,0,0,1,0,1,1,0004-00-0001-73.png,0005-00-0001-29.png
00000014,484,1,1450364413677,1450364414137,427,488,0,0,0,0,2,2,2,0005-00-0001-67.png,0003-00-0000-50.png
00000014,485,0,1450364415315,1450364416328,413,543,0,0,0,4,0,4,4,0001-00-0000-63.png,0005-00-0001-39.png
00000014,486,0,1450364422263,1450364422304,506,486,0,0,0,4,3,1,7,0001-00-0001-90.png,0002-00-0001-00.png
00000014,487,1,1450364428173,1450364428674,939,478,0,0,0,3,2,1,5,0002-00-0000-33.png,0003-00-0001-83.png
00000014,488,1,1450364429775,1450364430213,443,494,0,0,0,0,4,4,4,0005-00-0001-70.png,0001-00-0000-90.png
00000014,489,1,1450364431337,1450364431892,862,554,0,0,0,3,0,3,3,0002-00-0000-55.png,0005-00-0000-11.png
00000014,490,1,1450364432976,1450364433423,363,501,0,0,0,1,4,3,5,0004-00-0000-04.png,0001-00-0001-06.png
00000014,491,1,1450364434552,1450364434585,513,504,0,0,0,0,1,1,1,0005-00-0001-02.png,0004-00-0001-31.png
00000014,492,0,1450364435816,1450364436363,865,561,0,0,0,1,3,2,4,0004-00-0001-42.png,0002-00-0001-77.png
00000014,493,1,1450364439656,1450364440129,957,504,0,0,0,2,0,2,2,0003-00-0001-48.png,0005-00-0000-38.png
00000014,494,0,1450364441145,1450364441644,888,462,0,0,0,3,4,1,7,0002-00-0001-84.png,0001-00-0000-49.png
00000014,495,1,1450364444634,1450364445049,939,462,0,0,0,3,1,2,4,0002-00-0000-65.png,0004-00-0001-64.png
00000014,496,1,1450364446560,1450364446983,376,448,0,0,0,0,3,3,3,0005-00-0001-83.png,0002-00-0000-80.png
00000014,497,1,1450364448096,1450364448652,869,550,0,0,0,2,1,1,3,0003-00-0001-95.png,0004-00-0000-24.png
00000014,498,1,1450364449912,1450364450446,875,449,0,0,0,4,2,2,6,0001-00-0000-61.png,0003-00-0000-49.png
00000014,499,0,1450364451548,1450364451649,505,502,0,0,0,4,1,3,5,0001-00-0001-79.png,0004-00-0000-97.png
00000014,500,0,1450364454992,1450364455431,895,442,0,0,0,2,3,1,5,0003-00-0000-06.png,0002-00-0001-44.png
00000014,501,1,1450364458532,1450364459154,928,544,0,0,0,3,0,3,3,0002-00-0001-55.png,0005-00-0000-26.png
00000014,502,0,1450364460695,1450364461231,429,494,0,0,0,3,2,1,5,0002-00-0000-96.png,0003-00-0000-60.png
00000014,503,1,1450364469168,1450364470194,987,503,0,0,0,2,1,1,3,0003-00-0000-96.png,0004-00-0000-96.png
00000014,504,1,1450364471246,1450364471745,923,457,0,0,0,3,1,2,4,0002-00-0001-39.png,0004-00-0001-80.png
00000014,505,0,1450364473234,1450364473695,915,500,0,0,0,0,3,3,3,0005-00-0001-15.png,0002-00-0001-08.png
00000014,506,1,1450364477173,1450364477598,921,539,0,0,0,4,0,4,4,0001-00-0001-14.png,0005-00-0000-46.png
00000014,507,0,1450364478633,1450364479168,954,519,0,0,0,1,4,3,5,0004-00-0000-49.png,0001-00-0000-96.png
00000014,508,0,1450364482617,1450364483080,938,541,0,0,0,3,4,1,7,0002-00-0000-88.png,0001-00-0000-57.png
00000014,509,1,1450364486116,1450364486597,934,525,0,0,0,4,2,2,6,0001-00-0001-26.png,0003-00-0001-31.png
00000014,510,1,1450364487829,1450364488268,390,528,0,0,0,0,4,4,4,0005-00-0001-86.png,0001-00-0000-42.png
00000014,511,1,1450364489282,1450364489858,892,506,0,0,0,1,0,1,1,0004-00-0001-50.png,0005-00-0001-81.png
00000014,512,1,1450364490917,1450364491393,912,472,0,0,0,2,0,2,2,0003-00-0001-73.png,0005-00-0000-36.png
00000014,513,0,1450364492559,1450364493056,875,555,0,0,0,2,3,1,5,0003-00-0001-67.png,0002-00-0000-90.png
00000014,514,1,1450364496157,1450364496672,393,390,0,0,0,1,3,2,4,0004-00-0001-36.png,0002-00-0001-25.png
00000014,515,0,1450364498133,1450364498669,908,473,0,0,0,1,2,1,3,0004-00-0001-33.png,0003-00-0000-75.png
00000014,516,1,1450364502384,1450364502791,926,421,0,0,0,4,1,3,5,0001-00-0001-29.png,0004-00-0001-27.png
00000014,517,1,1450364503829,1450364504268,392,476,0,0,0,0,2,2,2,0005-00-0001-42.png,0003-00-0001-58.png
00000014,518,1,1450364505407,1450364505893,923,457,0,0,0,4,3,1,7,0001-00-0001-49.png,0002-00-0000-91.png
00000014,519,0,1450364507020,1450364507536,910,465,0,0,0,2,4,2,6,0003-00-0000-17.png,0001-00-0000-81.png
00000014,520,1,1450364510555,1450364510575,514,410,0,0,0,0,1,1,1,0005-00-0000-95.png,0004-00-0001-02.png
00000014,521,1,1450364511777,1450364512326,901,463,0,0,0,3,1,2,4,0002-00-0001-59.png,0004-00-0001-84.png
00000014,522,0,1450364513383,1450364513882,876,468,0,0,0,2,3,1,5,0003-00-0000-84.png,0002-00-0000-02.png
00000014,523,1,1450364516875,1450364517305,947,445,0,0,0,4,3,1,7,0001-00-0000-72.png,0002-00-0001-21.png
00000014,524,1,1450364518347,1450364518847,893,538,0,0,0,3,0,3,3,0002-00-0001-29.png,0005-00-0001-67.png
00000014,525,1,1450364519930,1450364520412,893,469,0,0,0,4,1,3,5,0001-00-0000-51.png,0004-00-0000-88.png
00000014,526,0,1450364521539,1450364522036,859,545,0,0,0,3,4,1,7,0002-00-0000-98.png,0001-00-0000-83.png
00000014,527,1,1450364525040,1450364525590,925,490,0,0,0,3,2,1,5,0002-00-0000-01.png,0003-00-0000-00.png
00000014,528,0,1450364526682,1450364527169,467,555,0,0,0,4,2,2,6,0001-00-0000-96.png,0003-00-0001-63.png
00000014,529,0,1450364530914,1450364530938,518,410,0,0,0,2,0,2,2,0003-00-0001-53.png,0005-00-0001-10.png
00000014,530,1,1450364534109,1450364534642,437,429,0,0,0,0,4,4,4,0005-00-0001-92.png,0001-00-0000-01.png
00000014,531,1,1450364535607,1450364536039,435,472,0,0,0,0,1,1,1,0005-00-0001-84.png,0004-00-0000-93.png
00000014,532,1,1450364537127,1450364537758,928,517,0,0,0,4,0,4,4,0001-00-0000-49.png,0005-00-0001-70.png
00000014,533,1,1450364538770,1450364539303,896,472,0,0,0,2,1,1,3,0003-00-0000-54.png,0004-00-0000-10.png
00000014,534,1,1450364540401,1450364540453,478,498,0,0,0,0,3,3,3,0005-00-0001-96.png,0002-00-0001-75.png
00000014,535,1,1450364542177,1450364542590,437,474,0,0,0,1,2,1,3,0004-00-0001-03.png,0003-00-0001-30.png
00000014,536,0,1450364543925,1450364544384,888,449,0,0,0,1,4,3,5,0004-00-0000-13.png,0001-00-0000-08.png
00000014,537,0,1450364547393,1450364547871,963,471,0,0,0,1,3,2,4,0004-00-0001-28.png,0002-00-0000-39.png
00000014,538,1,1450364550973,1450364551409,906,541,0,0,0,1,0,1,1,0004-00-0001-23.png,0005-00-0001-46.png
00000014,539,1,1450364552508,1450364552539,453,488,0,0,0,2,4,2,6,0003-00-0000-62.png,0001-00-0001-68.png
00000014,540,1,1450364553786,1450364554216,384,471,0,0,0,0,2,2,2,0005-00-0001-63.png,0003-00-0001-30.png
00000014,541,1,1450364555353,1450364556217,427,436,0,0,0,3,4,1,7,0002-00-0000-27.png,0001-00-0001-39.png
00000014,542,1,1450364557448,1450364557931,401,449,0,0,0,1,3,2,4,0004-00-0000-20.png,0002-00-0000-72.png
00000014,543,1,1450364559013,1450364559496,465,475,0,0,0,0,4,4,4,0005-00-0001-28.png,0001-00-0001-35.png
00000014,544,1,1450364560543,1450364561100,898,458,0,0,0,4,2,2,6,0001-00-0000-90.png,0003-00-0000-05.png
00000014,545,1,1450364562172,1450364563158,427,424,0,0,0,2,3,1,5,0003-00-0001-51.png,0002-00-0001-77.png
00000014,546,0,1450364564340,1450364564862,876,462,0,0,0,2,4,2,6,0003-00-0001-18.png,0001-00-0001-41.png
00000014,547,1,1450364567856,1450364568370,951,475,0,0,0,4,1,3,5,0001-00-0001-41.png,0004-00-0000-31.png
00000014,548,0,1450364569383,1450364569866,486,561,0,0,0,3,1,2,4,0002-00-0000-73.png,0004-00-0001-55.png
00000014,549,1,1450364575012,1450364575434,952,488,0,0,0,4,0,4,4,0001-00-0000-35.png,0005-00-0000-81.png
00000014,550,1,1450364577191,1450364577211,504,462,0,0,0,0,1,1,1,0005-00-0001-49.png,0004-00-0000-06.png
00000014,551,0,1450364578213,1450364578679,911,476,0,0,0,0,2,2,2,0005-00-0001-62.png,0003-00-0000-58.png
00000014,552,0,1450364583349,1450364583788,970,482,0,0,0,1,4,3,5,0004-00-0000-48.png,0001-00-0000-42.png
00000014,553,1,1450364590410,1450364590921,423,365,0,0,0,0,3,3,3,0005-00-0001-11.png,0002-00-0001-48.png
00000014,554,1,1450364592086,1450364592538,901,460,0,0,0,2,1,1,3,0003-00-0001-67.png,0004-00-0000-75.png
00000014,555,1,1450364593633,1450364594118,903,467,0,0,0,1,0,1,1,0004-00-0001-78.png,0005-00-0001-70.png
00000014,556,1,1450364595122,1450364595661,902,477,0,0,0,4,3,1,7,0001-00-0001-14.png,0002-00-0001-18.png
00000014,557,0,1450364596762,1450364597238,406,474,0,0,0,2,0,2,2,0003-00-0001-43.png,0005-00-0000-15.png
00000014,558,0,1450364600470,1450364600490,513,440,0,0,0,3,2,1,5,0002-00-0001-89.png,0003-00-0001-79.png
00000014,559,1,1450364603394,1450364604024,477,362,0,0,0,1,2,1,3,0004-00-0001-21.png,0003-00-0001-61.png
00000014,560,1,1450364606003,1450364606533,923,455,0,0,0,3,0,3,3,0002-00-0001-37.png,0005-00-0001-15.png
00000014,561,1,1450364608512,1450364609129,409,404,0,0,0,1,4,3,5,0004-00-0001-48.png,0001-00-0000-99.png
00000014,562,1,1450364610497,1450364611041,921,446,0,0,0,1,0,1,1,0004-00-0001-31.png,0005-00-0000-03.png
00000014,563,1,1450364612369,1450364612861,898,458,0,0,0,2,0,2,2,0003-00-0000-17.png,0005-00-0001-48.png
00000014,564,0,1450364614099,1450364614664,932,483,0,0,0,3,4,1,7,0002-00-0000-70.png,0001-00-0001-89.png
00000014,565,0,1450364618610,1450364619036,941,448,0,0,0,0,4,4,4,0005-00-0001-69.png,0001-00-0000-80.png
00000014,566,1,1450364622267,1450364622760,413,410,0,0,0,1,2,1,3,0004-00-0000-01.png,0003-00-0000-29.png
00000014,567,1,1450364623917,1450364624461,880,480,0,0,0,3,2,1,5,0002-00-0000-99.png,0003-00-0000-50.png
00000014,568,0,1450364625636,1450364626184,904,480,0,0,0,2,4,2,6,0003-00-0001-73.png,0001-00-0000-97.png
00000014,569,1,1450364629096,1450364629563,965,449,0,0,0,3,0,3,3,0002-00-0001-52.png,0005-00-0001-02.png
00000014,570,1,1450364630766,1450364631275,930,480,0,0,0,4,2,2,6,0001-00-0000-09.png,0003-00-0001-41.png
00000014,571,0,1450364632373,1450364632443,504,541,0,0,0,2,1,1,3,0003-00-0000-03.png,0004-00-0000-41.png
00000014,572,1,1450364636820,1450364637299,880,455,0,0,0,4,0,4,4,0001-00-0001-85.png,0005-00-0001-88.png
00000014,573,1,1450364638429,1450364638832,460,469,0,0,0,0,3,3,3,0005-00-0000-38.png,0002-00-0001-06.png
00000014,574,1,1450364640098,1450364641007,464,457,0,0,0,2,3,1,5,0003-00-0000-01.png,0002-00-0000-69.png
00000014,575,0,1450364642210,1450364642729,415,460,0,0,0,4,3,1,7,0001-00-0000-71.png,0002-00-0000-34.png
00000014,576,1,1450364646889,1450364647315,978,488,0,0,0,3,1,2,4,0002-00-0000-25.png,0004-00-0001-75.png
00000014,577,1,1450364648820,1450364649326,388,514,0,0,0,0,2,2,2,0005-00-0000-81.png,0003-00-0000-54.png
00000014,578,1,1450364650323,1450364650780,396,460,0,0,0,0,1,1,1,0005-00-0001-42.png,0004-00-0001-68.png
00000014,579,0,1450364651880,1450364652410,876,502,0,0,0,1,3,2,4,0004-00-0001-70.png,0002-00-0001-36.png
00000014,580,1,1450364655469,1450364655905,939,554,0,0,0,4,1,3,5,0001-00-0001-67.png,0004-00-0001-39.png
00000014,581,1,1450364656991,1450364657492,925,501,0,0,0,4,0,4,4,0001-00-0000-09.png,0005-00-0001-04.png
00000014,582,1,1450364658729,1450364659177,408,472,0,0,0,1,4,3,5,0004-00-0001-17.png,0001-00-0000-76.png
00000014,583,1,1450364660320,1450364660753,470,480,0,0,0,1,3,2,4,0004-00-0000-23.png,0002-00-0000-66.png
00000014,584,1,1450364661902,1450364662420,393,465,0,0,0,0,4,4,4,0005-00-0000-78.png,0001-00-0001-85.png
00000014,585,1,1450364663994,1450364664411,427,450,0,0,0,0,3,3,3,0005-00-0001-93.png,0002-00-0000-74.png
00000014,586,1,1450364665569,1450364665974,427,486,0,0,0,0,2,2,2,0005-00-0001-44.png,0003-00-0001-30.png
00000014,587,0,1450364667144,1450364667715,427,448,0,0,0,4,2,2,6,0001-00-0000-86.png,0003-00-0000-40.png
00000014,588,1,1450364671088,1450364671525,958,472,0,0,0,1,0,1,1,0004-00-0001-18.png,0005-00-0001-52.png
00000014,589,0,1450364673380,1450364673840,939,475,0,0,0,2,3,1,5,0003-00-0001-59.png,0002-00-0001-56.png
00000014,590,0,1450364677427,1450364677898,900,410,0,0,0,3,4,1,7,0002-00-0000-51.png,0001-00-0000-55.png
00000014,591,0,1450364681299,1450364681764,925,534,0,0,0,2,4,2,6,0003-00-0000-76.png,0001-00-0001-80.png
00000014,592,1,1450364684935,1450364685388,891,504,0,0,0,2,1,1,3,0003-00-0001-69.png,0004-00-0001-78.png
00000014,593,0,1450364686490,1450364687069,945,455,0,0,0,1,2,1,3,0004-00-0000-33.png,0003-00-0001-73.png
00000014,594,1,1450364689947,1450364690427,916,516,0,0,0,3,1,2,4,0002-00-0001-95.png,0004-00-0001-45.png
00000014,595,1,1450364691470,1450364691974,881,526,0,0,0,3,0,3,3,0002-00-0001-44.png,0005-00-0000-63.png
00000014,596,1,1450364693087,1450364693573,389,506,0,0,0,0,1,1,1,0005-00-0001-40.png,0004-00-0001-82.png
00000014,597,1,1450364694741,1450364695247,900,436,0,0,0,4,3,1,7,0001-00-0000-23.png,0002-00-0001-31.png
00000014,598,0,1450364696341,1450364696432,505,504,0,0,0,4,1,3,5,0001-00-0000-70.png,0004-00-0000-26.png
00000014,599,1,1450364699936,1450364700686,975,430,0,0,0,3,2,1,5,0002-00-0001-29.png,0003-00-0001-36.png
00000014,600,1,1450364701778,1450364702207,904,473,0,0,0,2,0,2,2,0003-00-0000-32.png,0005-00-0001-44.png
00000014,601,1,1450364703307,1450364703876,923,482,0,0,0,4,0,4,4,0001-00-0000-93.png,0005-00-0001-40.png
00000014,602,1,1450364704957,1450364705459,919,460,0,0,0,4,1,3,5,0001-00-0001-83.png,0004-00-0000-56.png
00000014,603,0,1450364706566,1450364707059,465,541,0,0,0,4,3,1,7,0001-00-0001-61.png,0002-00-0000-03.png
00000014,604,0,1450364710461,1450364710934,950,482,0,0,0,1,2,1,3,0004-00-0001-94.png,0003-00-0001-08.png
00000014,605,0,1450364715022,1450364715453,894,438,0,0,0,1,4,3,5,0004-00-0001-73.png,0001-00-0001-91.png
00000014,606,0,1450364718691,1450364719122,903,532,0,0,0,2,4,2,6,0003-00-0000-31.png,0001-00-0000-02.png
00000014,607,1,1450364722937,1450364723358,924,510,0,0,0,1,0,1,1,0004-00-0001-45.png,0005-00-0000-23.png
00000014,608,1,1450364724419,1450364724959,447,458,0,0,0,3,4,1,7,0002-00-0001-50.png,0001-00-0000-38.png
00000014,609,0,1450364725966,1450364726568,892,491,0,0,0,0,1,1,1,0005-00-0001-63.png,0004-00-0000-48.png
00000014,610,1,1450364729799,1450364730326,940,421,0,0,0,3,2,1,5,0002-00-0000-00.png,0003-00-0001-58.png
00000014,611,1,1450364731287,1450364731817,922,457,0,0,0,3,0,3,3,0002-00-0000-85.png,0005-00-0000-65.png
00000014,612,1,1450364732831,1450364733298,391,456,0,0,0,0,2,2,2,0005-00-0000-53.png,0003-00-0001-43.png
00000014,613,1,1450364734393,1450364734830,436,563,0,0,0,1,3,2,4,0004-00-0001-19.png,0002-00-0001-70.png
00000014,614,1,1450364735844,1450364736299,466,489,0,0,0,2,3,1,5,0003-00-0000-92.png,0002-00-0000-80.png
00000014,615,1,1450364737363,1450364737896,870,472,0,0,0,4,2,2,6,0001-00-0000-44.png,0003-00-0000-15.png
00000014,616,0,1450364738982,1450364739353,453,488,0,0,0,3,1,2,4,0002-00-0000-42.png,0004-00-0001-43.png
00000014,617,0,1450364745414,1450364745984,905,519,0,0,0,0,3,3,3,0005-00-0001-39.png,0002-00-0001-18.png
00000014,618,1,1450364749043,1450364749590,350,397,0,0,0,0,4,4,4,0005-00-0000-45.png,0001-00-0001-97.png
00000014,619,1,1450364750537,1450364751008,926,462,0,0,0,2,1,1,3,0003-00-0000-25.png,0004-00-0001-81.png
00000014,620,1,1450364752008,1450364752524,914,449,0,0,0,2,0,2,2,0003-00-0001-22.png,0005-00-0000-58.png
00000014,621,1,1450364753548,1450364754083,898,484,0,0,0,2,0,2,2,0003-00-0001-83.png,0005-00-0000-77.png
00000014,622,1,1450364755140,1450364755633,894,456,0,0,0,3,0,3,3,0002-00-0000-66.png,0005-00-0000-80.png
00000014,623,1,1450364756646,1450364757205,870,446,0,0,0,4,2,2,6,0001-00-0000-76.png,0003-00-0001-11.png
00000014,624,1,1450364758290,1450364758717,388,488,0,0,0,0,4,4,4,0005-00-0001-09.png,0001-00-0001-41.png
00000014,625,0,1450364759773,1450364760761,370,452,0,0,0,3,2,1,5,0002-00-0000-36.png,0003-00-0001-99.png
00000014,626,0,1450364763754,1450364764347,990,450,0,0,0,0,2,2,2,0005-00-0001-69.png,0003-00-0000-16.png
00000014,627,1,1450364767272,1450364767767,337,424,0,0,0,1,4,3,5,0004-00-0000-90.png,0001-00-0001-03.png
00000014,628,1,1450364768773,1450364769473,384,420,0,0,0,1,2,1,3,0004-00-0000-69.png,0003-00-0001-23.png
00000014,629,0,1450364770514,1450364770945,453,501,0,0,0,4,0,4,4,0001-00-0000-49.png,0005-00-0001-15.png
00000014,630,0,1450364774031,1450364774484,964,423,0,0,0,2,3,1,5,0003-00-0001-46.png,0002-00-0001-80.png
00000014,631,1,1450364777691,1450364778186,960,447,0,0,0,1,0,1,1,0004-00-0000-74.png,0005-00-0000-43.png
00000014,632,0,1450364779653,1450364780138,435,419,0,0,0,4,3,1,7,0001-00-0000-48.png,0002-00-0001-15.png
00000014,633,1,1450364783279,1450364783803,444,402,0,0,0,0,3,3,3,0005-00-0001-33.png,0002-00-0000-26.png
00000014,634,0,1450364784982,1450364785041,519,474,0,0,0,2,1,1,3,0003-00-0000-13.png,0004-00-0001-27.png
00000014,635,0,1450364788773,1450364789251,960,447,0,0,0,2,4,2,6,0003-00-0001-74.png,0001-00-0001-66.png
00000014,636,1,1450364794450,1450364794949,436,467,0,0,0,3,4,1,7,0002-00-0001-08.png,0001-00-0000-51.png
00000014,637,1,1450364796002,1450364796475,363,499,0,0,0,1,3,2,4,0004-00-0001-11.png,0002-00-0001-78.png
00000014,638,0,1450364797453,1450364798014,456,482,0,0,0,3,1,2,4,0002-00-0001-54.png,0004-00-0001-76.png
00000014,639,1,1450364801024,1450364801560,962,466,0,0,0,4,1,3,5,0001-00-0000-86.png,0004-00-0001-80.png
00000014,640,0,1450364802634,1450364803158,921,472,0,0,0,0,1,1,1,0005-00-0000-40.png,0004-00-0001-59.png
00000014,641,1,1450364806081,1450364806508,960,420,0,0,0,2,1,1,3,0003-00-0001-42.png,0004-00-0001-64.png
00000014,642,1,1450364807453,1450364807989,873,483,0,0,0,3,0,3,3,0002-00-0001-95.png,0005-00-0001-97.png
00000014,643,0,1450364809053,1450364809549,894,481,0,0,0,2,3,1,5,0003-00-0001-20.png,0002-00-0000-38.png
00000014,644,1,1450364813086,1450364813103,502,411,0,0,0,1,4,3,5,0004-00-0001-84.png,0001-00-0000-38.png
00000014,645,1,1450364814275,1450364814778,900,475,0,0,0,4,2,2,6,0001-00-0000-21.png,0003-00-0001-55.png
00000014,646,1,1450364815809,1450364816361,926,489,0,0,0,4,1,3,5,0001-00-0001-02.png,0004-00-0001-23.png
00000014,647,1,1450364817808,1450364818242,416,455,0,0,0,0,1,1,1,0005-00-0000-66.png,0004-00-0000-48.png
00000014,648,1,1450364819260,1450364819826,902,488,0,0,0,4,0,4,4,0001-00-0001-69.png,0005-00-0001-36.png
00000014,649,1,1450364822230,1450364822708,491,449,0,0,0,1,2,1,3,0004-00-0000-30.png,0003-00-0000-04.png
00000014,650,1,1450364823771,1450364824455,409,430,0,0,0,0,2,2,2,0005-00-0000-14.png,0003-00-0001-12.png
00000014,651,1,1450364825501,1450364825987,875,436,0,0,0,4,3,1,7,0001-00-0000-51.png,0002-00-0000-64.png
00000014,652,1,1450364827032,1450364827601,889,475,0,0,0,2,0,2,2,0003-00-0001-37.png,0005-00-0001-32.png
00000014,653,1,1450364828602,1450364829077,376,502,0,0,0,0,4,4,4,0005-00-0000-18.png,0001-00-0000-30.png
00000014,654,1,1450364830141,1450364830622,863,558,0,0,0,3,1,2,4,0002-00-0000-61.png,0004-00-0001-26.png
00000014,655,1,1450364831702,1450364832325,414,412,0,0,0,2,4,2,6,0003-00-0001-99.png,0001-00-0000-18.png
00000014,656,0,1450364833530,1450364834036,868,469,0,0,0,3,4,1,7,0002-00-0000-49.png,0001-00-0001-62.png
00000014,657,0,1450364837017,1450364837953,466,409,0,0,0,3,2,1,5,0002-00-0001-81.png,0003-00-0000-34.png
00000014,658,1,1450364841009,1450364841493,470,428,0,0,0,0,3,3,3,0005-00-0000-00.png,0002-00-0000-07.png
00000014,659,1,1450364842474,1450364843240,945,492,0,0,0,1,0,1,1,0004-00-0000-93.png,0005-00-0001-51.png
00000014,660,0,1450364844316,1450364844824,901,468,0,0,0,1,3,2,4,0004-00-0000-54.png,0002-00-0000-10.png
00000014,661,1,1450364847900,1450364848315,344,435,0,0,0,0,2,2,2,0005-00-0000-22.png,0003-00-0001-05.png
00000014,662,0,1450364849314,1450364849762,445,479,0,0,0,1,0,1,1,0004-00-0000-12.png,0005-00-0001-68.png
00000014,663,1,1450364852773,1450364852789,516,410,0,0,0,2,4,2,6,0003-00-0000-51.png,0001-00-0000-76.png
00000014,664,1,1450364853847,1450364854427,923,456,0,0,0,4,3,1,7,0001-00-0001-04.png,0002-00-0001-31.png
00000014,665,1,1450364855494,1450364855989,919,468,0,0,0,4,1,3,5,0001-00-0000-81.png,0004-00-0000-36.png
00000014,666,0,1450364857067,1450364857581,876,476,0,0,0,2,3,1,5,0003-00-0000-12.png,0002-00-0001-88.png
00000014,667,1,1450364860993,1450364861444,369,385,0,0,0,0,4,4,4,0005-00-0000-91.png,0001-00-0001-41.png
00000014,668,1,1450364862879,1450364863303,908,473,0,0,0,4,0,4,4,0001-00-0000-67.png,0005-00-0001-66.png
00000014,669,0,1450364864342,1450364864894,414,402,0,0,0,3,1,2,4,0002-00-0000-30.png,0004-00-0001-72.png
00000014,670,1,1450364867779,1450364868244,903,491,0,0,0,2,0,2,2,0003-00-0001-29.png,0005-00-0001-08.png
00000014,671,0,1450364869265,1450364869736,900,462,0,0,0,3,4,1,7,0002-00-0000-44.png,0001-00-0001-62.png
00000014,672,1,1450364873020,1450364873483,952,475,0,0,0,3,0,3,3,0002-00-0000-33.png,0005-00-0001-19.png
00000014,673,1,1450364874436,1450364874468,507,469,0,0,0,0,3,3,3,0005-00-0000-27.png,0002-00-0001-96.png
00000014,674,0,1450364875601,1450364876052,401,472,0,0,0,4,2,2,6,0001-00-0000-90.png,0003-00-0001-90.png
00000014,675,0,1450364879474,1450364879916,975,432,0,0,0,0,1,1,1,0005-00-0000-43.png,0004-00-0001-03.png
00000014,676,1,1450364883424,1450364883992,445,429,0,0,0,1,4,3,5,0004-00-0000-63.png,0001-00-0000-58.png
00000014,677,1,1450364885419,1450364885886,925,464,0,0,0,3,2,1,5,0002-00-0000-03.png,0003-00-0000-36.png
00000014,678,1,1450364886958,1450364887408,461,498,0,0,0,1,2,1,3,0004-00-0000-30.png,0003-00-0000-56.png
00000014,679,1,1450364888413,1450364888957,871,547,0,0,0,2,1,1,3,0003-00-0001-43.png,0004-00-0000-95.png
00000014,680,1,1450364889983,1450364890457,382,472,0,0,0,1,3,2,4,0004-00-0001-68.png,0002-00-0001-37.png
00000014,681,1,1450364891463,1450364892006,879,453,0,0,0,2,0,2,2,0003-00-0000-04.png,0005-00-0000-25.png
00000014,682,0,1450364893164,1450364893635,427,450,0,0,0,4,3,1,7,0001-00-0000-80.png,0002-00-0000-03.png
00000014,683,1,1450364897259,1450364897721,413,519,0,0,0,0,3,3,3,0005-00-0000-62.png,0002-00-0001-27.png
00000014,684,0,1450364899155,1450364900078,499,394,0,0,0,4,2,2,6,0001-00-0001-54.png,0003-00-0001-93.png
00000014,685,1,1450364903290,1450364903722,976,423,0,0,0,3,2,1,5,0002-00-0001-46.png,0003-00-0001-37.png
00000014,686,0,1450364904857,1450364905260,444,480,0,0,0,3,1,2,4,0002-00-0000-96.png,0004-00-0000-24.png
00000014,687,0,1450364909769,1450364910173,953,410,0,0,0,2,3,1,5,0003-00-0001-12.png,0002-00-0001-30.png
00000014,688,0,1450364927070,1450364927686,977,388,0,0,0,2,4,2,6,0003-00-0000-69.png,0001-00-0001-69.png
00000014,689,1,1450364934053,1450364934512,957,438,0,0,0,3,0,3,3,0002-00-0000-02.png,0005-00-0001-95.png
00000014,690,0,1450364935702,1450364936580,964,450,0,0,0,0,1,1,1,0005-00-0000-11.png,0004-00-0000-56.png
00000014,691,1,1450364940797,1450364941301,416,412,0,0,0,1,4,3,5,0004-00-0001-23.png,0001-00-0001-03.png
00000014,692,1,1450364942567,1450364943038,390,424,0,0,0,1,3,2,4,0004-00-0000-13.png,0002-00-0000-66.png
00000014,693,0,1450364944299,1450364944860,376,410,0,0,0,1,0,1,1,0004-00-0000-53.png,0005-00-0000-83.png
00000014,694,1,1450364948215,1450364948675,978,424,0,0,0,4,0,4,4,0001-00-0000-25.png,0005-00-0001-06.png
00000014,695,1,1450364949823,1450364950314,909,440,0,0,0,2,1,1,3,0003-00-0001-09.png,0004-00-0001-97.png
00000014,696,1,1450364951403,1450364951893,927,501,0,0,0,4,1,3,5,0001-00-0000-61.png,0004-00-0001-29.png
00000014,697,0,1450364952969,1450364953486,898,543,0,0,0,3,4,1,7,0002-00-0000-17.png,0001-00-0000-54.png
00000014,698,1,1450364962916,1450364963518,461,466,0,0,0,0,4,4,4,0005-00-0000-61.png,0001-00-0001-75.png
00000014,699,0,1450364964549,1450364965202,940,474,0,0,0,0,2,2,2,0005-00-0000-11.png,0003-00-0001-38.png
00000014,700,0,1450364980740,1450364981188,981,417,0,0,0,1,2,1,3,0004-00-0001-43.png,0003-00-0001-03.png
00000014,701,0,1450364987537,1450364988028,958,500,0,0,0,0,2,2,2,0005-00-0000-44.png,0003-00-0000-66.png
00000014,702,1,1450364992821,1450364993243,932,500,0,0,0,2,0,2,2,0003-00-0000-40.png,0005-00-0001-40.png
00000014,703,0,1450364994489,1450364995132,393,461,0,0,0,4,3,1,7,0001-00-0001-48.png,0002-00-0001-58.png
00000014,704,1,1450364998604,1450364999099,458,425,0,0,0,0,3,3,3,0005-00-0001-91.png,0002-00-0000-55.png
00000014,705,1,1450365000520,1450365001016,422,437,0,0,0,1,4,3,5,0004-00-0001-57.png,0001-00-0000-04.png
00000014,706,1,1450365002071,1450365002556,926,463,0,0,0,3,2,1,5,0002-00-0000-02.png,0003-00-0001-99.png
00000014,707,0,1450365003591,1450365004134,917,466,0,0,0,0,4,4,4,0005-00-0000-69.png,0001-00-0000-22.png
00000014,708,1,1450365010304,1450365010782,972,442,0,0,0,3,0,3,3,0002-00-0001-58.png,0005-00-0000-15.png
00000014,709,0,1450365011909,1450365012719,397,367,0,0,0,4,2,2,6,0001-00-0001-14.png,0003-00-0001-25.png
00000014,710,0,1450365019549,1450365019989,984,473,0,0,0,3,4,1,7,0002-00-0001-40.png,0001-00-0001-75.png
00000014,711,1,1450365023352,1450365023757,971,416,0,0,0,2,1,1,3,0003-00-0001-51.png,0004-00-0001-84.png
00000014,712,0,1450365024880,1450365025424,874,541,0,0,0,2,4,2,6,0003-00-0001-02.png,0001-00-0000-12.png
00000014,713,0,1450365032716,1450365033155,927,502,0,0,0,0,1,1,1,0005-00-0000-40.png,0004-00-0000-36.png
00000014,714,0,1450365039795,1450365040310,982,417,0,0,0,2,3,1,5,0003-00-0000-60.png,0002-00-0001-80.png
00000014,715,1,1450365043467,1450365043994,951,488,0,0,0,3,1,2,4,0002-00-0000-79.png,0004-00-0001-99.png
00000014,716,1,1450365045050,1450365045713,376,436,0,0,0,1,2,1,3,0004-00-0001-97.png,0003-00-0000-58.png
00000014,717,0,1450365046826,1450365047342,893,538,0,0,0,1,3,2,4,0004-00-0001-43.png,0002-00-0000-30.png
00000014,718,1,1450365053029,1450365053480,957,474,0,0,0,4,1,3,5,0001-00-0001-98.png,0004-00-0000-03.png
00000014,719,0,1450365054527,1450365054959,405,486,0,0,0,1,0,1,1,0004-00-0000-30.png,0005-00-0000-54.png
00000014,720,1,1450365058124,1450365058582,990,422,0,0,0,4,0,4,4,0001-00-0000-76.png,0005-00-0001-29.png
00000014,721,1,1450365059568,1450365060069,409,427,0,0,0,1,4,3,5,0004-00-0001-21.png,0001-00-0000-93.png
00000014,722,0,1450365061076,1450365061605,914,491,0,0,0,3,4,1,7,0002-00-0000-24.png,0001-00-0001-35.png
00000014,723,1,1450365067263,1450365067673,1010,395,0,0,0,3,1,2,4,0002-00-0001-81.png,0004-00-0000-46.png
00000014,724,1,1450365069716,1450365070193,401,387,0,0,0,1,2,1,3,0004-00-0001-69.png,0003-00-0001-28.png
00000014,725,1,1450365071342,1450365071856,974,458,0,0,0,2,0,2,2,0003-00-0001-63.png,0005-00-0000-36.png
00000014,726,0,1450365073382,1450365073785,405,473,0,0,0,4,3,1,7,0001-00-0000-25.png,0002-00-0000-71.png
00000014,727,1,1450365077883,1450365078387,466,514,0,0,0,0,1,1,1,0005-00-0001-65.png,0004-00-0000-43.png
00000014,728,1,1450365079440,1450365079893,437,555,0,0,0,0,4,4,4,0005-00-0000-24.png,0001-00-0001-42.png
00000014,729,1,1450365080944,1450365081569,427,410,0,0,0,0,3,3,3,0005-00-0000-70.png,0002-00-0000-08.png
00000014,730,1,1450365082803,1450365083342,927,441,0,0,0,2,1,1,3,0003-00-0001-33.png,0004-00-0001-91.png
00000014,731,1,1450365084418,1450365084829,364,474,0,0,0,0,2,2,2,0005-00-0000-22.png,0003-00-0000-66.png
00000014,732,1,1450365085980,1450365086630,952,501,0,0,0,3,2,1,5,0002-00-0000-12.png,0003-00-0001-67.png
00000014,733,1,1450365087723,1450365088229,910,473,0,0,0,4,0,4,4,0001-00-0000-28.png,0005-00-0000-02.png
00000014,734,1,1450365089298,1450365089818,876,554,0,0,0,1,0,1,1,0004-00-0000-79.png,0005-00-0000-50.png
00000014,735,1,1450365091618,1450365092041,897,506,0,0,0,3,0,3,3,0002-00-0001-97.png,0005-00-0001-23.png
00000014,736,1,1450365093005,1450365093474,421,452,0,0,0,1,3,2,4,0004-00-0000-34.png,0002-00-0000-75.png
00000014,737,0,1450365094581,1450365095055,899,465,0,0,0,2,4,2,6,0003-00-0001-74.png,0001-00-0001-62.png
00000014,738,0,1450365099371,1450365099869,984,474,0,0,0,2,3,1,5,0003-00-0001-06.png,0002-00-0000-83.png
00000014,739,1,1450365104627,1450365105111,931,519,0,0,0,4,1,3,5,0001-00-0001-97.png,0004-00-0001-35.png
00000014,740,1,1450365106209,1450365106715,873,537,0,0,0,4,2,2,6,0001-00-0000-10.png,0003-00-0000-17.png
00000014,741,1,1450365107844,1450365108315,394,453,0,0,0,0,1,1,1,0005-00-0000-03.png,0004-00-0000-23.png
00000014,742,1,1450365109393,1450365109847,466,476,0,0,0,0,2,2,2,0005-00-0000-47.png,0003-00-0001-20.png
00000014,743,1,1450365110937,1450365111472,902,476,0,0,0,2,1,1,3,0003-00-0000-04.png,0004-00-0000-67.png
00000014,744,0,1450365112519,1450365113052,928,468,0,0,0,2,4,2,6,0003-00-0001-36.png,0001-00-0000-00.png
00000014,745,1,1450365116754,1450365117198,976,460,0,0,0,2,0,2,2,0003-00-0000-21.png,0005-00-0001-24.png
00000014,746,1,1450365118112,1450365118632,877,545,0,0,0,3,0,3,3,0002-00-0000-05.png,0005-00-0000-02.png
00000014,747,0,1450365119593,1450365120086,876,468,0,0,0,2,3,1,5,0003-00-0000-41.png,0002-00-0001-29.png
00000014,748,1,1450365123143,1450365123611,977,462,0,0,0,3,2,1,5,0002-00-0001-75.png,0003-00-0001-99.png
00000014,749,1,1450365124593,1450365125166,920,463,0,0,0,1,0,1,1,0004-00-0001-07.png,0005-00-0001-77.png
00000014,750,1,1450365126185,1450365127203,931,428,0,0,0,3,1,2,4,0002-00-0001-73.png,0004-00-0001-22.png
00000014,751,1,1450365128275,1450365128814,898,480,0,0,0,4,3,1,7,0001-00-0001-55.png,0002-00-0000-11.png
00000014,752,0,1450365129843,1450365130330,905,453,0,0,0,1,3,2,4,0004-00-0000-24.png,0002-00-0000-49.png
00000014,753,0,1450365134108,1450365134135,523,428,0,0,0,4,0,4,4,0001-00-0000-71.png,0005-00-0001-73.png
00000014,754,1,1450365137066,1450365137527,978,436,0,0,0,4,1,3,5,0001-00-0000-93.png,0004-00-0001-04.png
00000014,755,0,1450365138504,1450365139001,901,462,0,0,0,1,2,1,3,0004-00-0001-52.png,0003-00-0000-76.png
00000014,756,1,1450365143746,1450365144258,464,410,0,0,0,0,3,3,3,0005-00-0001-13.png,0002-00-0001-44.png
00000014,757,0,1450365145315,1450365145884,410,376,0,0,0,4,2,2,6,0001-00-0001-06.png,0003-00-0000-06.png
00000014,758,1,1450365152056,1450365152587,350,397,0,0,0,0,4,4,4,0005-00-0000-23.png,0001-00-0000-40.png
00000014,759,1,1450365153958,1450365154475,376,358,0,0,0,3,4,1,7,0002-00-0000-22.png,0001-00-0000-19.png
00000014,760,0,1450365155530,1450365156087,898,436,0,0,0,1,4,3,5,0004-00-0000-25.png,0001-00-0001-89.png
00000014,761,1,1450365160390,1450365160868,976,446,0,0,0,3,0,3,3,0002-00-0000-68.png,0005-00-0001-04.png
00000014,762,0,1450365161919,1450365162374,478,476,0,0,0,4,3,1,7,0001-00-0000-06.png,0002-00-0001-70.png
00000014,763,1,1450365167584,1450365168048,419,428,0,0,0,0,1,1,1,0005-00-0000-58.png,0004-00-0000-44.png
00000014,764,1,1450365169028,1450365169563,951,448,0,0,0,4,0,4,4,0001-00-0000-93.png,0005-00-0001-47.png
00000014,765,0,1450365170787,1450365171260,951,464,0,0,0,2,4,2,6,0003-00-0000-62.png,0001-00-0000-31.png
00000014,766,0,1450365176234,1450365176739,947,419,0,0,0,1,4,3,5,0004-00-0001-20.png,0001-00-0000-58.png
00000014,767,1,1450365181806,1450365182270,444,401,0,0,0,1,2,1,3,0004-00-0000-15.png,0003-00-0001-13.png
00000014,768,1,1450365183252,1450365183706,389,424,0,0,0,1,3,2,4,0004-00-0001-31.png,0002-00-0000-48.png
00000014,769,0,1450365184722,1450365185199,899,468,0,0,0,2,3,1,5,0003-00-0000-23.png,0002-00-0001-10.png
00000014,770,1,1450365191494,1450365191956,973,491,0,0,0,4,1,3,5,0001-00-0000-61.png,0004-00-0000-42.png
00000014,771,0,1450365193020,1450365193579,888,436,0,0,0,0,4,4,4,0005-00-0001-13.png,0001-00-0000-60.png
00000014,772,1,1450365196871,1450365197339,986,412,0,0,0,2,0,2,2,0003-00-0001-54.png,0005-00-0001-72.png
00000014,773,1,1450365199003,1450365199466,1001,410,0,0,0,2,1,1,3,0003-00-0000-77.png,0004-00-0000-04.png
00000014,774,1,1450365200841,1450365201279,367,435,0,0,0,0,3,3,3,0005-00-0000-77.png,0002-00-0001-90.png
00000014,775,1,1450365202882,1450365203362,956,470,0,0,0,3,2,1,5,0002-00-0000-10.png,0003-00-0001-15.png
00000014,776,1,1450365204637,1450365205125,877,544,0,0,0,3,1,2,4,0002-00-0000-06.png,0004-00-0000-77.png
00000014,777,1,1450365206422,1450365207006,948,445,0,0,0,1,0,1,1,0004-00-0001-37.png,0005-00-0000-21.png
00000014,778,1,1450365208206,1450365208733,921,427,0,0,0,4,2,2,6,0001-00-0000-29.png,0003-00-0000-79.png
00000014,779,0,1450365209885,1450365210328,913,450,0,0,0,3,4,1,7,0002-00-0001-07.png,0001-00-0001-98.png
00000014,780,1,1450365213369,1450365213405,510,422,0,0,0,0,2,2,2,0005-00-0000-78.png,0003-00-0000-23.png
00000014,781,1,1450365214679,1450365215169,939,424,0,0,0,2,0,2,2,0003-00-0001-52.png,0005-00-0000-23.png
00000014,782,1,1450365216417,1450365216863,439,561,0,0,0,0,2,2,2,0005-00-0000-84.png,0003-00-0000-39.png
00000014,783,0,1450365218931,1450365219418,914,519,0,0,0,2,3,1,5,0003-00-0001-73.png,0002-00-0001-73.png
00000014,784,1,1450365225786,1450365226278,994,391,0,0,0,1,0,1,1,0004-00-0000-90.png,0005-00-0000-35.png
00000014,785,1,1450365229144,1450365229628,945,461,0,0,0,3,0,3,3,0002-00-0000-90.png,0005-00-0000-61.png
00000014,786,0,1450365230928,1450365231454,913,462,0,0,0,1,3,2,4,0004-00-0001-38.png,0002-00-0000-45.png
00000014,787,1,1450365235203,1450365235673,950,384,0,0,0,3,1,2,4,0002-00-0001-94.png,0004-00-0001-95.png
00000014,788,1,1450365236833,1450365237635,389,444,0,0,0,0,1,1,1,0005-00-0000-28.png,0004-00-0000-89.png
00000014,789,1,1450365238771,1450365239314,891,460,0,0,0,4,1,3,5,0001-00-0000-66.png,0004-00-0000-08.png
00000014,790,0,1450365240580,1450365241103,927,475,0,0,0,1,2,1,3,0004-00-0001-42.png,0003-00-0001-88.png
00000014,791,0,1450365245467,1450365246454,393,389,0,0,0,3,2,1,5,0002-00-0001-62.png,0003-00-0000-53.png
00000014,792,1,1450365249980,1450365250422,949,435,0,0,0,2,1,1,3,0003-00-0001-00.png,0004-00-0000-02.png
00000014,793,1,1450365251501,1450365251957,401,566,0,0,0,0,3,3,3,0005-00-0000-21.png,0002-00-0000-62.png
00000014,794,1,1450365253195,1450365253644,875,410,0,0,0,4,3,1,7,0001-00-0000-61.png,0002-00-0000-20.png
00000014,795,0,1450365254772,1450365255363,866,539,0,0,0,3,4,1,7,0002-00-0001-43.png,0001-00-0000-05.png
00000014,796,0,1450365259005,1450365259529,962,448,0,0,0,2,4,2,6,0003-00-0000-01.png,0001-00-0001-50.png
00000014,797,0,1450365266074,1450365266599,975,431,0,0,0,0,4,4,4,0005-00-0001-25.png,0001-00-0000-80.png
00000014,798,1,1450365270233,1450365270676,973,419,0,0,0,4,0,4,4,0001-00-0000-62.png,0005-00-0001-05.png
00000014,799,1,1450365271748,1450365272223,875,554,0,0,0,4,2,2,6,0001-00-0001-83.png,0003-00-0000-99.png
00000014,800,0,1450365273356,1450365273842,901,410,0,0,0,1,4,3,5,0004-00-0000-19.png,0001-00-0001-68.png
00000014,801,0,1450365277601,1450365278047,435,419,0,0,0,4,3,1,7,0001-00-0000-68.png,0002-00-0000-67.png
00000014,802,0,1450365281518,1450365281558,517,424,0,0,0,2,1,1,3,0003-00-0001-58.png,0004-00-0001-88.png
00000014,803,0,1450365285155,1450365285614,945,429,0,0,0,2,4,2,6,0003-00-0000-90.png,0001-00-0000-32.png
00000014,804,1,1450365288888,1450365289291,977,411,0,0,0,3,0,3,3,0002-00-0000-17.png,0005-00-0000-26.png
00000014,805,1,1450365290293,1450365290823,931,453,0,0,0,4,1,3,5,0001-00-0000-94.png,0004-00-0001-64.png
00000014,806,1,1450365291915,1450365292418,917,448,0,0,0,4,0,4,4,0001-00-0001-71.png,0005-00-0000-64.png
00000014,807,1,1450365293430,1450365293909,416,448,0,0,0,0,2,2,2,0005-00-0001-20.png,0003-00-0000-79.png
00000014,808,1,1450365295030,1450365295426,465,475,0,0,0,0,3,3,3,0005-00-0000-45.png,0002-00-0000-96.png
00000014,809,1,1450365296488,1450365296993,888,474,0,0,0,3,2,1,5,0002-00-0001-79.png,0003-00-0001-90.png
00000014,810,1,1450365298022,1450365298504,493,540,0,0,0,2,3,1,5,0003-00-0000-47.png,0002-00-0001-69.png
00000014,811,0,1450365299627,1450365300163,890,475,0,0,0,0,4,4,4,0005-00-0001-37.png,0001-00-0001-78.png
00000014,812,0,1450365304214,1450365304698,967,433,0,0,0,1,3,2,4,0004-00-0000-98.png,0002-00-0000-23.png
00000014,813,0,1450365308584,1450365309047,939,464,0,0,0,0,1,1,1,0005-00-0001-82.png,0004-00-0001-39.png
00000014,814,1,1450365312304,1450365312747,978,448,0,0,0,1,0,1,1,0004-00-0000-13.png,0005-00-0001-40.png
00000014,815,1,1450365314038,1450365314509,876,546,0,0,0,2,0,2,2,0003-00-0000-90.png,0005-00-0001-31.png
00000014,816,1,1450365315614,1450365316120,444,532,0,0,0,1,4,3,5,0004-00-0001-24.png,0001-00-0000-23.png
00000014,817,1,1450365317223,1450365317682,478,477,0,0,0,1,2,1,3,0004-00-0000-03.png,0003-00-0000-37.png
00000014,818,1,1450365318855,1450365319457,947,472,0,0,0,3,1,2,4,0002-00-0001-97.png,0004-00-0000-18.png
00000014,819,1,1450365320565,1450365321040,387,474,0,0,0,3,4,1,7,0002-00-0001-72.png,0001-00-0000-92.png
00000014,820,0,1450365322155,1450365323092,414,423,0,0,0,4,2,2,6,0001-00-0000-31.png,0003-00-0001-71.png
00000014,821,0,1450365326398,1450365326840,904,401,0,0,0,2,3,1,5,0003-00-0000-34.png,0002-00-0001-02.png
00000014,822,0,1450365330553,1450365331005,487,392,0,0,0,3,2,1,5,0002-00-0001-71.png,0003-00-0001-11.png
00000014,823,0,1450365334328,1450365334793,950,483,0,0,0,0,1,1,1,0005-00-0000-82.png,0004-00-0000-93.png
00000014,824,1,1450365338155,1450365338612,935,521,0,0,0,2,0,2,2,0003-00-0000-58.png,0005-00-0001-87.png
00000014,825,1,1450365339768,1450365340198,384,548,0,0,0,0,4,4,4,0005-00-0000-34.png,0001-00-0000-55.png
00000014,826,1,1450365341296,1450365341750,899,457,0,0,0,4,2,2,6,0001-00-0000-48.png,0003-00-0001-06.png
00000014,827,0,1450365342824,1450365343302,876,460,0,0,0,1,4,3,5,0004-00-0001-40.png,0001-00-0001-92.png
00000014,828,1,1450365347030,1450365347543,416,383,0,0,0,1,3,2,4,0004-00-0000-10.png,0002-00-0000-01.png
00000014,829,1,1450365348520,1450365349020,902,443,0,0,0,3,0,3,3,0002-00-0000-19.png,0005-00-0001-98.png
00000014,830,1,1450365350517,1450365350943,451,458,0,0,0,2,4,2,6,0003-00-0000-40.png,0001-00-0001-91.png
00000014,831,1,1450365352043,1450365352512,925,448,0,0,0,3,1,2,4,0002-00-0000-09.png,0004-00-0001-19.png
00000014,832,0,1450365353535,1450365353987,460,497,0,0,0,4,3,1,7,0001-00-0000-10.png,0002-00-0001-19.png
00000014,833,1,1450365357029,1450365357057,521,426,0,0,0,1,2,1,3,0004-00-0001-66.png,0003-00-0001-59.png
00000014,834,0,1450365358526,1450365359150,446,398,0,0,0,1,0,1,1,0004-00-0000-72.png,0005-00-0001-71.png
00000014,835,1,1450365362155,1450365362634,977,448,0,0,0,2,1,1,3,0003-00-0000-12.png,0004-00-0001-25.png
00000014,836,0,1450365364350,1450365364795,914,544,0,0,0,0,2,2,2,0005-00-0000-60.png,0003-00-0001-55.png
00000014,837,1,1450365367851,1450365368331,984,446,0,0,0,4,1,3,5,0001-00-0001-04.png,0004-00-0001-35.png
00000014,838,1,1450365369745,1450365370141,434,447,0,0,0,3,4,1,7,0002-00-0000-01.png,0001-00-0001-78.png
00000014,839,1,1450365371658,1450365372038,456,463,0,0,0,0,3,3,3,0005-00-0000-13.png,0002-00-0000-84.png
00000014,840,1,1450365373159,1450365373650,925,438,0,0,0,4,0,4,4,0001-00-0001-73.png,0005-00-0001-85.png
00000014,841,0,1450365374693,1450365375159,458,481,0,0,0,4,2,2,6,0001-00-0000-23.png,0003-00-0000-93.png
00000014,842,0,1450365378011,1450365378482,892,514,0,0,0,0,3,3,3,0005-00-0000-51.png,0002-00-0000-17.png
00000014,843,0,1450365383304,1450365383407,495,454,0,0,0,4,0,4,4,0001-00-0001-57.png,0005-00-0000-72.png
00000014,844,1,1450365387061,1450365387528,924,517,0,0,0,3,2,1,5,0002-00-0000-86.png,0003-00-0001-03.png
00000014,845,1,1450365388577,1450365389004,362,451,0,0,0,0,1,1,1,0005-00-0000-21.png,0004-00-0001-80.png
00000014,846,1,1450365390540,1450365391030,904,480,0,0,0,3,1,2,4,0002-00-0001-28.png,0004-00-0000-25.png
00000014,847,0,1450365392094,1450365392573,900,474,0,0,0,2,3,1,5,0003-00-0001-98.png,0002-00-0000-33.png
00000014,848,0,1450365396811,1450365397288,928,468,0,0,0,1,3,2,4,0004-00-0001-65.png,0002-00-0000-14.png
00000014,849,1,1450365403985,1450365404443,396,410,0,0,0,0,2,2,2,0005-00-0000-39.png,0003-00-0001-83.png
00000014,850,1,1450365405887,1450365407356,960,466,0,0,0,4,1,3,5,0001-00-0001-91.png,0004-00-0001-02.png
00000014,851,1,1450365408421,1450365408927,926,476,0,0,0,3,0,3,3,0002-00-0001-60.png,0005-00-0001-90.png
00000014,852,1,1450365410062,1450365410694,427,409,0,0,0,3,4,1,7,0002-00-0000-22.png,0001-00-0000-65.png
00000014,853,0,1450365411829,1450365412216,484,487,0,0,0,1,0,1,1,0004-00-0001-27.png,0005-00-0000-98.png
00000014,854,0,1450365416788,1450365417313,920,467,0,0,0,2,4,2,6,0003-00-0001-62.png,0001-00-0000-99.png
00000014,855,1,1450365421830,1450365422293,419,402,0,0,0,0,4,4,4,0005-00-0000-51.png,0001-00-0001-89.png
00000014,856,0,1450365423383,1450365423936,922,445,0,0,0,1,2,1,3,0004-00-0001-49.png,0003-00-0000-22.png
00000014,857,1,1450365427214,1450365427665,946,445,0,0,0,2,1,1,3,0003-00-0001-23.png,0004-00-0001-02.png
00000014,858,0,1450365428739,1450365429227,924,456,0,0,0,1,4,3,5,0004-00-0001-79.png,0001-00-0001-07.png
00000014,859,1,1450365433597,1450365434188,948,392,0,0,0,4,3,1,7,0001-00-0000-77.png,0002-00-0000-28.png
00000014,860,1,1450365435280,1450365435707,903,441,0,0,0,2,0,2,2,0003-00-0001-54.png,0005-00-0001-44.png
00000014,861,0,1450365437300,1450365437831,951,491,0,0,0,3,4,1,7,0002-00-0001-71.png,0001-00-0001-72.png
00000014,862,1,1450365441535,1450365442122,991,446,0,0,0,4,3,1,7,0001-00-0001-18.png,0002-00-0001-61.png
00000014,863,1,1450365443834,1450365444332,964,504,0,0,0,2,1,1,3,0003-00-0001-68.png,0004-00-0001-81.png
00000014,864,0,1450365445446,1450365445939,897,447,0,0,0,2,4,2,6,0003-00-0001-72.png,0001-00-0001-54.png
00000014,865,1,1450365449798,1450365450297,976,438,0,0,0,3,0,3,3,0002-00-0000-18.png,0005-00-0000-32.png
00000014,866,1,1450365451328,1450365451861,899,412,0,0,0,4,2,2,6,0001-00-0001-11.png,0003-00-0001-01.png
00000014,867,1,1450365453131,1450365453647,899,468,0,0,0,3,1,2,4,0002-00-0000-57.png,0004-00-0001-29.png
00000014,868,1,1450365454831,1450365455260,398,393,0,0,0,0,4,4,4,0005-00-0000-65.png,0001-00-0001-06.png
00000014,869,1,1450365456490,1450365457129,950,479,0,0,0,1,0,1,1,0004-00-0000-21.png,0005-00-0000-32.png
00000014,870,1,1450365458207,1450365458760,890,448,0,0,0,4,1,3,5,0001-00-0001-11.png,0004-00-0001-88.png
00000014,871,1,1450365459858,1450365460396,366,384,0,0,0,1,4,3,5,0004-00-0001-06.png,0001-00-0000-26.png
00000014,872,1,1450365461508,1450365462002,891,446,0,0,0,4,0,4,4,0001-00-0000-38.png,0005-00-0000-96.png
00000014,873,1,1450365463130,1450365463570,367,481,0,0,0,1,2,1,3,0004-00-0001-69.png,0003-00-0000-92.png
00000014,874,1,1450365464647,1450365465117,380,463,0,0,0,0,2,2,2,0005-00-0001-03.png,0003-00-0001-78.png
00000014,875,1,1450365466138,1450365466655,900,449,0,0,0,3,2,1,5,0002-00-0000-00.png,0003-00-0001-53.png
00000014,876,0,1450365467700,1450365468233,893,453,0,0,0,2,3,1,5,0003-00-0001-66.png,0002-00-0000-29.png
00000014,877,1,1450365472198,1450365472677,899,501,0,0,0,2,0,2,2,0003-00-0000-26.png,0005-00-0000-14.png
00000014,878,0,1450365473788,1450365474708,915,443,0,0,0,1,3,2,4,0004-00-0001-10.png,0002-00-0000-68.png
00000014,879,0,1450365478025,1450365478530,975,430,0,0,0,0,1,1,1,0005-00-0001-79.png,0004-00-0000-76.png
00000014,880,1,1450365482038,1450365482534,396,428,0,0,0,0,3,3,3,0005-00-0001-11.png,0002-00-0001-07.png
00000014,881,1,1450365483577,1450365483609,504,500,0,0,0,0,3,3,3,0005-00-0001-71.png,0002-00-0000-85.png
00000014,882,0,1450365485039,1450365485864,511,446,0,0,0,4,3,1,7,0001-00-0001-51.png,0002-00-0001-65.png
00000014,883,0,1450365489226,1450365489810,976,424,0,0,0,3,4,1,7,0002-00-0001-36.png,0001-00-0000-13.png
00000014,884,1,1450365494502,1450365494985,901,528,0,0,0,1,0,1,1,0004-00-0000-96.png,0005-00-0001-15.png
00000014,885,0,1450365496301,1450365496815,898,540,0,0,0,2,4,2,6,0003-00-0001-08.png,0001-00-0001-64.png
00000014,886,0,1450365500157,1450365500599,914,502,0,0,0,0,1,1,1,0005-00-0001-06.png,0004-00-0000-11.png
00000014,887,1,1450365503820,1450365503858,487,437,0,0,0,1,4,3,5,0004-00-0001-65.png,0001-00-0001-92.png
00000014,888,1,1450365505076,1450365505631,953,477,0,0,0,3,1,2,4,0002-00-0000-32.png,0004-00-0001-10.png
00000014,889,0,1450365510063,1450365510470,947,419,0,0,0,1,3,2,4,0004-00-0001-31.png,0002-00-0000-57.png
00000014,890,1,1450365514227,1450365514729,376,397,0,0,0,0,4,4,4,0005-00-0000-47.png,0001-00-0001-76.png
00000014,891,0,1450365516505,1450365516951,383,418,0,0,0,4,2,2,6,0001-00-0001-13.png,0003-00-0000-77.png
00000014,892,1,1450365519851,1450365520352,984,420,0,0,0,4,0,4,4,0001-00-0000-33.png,0005-00-0000-41.png
00000014,893,1,1450365521395,1450365521907,919,457,0,0,0,4,1,3,5,0001-00-0001-62.png,0004-00-0001-85.png
00000014,894,1,1450365523075,1450365523585,905,427,0,0,0,3,2,1,5,0002-00-0001-39.png,0003-00-0001-68.png
00000014,895,1,1450365524804,1450365525311,900,438,0,0,0,3,0,3,3,0002-00-0000-22.png,0005-00-0001-70.png
00000014,896,1,1450365526683,1450365527118,384,449,0,0,0,0,2,2,2,0005-00-0001-80.png,0003-00-0001-61.png
00000014,897,0,1450365528303,1450365528807,904,453,0,0,0,2,3,1,5,0003-00-0000-14.png,0002-00-0001-97.png
00000014,898,0,1450365532806,1450365533348,926,503,0,0,0,1,2,1,3,0004-00-0000-30.png,0003-00-0001-86.png
00000014,899,1,1450365537268,1450365537755,978,409,0,0,0,2,1,1,3,0003-00-0001-26.png,0004-00-0000-98.png
00000014,900,1,1450365538739,1450365539212,899,449,0,0,0,2,0,2,2,0003-00-0000-98.png,0005-00-0000-38.png
00000014,901,1,1450365540299,1450365540732,369,496,0,0,0,0,1,1,1,0005-00-0000-68.png,0004-00-0001-13.png
00000014,902,1,1450365541760,1450365542241,386,495,0,0,0,0,3,3,3,0005-00-0000-42.png,0002-00-0000-39.png
00000014,903,1,1450365543420,1450365543905,902,461,0,0,0,3,1,2,4,0002-00-0001-46.png,0004-00-0001-65.png
00000014,904,0,1450365544980,1450365545551,879,453,0,0,0,2,3,1,5,0003-00-0001-55.png,0002-00-0000-44.png
00000014,905,1,1450365548894,1450365549360,955,466,0,0,0,2,0,2,2,0003-00-0001-52.png,0005-00-0001-02.png
00000014,906,1,1450365550456,1450365550945,914,465,0,0,0,4,1,3,5,0001-00-0001-28.png,0004-00-0001-24.png
00000014,907,1,1450365552059,1450365552460,453,462,0,0,0,3,4,1,7,0002-00-0001-70.png,0001-00-0000-85.png
00000014,908,0,1450365553627,1450365554262,895,472,0,0,0,0,4,4,4,0005-00-0000-33.png,0001-00-0000-49.png
00000014,909,1,1450365559035,1450365559490,953,437,0,0,0,4,0,4,4,0001-00-0001-97.png,0005-00-0000-78.png
00000014,910,1,1450365560543,1450365561088,902,460,0,0,0,4,3,1,7,0001-00-0000-34.png,0002-00-0001-35.png
00000014,911,1,1450365562335,1450365563624,393,442,0,0,0,1,2,1,3,0004-00-0001-01.png,0003-00-0001-87.png
00000014,912,1,1450365564940,1450365565408,410,462,0,0,0,0,2,2,2,0005-00-0001-00.png,0003-00-0001-81.png
00000014,913,1,1450365566615,1450365567151,948,460,0,0,0,2,1,1,3,0003-00-0000-08.png,0004-00-0001-06.png
00000014,914,0,1450365568276,1450365568827,380,429,0,0,0,3,2,1,5,0002-00-0001-91.png,0003-00-0001-20.png
00000014,915,1,1450365571905,1450365572306,901,528,0,0,0,3,0,3,3,0002-00-0000-26.png,0005-00-0000-51.png
00000014,916,1,1450365573941,1450365574475,495,375,0,0,0,2,4,2,6,0003-00-0000-44.png,0001-00-0000-89.png
00000014,917,1,1450365575481,1450365576005,921,472,0,0,0,1,0,1,1,0004-00-0000-49.png,0005-00-0000-49.png
00000014,918,1,1450365577079,1450365577972,463,532,0,0,0,1,3,2,4,0004-00-0000-78.png,0002-00-0000-56.png
00000014,919,0,1450365578990,1450365579504,900,475,0,0,0,1,4,3,5,0004-00-0001-10.png,0001-00-0000-40.png
00000014,920,1,1450365582817,1450365583362,976,422,0,0,0,4,2,2,6,0001-00-0000-45.png,0003-00-0001-87.png
00000014,921,0,1450365584526,1450365585007,920,428,0,0,0,2,3,1,5,0003-00-0001-03.png,0002-00-0001-94.png
00000014,922,0,1450365588236,1450365588760,952,410,0,0,0,2,4,2,6,0003-00-0001-16.png,0001-00-0001-23.png
00000014,923,1,1450365591990,1450365592450,1003,436,0,0,0,4,3,1,7,0001-00-0000-91.png,0002-00-0000-53.png
00000014,924,1,1450365593520,1450365594038,405,402,0,0,0,0,2,2,2,0005-00-0001-94.png,0003-00-0000-67.png
00000014,925,1,1450365595098,1450365595553,385,468,0,0,0,0,1,1,1,0005-00-0000-39.png,0004-00-0001-63.png
00000014,926,1,1450365596832,1450365597280,404,452,0,0,0,0,4,4,4,0005-00-0000-86.png,0001-00-0000-43.png
00000014,927,1,1450365598422,1450365598947,900,424,0,0,0,2,0,2,2,0003-00-0000-10.png,0005-00-0000-71.png
00000014,928,1,1450365600040,1450365600445,427,475,0,0,0,1,2,1,3,0004-00-0000-57.png,0003-00-0000-85.png
00000014,929,1,1450365601571,1450365601976,388,480,0,0,0,0,3,3,3,0005-00-0001-33.png,0002-00-0001-64.png
00000014,930,1,1450365603536,1450365604051,899,465,0,0,0,4,2,2,6,0001-00-0000-66.png,0003-00-0000-75.png
00000014,931,1,1450365605173,1450365605659,901,461,0,0,0,2,1,1,3,0003-00-0000-51.png,0004-00-0000-43.png
00000014,932,1,1450365606678,1450365607195,394,487,0,0,0,1,3,2,4,0004-00-0001-14.png,0002-00-0001-44.png
00000014,933,1,1450365608335,1450365608865,879,453,0,0,0,3,2,1,5,0002-00-0001-15.png,0003-00-0001-46.png
00000014,934,1,1450365609970,1450365610506,894,456,0,0,0,3,1,2,4,0002-00-0000-00.png,0004-00-0001-45.png
00000014,935,1,1450365611596,1450365612555,897,430,0,0,0,3,0,3,3,0002-00-0000-80.png,0005-00-0001-25.png
00000014,936,1,1450365613517,1450365614615,939,423,0,0,0,4,0,4,4,0001-00-0000-58.png,0005-00-0001-12.png
00000014,937,1,1450365615707,1450365616179,900,438,0,0,0,4,1,3,5,0001-00-0000-58.png,0004-00-0000-92.png
00000014,938,1,1450365617268,1450365617770,887,450,0,0,0,1,0,1,1,0004-00-0000-01.png,0005-00-0000-90.png
00000014,939,0,1450365618792,1450365619343,886,451,0,0,0,3,4,1,7,0002-00-0000-95.png,0001-00-0000-73.png
00000014,940,0,1450365622517,1450365622973,953,464,0,0,0,1,4,3,5,0004-00-0001-93.png,0001-00-0000-17.png
00000014,941,1,1450365627577,1450365628040,952,413,0,0,0,3,2,1,5,0002-00-0000-00.png,0003-00-0000-50.png
00000014,942,1,1450365630133,1450365630565,923,455,0,0,0,1,0,1,1,0004-00-0000-09.png,0005-00-0000-33.png
00000014,943,1,1450365631742,1450365632232,878,543,0,0,0,4,0,4,4,0001-00-0001-14.png,0005-00-0001-69.png
00000014,944,1,1450365633288,1450365633747,350,501,0,0,0,0,1,1,1,0005-00-0001-83.png,0004-00-0000-99.png
00000014,945,0,1450365634847,1450365635373,870,524,0,0,0,2,4,2,6,0003-00-0001-49.png,0001-00-0000-84.png
00000014,946,0,1450365639170,1450365639190,512,468,0,0,0,2,1,1,3,0003-00-0000-58.png,0004-00-0000-49.png
00000014,947,1,1450365642422,1450365642438,507,490,0,0,0,0,4,4,4,0005-00-0000-55.png,0001-00-0000-49.png
00000014,948,1,1450365643629,1450365644100,365,464,0,0,0,1,2,1,3,0004-00-0001-12.png,0003-00-0001-88.png
00000014,949,1,1450365645180,1450365645710,866,546,0,0,0,4,3,1,7,0001-00-0001-61.png,0002-00-0000-36.png
00000014,950,0,1450365646760,1450365647208,882,443,0,0,0,2,3,1,5,0003-00-0001-96.png,0002-00-0001-91.png
00000014,951,0,1450365650652,1450365651110,939,411,0,0,0,1,3,2,4,0004-00-0001-10.png,0002-00-0000-06.png
