subject_id,trial,correct_response,stim_time,response_time,x_coord,y_coord,trial_timeout,timeout_time,interTrial_timeout,left_rank,right_rank,distance,joint_rank,left_image,right_image
00000014,1,0,1449256654239,1449256654709,957,444,0,0,0,0,1,1,1,0005-00-0001-66.png,0004-00-0000-22.png
00000014,2,0,1449256657841,1449256658323,957,451,0,0,0,2,3,1,5,0003-00-0000-09.png,0002-00-0000-66.png
00000014,3,1,1449256661730,1449256662163,325,488,0,0,0,1,2,1,3,0004-00-0000-59.png,0003-00-0001-42.png
00000014,4,1,1449256663418,1449256663872,907,566,0,0,0,1,0,1,1,0004-00-0000-47.png,0005-00-0000-85.png
00000014,5,1,1449256664771,1449256665389,938,476,0,0,0,4,3,1,7,0001-00-0001-68.png,0002-00-0001-13.png
00000014,6,1,1449256666821,1449256667276,898,561,0,0,0,2,1,1,3,0003-00-0001-51.png,0004-00-0000-54.png
00000014,7,0,1449256668311,1449256668778,947,472,0,0,0,3,4,1,7,0002-00-0000-86.png,0001-00-0001-48.png
00000014,8,1,1449256671843,1449256672275,900,466,0,0,0,3,2,1,5,0002-00-0001-49.png,0003-00-0000-74.png
00000014,9,1,1449256673152,1449256673759,401,424,0,0,0,3,4,1,7,0002-00-0000-36.png,0001-00-0000-94.png
00000014,10,1,1449256674718,1449256675169,897,536,0,0,0,1,0,1,1,0004-00-0000-41.png,0005-00-0000-57.png
00000014,11,1,1449256676223,1449256676686,367,401,0,0,0,0,1,1,1,0005-00-0001-38.png,0004-00-0001-51.png
00000014,12,0,1449256677706,1449256678269,413,445,0,0,0,2,1,1,3,0003-00-0000-75.png,0004-00-0001-05.png
00000014,13,1,1449256681269,1449256681713,921,496,0,0,0,3,2,1,5,0002-00-0001-81.png,0003-00-0001-39.png
00000014,14,1,1449256682689,1449256683091,465,502,0,0,0,1,2,1,3,0004-00-0000-29.png,0003-00-0001-65.png
00000014,15,0,1449256684035,1449256684577,887,554,0,0,0,2,3,1,5,0003-00-0001-59.png,0002-00-0000-49.png
00000014,16,1,1449256687589,1449256688031,895,524,0,0,0,4,3,1,7,0001-00-0001-20.png,0002-00-0000-19.png
00000014,17,0,1449256688991,1449256689434,361,480,0,0,0,2,1,1,3,0003-00-0000-85.png,0004-00-0001-37.png
00000014,18,0,1449256692871,1449256693276,954,520,0,0,0,2,3,1,5,0003-00-0001-41.png,0002-00-0000-82.png
00000014,19,0,1449256696631,1449256697061,1002,464,0,0,0,3,4,1,7,0002-00-0000-77.png,0001-00-0001-70.png
00000014,20,1,1449256700415,1449256700995,421,505,0,0,0,0,1,1,1,0005-00-0000-17.png,0004-00-0001-67.png
00000014,21,0,1449256702084,1449256702546,387,466,0,0,0,3,2,1,5,0002-00-0000-76.png,0003-00-0000-74.png
00000014,22,0,1449256706090,1449256706535,979,412,0,0,0,1,2,1,3,0004-00-0001-87.png,0003-00-0001-57.png
00000014,23,1,1449256709789,1449256710211,1029,423,0,0,0,4,3,1,7,0001-00-0000-50.png,0002-00-0001-21.png
00000014,24,1,1449256711277,1449256711744,928,443,0,0,0,1,0,1,1,0004-00-0001-30.png,0005-00-0001-83.png
00000014,25,1,1449256712747,1449256713263,872,456,0,0,0,3,2,1,5,0002-00-0000-72.png,0003-00-0001-75.png
00000014,26,0,1449256714379,1449256714895,903,469,0,0,0,2,3,1,5,0003-00-0000-84.png,0002-00-0000-39.png
00000014,27,1,1449256717757,1449256718290,465,416,0,0,0,0,1,1,1,0005-00-0000-95.png,0004-00-0000-68.png
00000014,28,0,1449256719226,1449256719714,401,462,0,0,0,1,0,1,1,0004-00-0000-60.png,0005-00-0001-62.png
00000014,29,0,1449256722671,1449256723067,935,369,0,0,0,1,2,1,3,0004-00-0001-15.png,0003-00-0000-79.png
00000014,30,1,1449256726256,1449256726707,927,357,0,0,0,2,1,1,3,0003-00-0000-12.png,0004-00-0000-87.png
00000014,31,0,1449256727767,1449256728238,869,550,0,0,0,3,4,1,7,0002-00-0000-58.png,0001-00-0000-49.png
00000014,32,0,1449256731389,1449256731853,368,374,0,0,0,4,3,1,7,0001-00-0000-85.png,0002-00-0001-29.png
00000014,33,0,1449256734866,1449256735292,963,474,0,0,0,0,1,1,1,0005-00-0001-97.png,0004-00-0000-60.png
00000014,34,0,1449256738210,1449256738618,472,323,0,0,0,3,2,1,5,0002-00-0000-00.png,0003-00-0001-40.png
00000014,35,0,1449256741494,1449256741906,921,341,0,0,0,1,2,1,3,0004-00-0001-10.png,0003-00-0001-69.png
00000014,36,0,1449256745309,1449256745734,959,424,0,0,0,3,4,1,7,0002-00-0001-48.png,0001-00-0000-86.png
00000014,37,1,1449256748967,1449256749391,928,518,0,0,0,2,1,1,3,0003-00-0001-06.png,0004-00-0001-79.png
00000014,38,0,1449256750417,1449256750926,888,528,0,0,0,2,3,1,5,0003-00-0001-21.png,0002-00-0000-75.png
00000014,39,1,1449256753866,1449256754275,939,358,0,0,0,1,0,1,1,0004-00-0000-43.png,0005-00-0000-61.png
00000014,40,0,1449256755266,1449256755784,376,462,0,0,0,4,3,1,7,0001-00-0001-37.png,0002-00-0001-32.png
00000014,41,0,1449256758965,1449256759405,976,453,0,0,0,3,4,1,7,0002-00-0000-30.png,0001-00-0001-11.png
00000014,42,1,1449256762663,1449256763099,951,438,0,0,0,4,3,1,7,0001-00-0000-72.png,0002-00-0000-42.png
00000014,43,1,1449256764024,1449256764519,876,547,0,0,0,1,0,1,1,0004-00-0001-34.png,0005-00-0000-36.png
00000014,44,1,1449256765474,1449256765997,899,474,0,0,0,2,1,1,3,0003-00-0000-30.png,0004-00-0001-35.png
00000014,45,1,1449256767031,1449256768024,465,450,0,0,0,1,2,1,3,0004-00-0000-24.png,0003-00-0001-23.png
00000014,46,1,1449256768990,1449256769415,419,453,0,0,0,0,1,1,1,0005-00-0000-65.png,0004-00-0001-93.png
00000014,47,1,1449256770491,1449256771014,900,423,0,0,0,3,2,1,5,0002-00-0000-60.png,0003-00-0001-11.png
00000014,48,0,1449256772103,1449256772531,872,458,0,0,0,2,3,1,5,0003-00-0001-21.png,0002-00-0001-10.png
00000014,49,1,1449256778872,1449256779350,879,401,0,0,0,4,3,1,7,0001-00-0000-62.png,0002-00-0000-02.png
00000014,50,0,1449256780224,1449256780744,915,565,0,0,0,3,4,1,7,0002-00-0001-46.png,0001-00-0001-84.png
00000014,51,0,1449256786099,1449256786533,954,417,0,0,0,0,1,1,1,0005-00-0000-67.png,0004-00-0001-92.png
00000014,52,1,1449256789498,1449256789940,977,437,0,0,0,3,2,1,5,0002-00-0000-41.png,0003-00-0000-50.png
00000014,53,0,1449256790819,1449256791313,401,436,0,0,0,2,1,1,3,0003-00-0001-47.png,0004-00-0000-75.png
00000014,54,1,1449256794347,1449256794775,977,423,0,0,0,1,0,1,1,0004-00-0001-67.png,0005-00-0001-12.png
00000014,55,0,1449256796068,1449256796519,951,462,0,0,0,2,3,1,5,0003-00-0001-96.png,0002-00-0001-61.png
00000014,56,0,1449256799494,1449256799923,986,429,0,0,0,1,2,1,3,0004-00-0000-61.png,0003-00-0000-29.png
00000014,57,0,1449256802823,1449256803275,924,483,0,0,0,2,3,1,5,0003-00-0000-46.png,0002-00-0001-83.png
00000014,58,0,1449256807604,1449256808112,975,458,0,0,0,0,1,1,1,0005-00-0000-96.png,0004-00-0000-26.png
00000014,59,1,1449256811046,1449256811641,441,373,0,0,0,1,2,1,3,0004-00-0001-12.png,0003-00-0000-64.png
00000014,60,0,1449256812556,1449256812978,363,436,0,0,0,3,2,1,5,0002-00-0001-11.png,0003-00-0000-34.png
00000014,61,1,1449256816163,1449256816565,938,502,0,0,0,1,0,1,1,0004-00-0000-98.png,0005-00-0001-40.png
00000014,62,0,1449256817559,1449256818118,389,451,0,0,0,4,3,1,7,0001-00-0001-00.png,0002-00-0001-51.png
00000014,63,0,1449256821102,1449256821518,951,437,0,0,0,3,4,1,7,0002-00-0000-47.png,0001-00-0000-44.png
00000014,64,1,1449256825524,1449256825969,988,472,0,0,0,2,1,1,3,0003-00-0001-44.png,0004-00-0001-69.png
00000014,65,1,1449256826802,1449256827234,376,463,0,0,0,1,2,1,3,0004-00-0001-69.png,0003-00-0000-15.png
00000014,66,0,1449256828247,1449256828763,401,429,0,0,0,4,3,1,7,0001-00-0000-42.png,0002-00-0001-35.png
00000014,67,1,1449256832311,1449256832696,1001,410,0,0,0,1,0,1,1,0004-00-0000-24.png,0005-00-0000-22.png
00000014,68,1,1449256833593,1449256834120,925,464,0,0,0,2,1,1,3,0003-00-0000-52.png,0004-00-0001-17.png
00000014,69,0,1449256835044,1449256835607,900,465,0,0,0,2,3,1,5,0003-00-0000-24.png,0002-00-0000-71.png
00000014,70,1,1449256838631,1449256839064,978,442,0,0,0,3,2,1,5,0002-00-0001-72.png,0003-00-0000-38.png
00000014,71,0,1449256839932,1449256840442,915,466,0,0,0,3,4,1,7,0002-00-0000-15.png,0001-00-0000-60.png
00000014,72,0,1449256844226,1449256844616,922,418,0,0,0,0,1,1,1,0005-00-0000-25.png,0004-00-0000-52.png
00000014,73,1,1449256849247,1449256849616,998,420,0,0,0,4,3,1,7,0001-00-0000-22.png,0002-00-0000-60.png
00000014,74,0,1449256850450,1449256850995,925,463,0,0,0,2,3,1,5,0003-00-0001-47.png,0002-00-0001-76.png
00000014,75,1,1449256854484,1449256854936,967,468,0,0,0,1,0,1,1,0004-00-0000-79.png,0005-00-0000-84.png
00000014,76,1,1449256855824,1449256856318,376,474,0,0,0,1,2,1,3,0004-00-0001-26.png,0003-00-0001-32.png
00000014,77,1,1449256857316,1449256857739,395,489,0,0,0,3,4,1,7,0002-00-0000-66.png,0001-00-0001-60.png
00000014,78,1,1449256858656,1449256859777,945,455,0,0,0,2,1,1,3,0003-00-0000-23.png,0004-00-0000-41.png
00000014,79,0,1449256860732,1449256861137,462,502,0,0,0,3,2,1,5,0002-00-0001-77.png,0003-00-0000-70.png
00000014,80,0,1449256864342,1449256864762,926,435,0,0,0,0,1,1,1,0005-00-0000-74.png,0004-00-0001-94.png
00000014,81,0,1449256867610,1449256868178,299,478,0,0,0,2,1,1,3,0003-00-0000-85.png,0004-00-0001-26.png
00000014,82,1,1449256871616,1449256872061,979,440,0,0,0,3,2,1,5,0002-00-0000-27.png,0003-00-0001-61.png
00000014,83,0,1449256872958,1449256873504,876,547,0,0,0,1,2,1,3,0004-00-0001-88.png,0003-00-0001-53.png
00000014,84,0,1449256876524,1449256876971,925,516,0,0,0,3,4,1,7,0002-00-0000-75.png,0001-00-0001-91.png
00000014,85,0,1449256880015,1449256880467,413,405,0,0,0,4,3,1,7,0001-00-0000-78.png,0002-00-0000-11.png
00000014,86,0,1449256884656,1449256885019,1002,436,0,0,0,2,3,1,5,0003-00-0000-84.png,0002-00-0000-17.png
00000014,87,1,1449256888017,1449256888454,978,413,0,0,0,1,0,1,1,0004-00-0001-04.png,0005-00-0001-66.png
00000014,88,1,1449256889314,1449256889742,427,465,0,0,0,0,1,1,1,0005-00-0000-16.png,0004-00-0000-25.png
00000014,89,0,1449256890843,1449256891302,903,468,0,0,0,1,2,1,3,0004-00-0000-79.png,0003-00-0000-99.png
00000014,90,1,1449256894575,1449256894953,977,463,0,0,0,1,0,1,1,0004-00-0000-89.png,0005-00-0000-85.png
00000014,91,1,1449256895895,1449256896432,897,446,0,0,0,3,2,1,5,0002-00-0000-55.png,0003-00-0001-68.png
00000014,92,0,1449256897395,1449256897777,394,480,0,0,0,4,3,1,7,0001-00-0001-02.png,0002-00-0000-66.png
00000014,93,0,1449256901271,1449256901713,973,445,0,0,0,3,4,1,7,0002-00-0001-92.png,0001-00-0001-62.png
00000014,94,1,1449256906660,1449256907026,990,410,0,0,0,2,1,1,3,0003-00-0001-42.png,0004-00-0000-66.png
00000014,95,1,1449256907899,1449256908358,444,479,0,0,0,0,1,1,1,0005-00-0001-30.png,0004-00-0001-26.png
00000014,96,1,1449256909331,1449256909798,439,482,0,0,0,2,3,1,5,0003-00-0000-28.png,0002-00-0001-54.png
00000014,97,1,1449256910671,1449256911183,894,430,0,0,0,2,1,1,3,0003-00-0001-70.png,0004-00-0001-42.png
00000014,98,1,1449256912154,1449256912538,427,502,0,0,0,3,4,1,7,0002-00-0000-19.png,0001-00-0001-24.png
00000014,99,1,1449256913464,1449256913881,366,455,0,0,0,0,1,1,1,0005-00-0000-58.png,0004-00-0000-49.png
00000014,100,1,1449256914878,1449256915301,362,476,0,0,0,1,2,1,3,0004-00-0001-20.png,0003-00-0001-84.png
00000014,101,1,1449256916287,1449256916679,463,503,0,0,0,2,3,1,5,0003-00-0001-13.png,0002-00-0001-01.png
00000014,102,1,1449256917608,1449256918231,921,472,0,0,0,1,0,1,1,0004-00-0000-56.png,0005-00-0001-76.png
00000014,103,0,1449256919138,1449256919541,435,496,0,0,0,3,2,1,5,0002-00-0000-28.png,0003-00-0000-12.png
00000014,104,1,1449256922588,1449256923023,939,475,0,0,0,4,3,1,7,0001-00-0000-61.png,0002-00-0001-55.png
00000014,105,1,1449256923950,1449256924350,376,475,0,0,0,1,2,1,3,0004-00-0001-15.png,0003-00-0000-27.png
00000014,106,0,1449256925311,1449256926341,903,469,0,0,0,2,3,1,5,0003-00-0000-21.png,0002-00-0000-44.png
00000014,107,1,1449256930498,1449256930906,922,551,0,0,0,3,2,1,5,0002-00-0001-37.png,0003-00-0001-89.png
00000014,108,1,1449256931738,1449256932139,463,476,0,0,0,3,4,1,7,0002-00-0001-71.png,0001-00-0000-04.png
00000014,109,1,1449256933133,1449256933517,388,462,0,0,0,0,1,1,1,0005-00-0001-15.png,0004-00-0000-29.png
00000014,110,0,1449256934493,1449256934900,466,492,0,0,0,2,1,1,3,0003-00-0001-96.png,0004-00-0000-26.png
00000014,111,1,1449256938349,1449256938743,926,397,0,0,0,1,0,1,1,0004-00-0000-24.png,0005-00-0001-71.png
00000014,112,0,1449256939598,1449256939998,427,488,0,0,0,4,3,1,7,0001-00-0000-87.png,0002-00-0001-57.png
00000014,113,0,1449256943319,1449256943745,977,449,0,0,0,1,2,1,3,0004-00-0000-10.png,0003-00-0000-36.png
00000014,114,0,1449256947861,1449256948246,978,434,0,0,0,2,3,1,5,0003-00-0000-70.png,0002-00-0000-20.png
00000014,115,0,1449256951379,1449256951808,939,527,0,0,0,0,1,1,1,0005-00-0001-87.png,0004-00-0000-13.png
00000014,116,1,1449256954874,1449256955273,947,498,0,0,0,4,3,1,7,0001-00-0000-67.png,0002-00-0001-94.png
00000014,117,1,1449256956511,1449256956983,926,461,0,0,0,1,0,1,1,0004-00-0001-09.png,0005-00-0000-26.png
00000014,118,0,1449256957878,1449256958321,899,438,0,0,0,3,4,1,7,0002-00-0001-99.png,0001-00-0000-72.png
00000014,119,1,1449256961266,1449256961679,934,421,0,0,0,2,1,1,3,0003-00-0001-07.png,0004-00-0000-63.png
00000014,120,0,1449256962556,1449256962997,401,466,0,0,0,3,2,1,5,0002-00-0000-70.png,0003-00-0000-32.png
00000014,121,0,1449256967080,1449256967503,925,514,0,0,0,2,3,1,5,0003-00-0001-00.png,0002-00-0000-20.png
00000014,122,1,1449256971434,1449256971852,1003,436,0,0,0,2,1,1,3,0003-00-0001-20.png,0004-00-0000-21.png
00000014,123,1,1449256972723,1449256973237,927,476,0,0,0,3,2,1,5,0002-00-0000-38.png,0003-00-0000-05.png
00000014,124,1,1449256974145,1449256974558,447,496,0,0,0,3,4,1,7,0002-00-0000-66.png,0001-00-0001-87.png
00000014,125,0,1449256975547,1449256976054,901,487,0,0,0,1,2,1,3,0004-00-0000-82.png,0003-00-0000-65.png
00000014,126,0,1449256990804,1449256991210,442,415,0,0,0,4,3,1,7,0001-00-0001-22.png,0002-00-0000-88.png
00000014,127,0,1449256994087,1449256994456,952,409,0,0,0,0,1,1,1,0005-00-0000-13.png,0004-00-0001-98.png
00000014,128,1,1449256997505,1449256997932,926,513,0,0,0,1,0,1,1,0004-00-0001-66.png,0005-00-0001-06.png
00000014,129,0,1449256998859,1449256999426,925,439,0,0,0,1,2,1,3,0004-00-0000-27.png,0003-00-0001-85.png
00000014,130,0,1449257003808,1449257004224,926,410,0,0,0,3,4,1,7,0002-00-0000-46.png,0001-00-0001-92.png
00000014,131,1,1449257008489,1449257008843,939,358,0,0,0,1,0,1,1,0004-00-0000-68.png,0005-00-0000-26.png
00000014,132,0,1449257009719,1449257010169,325,475,0,0,0,4,3,1,7,0001-00-0000-70.png,0002-00-0000-09.png
00000014,133,1,1449257014441,1449257014932,441,389,0,0,0,0,1,1,1,0005-00-0000-85.png,0004-00-0000-04.png
00000014,134,0,1449257015811,1449257016268,915,475,0,0,0,2,3,1,5,0003-00-0001-20.png,0002-00-0000-17.png
00000014,135,1,1449257021061,1449257021453,959,429,0,0,0,2,1,1,3,0003-00-0001-89.png,0004-00-0000-99.png
00000014,136,1,1449257022700,1449257023163,862,514,0,0,0,3,2,1,5,0002-00-0000-34.png,0003-00-0000-88.png
00000014,137,0,1449257024040,1449257024525,922,472,0,0,0,2,3,1,5,0003-00-0000-25.png,0002-00-0001-02.png
00000014,138,0,1449257029408,1449257029826,974,461,0,0,0,0,1,1,1,0005-00-0001-26.png,0004-00-0001-48.png
00000014,139,1,1449257036073,1449257036081,492,265,0,0,0,3,4,1,7,0002-00-0001-17.png,0001-00-0001-66.png
00000014,140,1,1449257038171,1449257038519,988,424,0,0,0,1,0,1,1,0004-00-0000-24.png,0005-00-0001-04.png
00000014,141,1,1449257039485,1449257039999,868,429,0,0,0,3,2,1,5,0002-00-0001-41.png,0003-00-0000-37.png
00000014,142,1,1449257040914,1449257041416,888,398,0,0,0,2,1,1,3,0003-00-0000-77.png,0004-00-0000-89.png
00000014,143,0,1449257042375,1449257042815,401,449,0,0,0,4,3,1,7,0001-00-0001-27.png,0002-00-0001-19.png
00000014,144,1,1449257046030,1449257046862,493,414,0,0,0,1,2,1,3,0004-00-0000-95.png,0003-00-0001-84.png
00000014,145,0,1449257048147,1449257048590,947,471,0,0,0,2,3,1,5,0003-00-0001-71.png,0002-00-0001-80.png
00000014,146,0,1449257051933,1449257052322,934,499,0,0,0,1,2,1,3,0004-00-0000-91.png,0003-00-0000-73.png
00000014,147,1,1449257055474,1449257055855,952,476,0,0,0,3,2,1,5,0002-00-0000-32.png,0003-00-0001-72.png
00000014,148,0,1449257056707,1449257057347,912,475,0,0,0,3,4,1,7,0002-00-0000-88.png,0001-00-0000-79.png
00000014,149,1,1449257063295,1449257063719,980,438,0,0,0,2,1,1,3,0003-00-0001-64.png,0004-00-0001-65.png
00000014,150,1,1449257064636,1449257065260,941,501,0,0,0,1,0,1,1,0004-00-0000-78.png,0005-00-0000-44.png
00000014,151,0,1449257066184,1449257066627,350,462,0,0,0,4,3,1,7,0001-00-0001-53.png,0002-00-0001-84.png
00000014,152,0,1449257069942,1449257070385,900,471,0,0,0,0,1,1,1,0005-00-0001-55.png,0004-00-0000-28.png
00000014,153,0,1449257073293,1449257073710,954,441,0,0,0,3,4,1,7,0002-00-0001-36.png,0001-00-0001-02.png
00000014,154,1,1449257077446,1449257077930,273,448,0,0,0,0,1,1,1,0005-00-0000-13.png,0004-00-0000-07.png
00000014,155,0,1449257078795,1449257079329,914,475,0,0,0,1,2,1,3,0004-00-0001-41.png,0003-00-0000-66.png
00000014,156,1,1449257082282,1449257082745,947,445,0,0,0,2,1,1,3,0003-00-0001-09.png,0004-00-0001-36.png
00000014,157,1,1449257083580,1449257084058,928,495,0,0,0,1,0,1,1,0004-00-0000-00.png,0005-00-0000-09.png
00000014,158,0,1449257084948,1449257085475,901,487,0,0,0,2,3,1,5,0003-00-0000-50.png,0002-00-0000-27.png
00000014,159,1,1449257088689,1449257089101,889,418,0,0,0,3,2,1,5,0002-00-0000-46.png,0003-00-0000-05.png
00000014,160,0,1449257089946,1449257090379,458,491,0,0,0,4,3,1,7,0001-00-0001-86.png,0002-00-0001-69.png
00000014,161,0,1449257094616,1449257095001,954,493,0,0,0,3,4,1,7,0002-00-0001-46.png,0001-00-0000-21.png
00000014,162,0,1449257097835,1449257098296,951,429,0,0,0,0,1,1,1,0005-00-0001-73.png,0004-00-0000-18.png
00000014,163,1,1449257105294,1449257105670,1002,386,0,0,0,1,0,1,1,0004-00-0000-95.png,0005-00-0000-77.png
00000014,164,0,1449257106506,1449257107057,925,500,0,0,0,1,2,1,3,0004-00-0000-53.png,0003-00-0000-34.png
00000014,165,1,1449257111785,1449257112195,951,516,0,0,0,3,2,1,5,0002-00-0001-93.png,0003-00-0001-22.png
00000014,166,0,1449257113483,1449257113872,931,453,0,0,0,2,3,1,5,0003-00-0000-32.png,0002-00-0001-56.png
00000014,167,1,1449257117987,1449257118406,952,502,0,0,0,2,1,1,3,0003-00-0000-13.png,0004-00-0000-50.png
00000014,168,1,1449257119382,1449257119868,874,534,0,0,0,4,3,1,7,0001-00-0000-92.png,0002-00-0000-88.png
00000014,169,0,1449257120828,1449257121334,917,445,0,0,0,2,3,1,5,0003-00-0000-18.png,0002-00-0001-49.png
00000014,170,1,1449257124707,1449257125153,949,487,0,0,0,3,2,1,5,0002-00-0000-54.png,0003-00-0000-96.png
00000014,171,1,1449257126098,1449257126623,901,461,0,0,0,2,1,1,3,0003-00-0000-79.png,0004-00-0001-23.png
00000014,172,0,1449257127636,1449257128071,861,475,0,0,0,3,4,1,7,0002-00-0000-89.png,0001-00-0001-37.png
00000014,173,1,1449257131364,1449257131850,337,423,0,0,0,0,1,1,1,0005-00-0000-09.png,0004-00-0001-96.png
00000014,174,1,1449257132751,1449257133227,874,560,0,0,0,1,0,1,1,0004-00-0000-08.png,0005-00-0000-80.png
00000014,175,0,1449257134258,1449257134678,888,475,0,0,0,1,2,1,3,0004-00-0001-93.png,0003-00-0001-58.png
00000014,176,1,1449257139567,1449257139986,956,480,0,0,0,4,3,1,7,0001-00-0001-74.png,0002-00-0001-15.png
00000014,177,0,1449257140874,1449257141855,862,533,0,0,0,1,2,1,3,0004-00-0000-23.png,0003-00-0001-55.png
00000014,178,0,1449257145198,1449257145613,1015,449,0,0,0,2,3,1,5,0003-00-0000-14.png,0002-00-0000-16.png
00000014,179,1,1449257149234,1449257149630,925,490,0,0,0,2,1,1,3,0003-00-0000-46.png,0004-00-0000-45.png
00000014,180,1,1449257150537,1449257151039,951,489,0,0,0,1,0,1,1,0004-00-0001-56.png,0005-00-0001-88.png
00000014,181,0,1449257151989,1449257152464,907,474,0,0,0,3,4,1,7,0002-00-0001-57.png,0001-00-0001-44.png
00000014,182,1,1449257155514,1449257155904,975,431,0,0,0,4,3,1,7,0001-00-0001-73.png,0002-00-0001-04.png
00000014,183,1,1449257156763,1449257157221,389,462,0,0,0,0,1,1,1,0005-00-0001-99.png,0004-00-0001-67.png
00000014,184,0,1449257158168,1449257158581,410,472,0,0,0,3,2,1,5,0002-00-0001-16.png,0003-00-0000-58.png
00000014,185,0,1449257162978,1449257163418,955,495,0,0,0,3,4,1,7,0002-00-0001-19.png,0001-00-0001-16.png
00000014,186,1,1449257166337,1449257166699,939,502,0,0,0,2,1,1,3,0003-00-0001-18.png,0004-00-0001-49.png
00000014,187,0,1449257167601,1449257168139,896,498,0,0,0,0,1,1,1,0005-00-0000-69.png,0004-00-0000-54.png
00000014,188,1,1449257171346,1449257171790,950,494,0,0,0,1,0,1,1,0004-00-0001-79.png,0005-00-0000-71.png
00000014,189,0,1449257172686,1449257173220,889,497,0,0,0,2,3,1,5,0003-00-0000-39.png,0002-00-0000-25.png
00000014,190,0,1449257176275,1449257176690,989,450,0,0,0,1,2,1,3,0004-00-0000-09.png,0003-00-0000-30.png
00000014,191,1,1449257179840,1449257180318,926,528,0,0,0,4,3,1,7,0001-00-0001-37.png,0002-00-0001-18.png
00000014,192,1,1449257181231,1449257181860,901,450,0,0,0,3,2,1,5,0002-00-0001-03.png,0003-00-0001-26.png
00000014,193,1,1449257182744,1449257183160,414,476,0,0,0,0,1,1,1,0005-00-0001-27.png,0004-00-0000-17.png
00000014,194,0,1449257184186,1449257184672,888,476,0,0,0,1,2,1,3,0004-00-0000-27.png,0003-00-0000-22.png
00000014,195,0,1449257187813,1449257188353,422,415,0,0,0,4,3,1,7,0001-00-0000-82.png,0002-00-0001-99.png
00000014,196,1,1449257191550,1449257191954,974,463,0,0,0,2,1,1,3,0003-00-0001-84.png,0004-00-0000-98.png
00000014,197,1,1449257192801,1449257193350,898,512,0,0,0,3,2,1,5,0002-00-0000-37.png,0003-00-0000-66.png
00000014,198,0,1449257194273,1449257194769,898,483,0,0,0,3,4,1,7,0002-00-0001-91.png,0001-00-0001-13.png
00000014,199,0,1449257211708,1449257212112,994,451,0,0,0,2,3,1,5,0003-00-0001-77.png,0002-00-0000-62.png
00000014,200,1,1449257215058,1449257215529,926,461,0,0,0,1,0,1,1,0004-00-0001-75.png,0005-00-0001-24.png
00000014,201,0,1449257216750,1449257217161,904,532,0,0,0,1,2,1,3,0004-00-0000-82.png,0003-00-0000-63.png
00000014,202,1,1449257222036,1449257222403,976,490,0,0,0,2,1,1,3,0003-00-0001-82.png,0004-00-0000-24.png
00000014,203,1,1449257223276,1449257223791,934,473,0,0,0,1,0,1,1,0004-00-0000-45.png,0005-00-0001-89.png
00000014,204,0,1449257225165,1449257225584,914,502,0,0,0,2,3,1,5,0003-00-0001-82.png,0002-00-0001-64.png
00000014,205,1,1449257229409,1449257229795,976,437,0,0,0,3,2,1,5,0002-00-0001-23.png,0003-00-0000-22.png
00000014,206,1,1449257230762,1449257231252,365,477,0,0,0,0,1,1,1,0005-00-0001-19.png,0004-00-0000-62.png
00000014,207,0,1449257232273,1449257232778,903,496,0,0,0,3,4,1,7,0002-00-0000-13.png,0001-00-0000-91.png
00000014,208,1,1449257236220,1449257236646,976,448,0,0,0,4,3,1,7,0001-00-0000-54.png,0002-00-0001-16.png
00000014,209,1,1449257237509,1449257237917,440,489,0,0,0,0,1,1,1,0005-00-0001-15.png,0004-00-0000-45.png
00000014,210,0,1449257238841,1449257239302,390,475,0,0,0,2,1,1,3,0003-00-0000-44.png,0004-00-0001-27.png
00000014,211,1,1449257242533,1449257242985,960,420,0,0,0,3,2,1,5,0002-00-0001-89.png,0003-00-0001-66.png
00000014,212,0,1449257243880,1449257244397,900,490,0,0,0,2,3,1,5,0003-00-0001-44.png,0002-00-0001-36.png
00000014,213,1,1449257247678,1449257248051,982,401,0,0,0,4,3,1,7,0001-00-0000-41.png,0002-00-0001-37.png
00000014,214,1,1449257249683,1449257250118,934,473,0,0,0,1,0,1,1,0004-00-0000-13.png,0005-00-0000-70.png
00000014,215,1,1449257251065,1449257251497,442,470,0,0,0,3,4,1,7,0002-00-0000-23.png,0001-00-0000-18.png
00000014,216,0,1449257252406,1449257252915,875,488,0,0,0,1,2,1,3,0004-00-0001-75.png,0003-00-0001-20.png
00000014,217,1,1449257256066,1449257256439,912,529,0,0,0,3,2,1,5,0002-00-0000-81.png,0003-00-0000-09.png
00000014,218,0,1449257257373,1449257257890,899,475,0,0,0,1,2,1,3,0004-00-0001-76.png,0003-00-0001-85.png
00000014,219,1,1449257260885,1449257261297,901,503,0,0,0,4,3,1,7,0001-00-0001-78.png,0002-00-0001-99.png
00000014,220,1,1449257262166,1449257262842,926,501,0,0,0,1,0,1,1,0004-00-0001-76.png,0005-00-0001-15.png
00000014,221,1,1449257263815,1449257264315,898,511,0,0,0,2,1,1,3,0003-00-0001-23.png,0004-00-0000-76.png
00000014,222,0,1449257265242,1449257265770,900,491,0,0,0,3,4,1,7,0002-00-0000-16.png,0001-00-0000-34.png
00000014,223,0,1449257271318,1449257271729,977,462,0,0,0,2,3,1,5,0003-00-0001-91.png,0002-00-0000-47.png
00000014,224,1,1449257275116,1449257275596,394,426,0,0,0,0,1,1,1,0005-00-0001-37.png,0004-00-0001-87.png
00000014,225,0,1449257276442,1449257276979,927,502,0,0,0,3,4,1,7,0002-00-0000-53.png,0001-00-0001-44.png
00000014,226,1,1449257279996,1449257280454,970,460,0,0,0,2,1,1,3,0003-00-0001-63.png,0004-00-0001-29.png
00000014,227,0,1449257281779,1449257282228,926,487,0,0,0,2,3,1,5,0003-00-0001-99.png,0002-00-0001-59.png
00000014,228,0,1449257285252,1449257285664,924,445,0,0,0,0,1,1,1,0005-00-0000-51.png,0004-00-0000-13.png
00000014,229,0,1449257288594,1449257289114,386,406,0,0,0,4,3,1,7,0001-00-0000-15.png,0002-00-0001-65.png
00000014,230,1,1449257292251,1449257292683,952,528,0,0,0,1,0,1,1,0004-00-0001-83.png,0005-00-0001-39.png
00000014,231,0,1449257293559,1449257293975,422,513,0,0,0,3,2,1,5,0002-00-0000-97.png,0003-00-0001-65.png
00000014,232,0,1449257296869,1449257297354,995,493,0,0,0,1,2,1,3,0004-00-0001-33.png,0003-00-0000-52.png
00000014,233,0,1449257300519,1449257300909,1004,441,0,0,0,0,1,1,1,0005-00-0001-06.png,0004-00-0000-89.png
00000014,234,1,1449257303945,1449257304383,926,502,0,0,0,1,0,1,1,0004-00-0000-31.png,0005-00-0001-37.png
00000014,235,0,1449257305428,1449257306073,951,464,0,0,0,3,4,1,7,0002-00-0000-70.png,0001-00-0001-31.png
00000014,236,1,1449257308935,1449257309658,898,383,0,0,0,3,2,1,5,0002-00-0001-24.png,0003-00-0001-79.png
00000014,237,1,1449257310585,1449257311130,926,462,0,0,0,4,3,1,7,0001-00-0000-38.png,0002-00-0001-87.png
00000014,238,0,1449257312145,1449257312651,881,496,0,0,0,2,3,1,5,0003-00-0001-15.png,0002-00-0000-88.png
00000014,239,1,1449257315633,1449257316218,385,437,0,0,0,1,2,1,3,0004-00-0000-77.png,0003-00-0000-49.png
00000014,240,1,1449257317145,1449257317737,907,500,0,0,0,2,1,1,3,0003-00-0001-49.png,0004-00-0000-01.png
00000014,241,1,1449257318773,1449257319219,420,496,0,0,0,1,2,1,3,0004-00-0001-74.png,0003-00-0001-78.png
00000014,242,1,1449257320298,1449257320815,415,486,0,0,0,0,1,1,1,0005-00-0001-81.png,0004-00-0001-46.png
00000014,243,1,1449257321856,1449257322765,940,476,0,0,0,3,2,1,5,0002-00-0001-98.png,0003-00-0001-19.png
00000014,244,1,1449257323760,1449257324201,861,476,0,0,0,2,1,1,3,0003-00-0001-67.png,0004-00-0000-76.png
00000014,245,0,1449257325266,1449257325737,872,508,0,0,0,3,4,1,7,0002-00-0001-81.png,0001-00-0000-88.png
00000014,246,0,1449257328709,1449257329148,978,488,0,0,0,2,3,1,5,0003-00-0000-34.png,0002-00-0000-67.png
00000014,247,1,1449257332019,1449257332431,951,493,0,0,0,1,0,1,1,0004-00-0000-10.png,0005-00-0000-80.png
00000014,248,0,1449257333322,1449257333700,357,472,0,0,0,4,3,1,7,0001-00-0000-88.png,0002-00-0000-53.png
00000014,249,0,1449257336772,1449257337284,402,418,0,0,0,4,3,1,7,0001-00-0000-62.png,0002-00-0001-32.png
00000014,250,0,1449257340488,1449257340943,950,490,0,0,0,1,2,1,3,0004-00-0000-16.png,0003-00-0000-08.png
00000014,251,1,1449257344118,1449257344565,898,409,0,0,0,2,1,1,3,0003-00-0000-42.png,0004-00-0000-54.png
00000014,252,0,1449257345477,1449257345946,375,455,0,0,0,3,2,1,5,0002-00-0000-47.png,0003-00-0000-95.png
00000014,253,0,1449257349136,1449257349568,950,431,0,0,0,3,4,1,7,0002-00-0000-24.png,0001-00-0001-16.png
00000014,254,1,1449257352543,1449257352991,965,423,0,0,0,1,0,1,1,0004-00-0001-71.png,0005-00-0001-08.png
00000014,255,0,1449257353925,1449257354409,917,486,0,0,0,2,3,1,5,0003-00-0001-98.png,0002-00-0001-17.png
00000014,256,0,1449257357543,1449257358236,878,480,0,0,0,0,1,1,1,0005-00-0000-77.png,0004-00-0000-17.png
00000014,257,1,1449257361359,1449257361761,1003,436,0,0,0,3,2,1,5,0002-00-0001-00.png,0003-00-0001-63.png
00000014,258,1,1449257362702,1449257363189,408,468,0,0,0,3,4,1,7,0002-00-0000-19.png,0001-00-0000-52.png
00000014,259,1,1449257364291,1449257364733,896,472,0,0,0,2,1,1,3,0003-00-0000-38.png,0004-00-0001-97.png
00000014,260,0,1449257365758,1449257366254,899,482,0,0,0,2,3,1,5,0003-00-0000-03.png,0002-00-0001-13.png
00000014,261,0,1449257369389,1449257369826,971,435,0,0,0,1,2,1,3,0004-00-0001-30.png,0003-00-0001-76.png
00000014,262,0,1449257372857,1449257373292,975,459,0,0,0,0,1,1,1,0005-00-0001-41.png,0004-00-0000-01.png
00000014,263,1,1449257376372,1449257376819,925,401,0,0,0,4,3,1,7,0001-00-0000-65.png,0002-00-0001-99.png
00000014,264,0,1449257377734,1449257378249,445,455,0,0,0,1,0,1,1,0004-00-0000-60.png,0005-00-0001-06.png
00000014,265,1,1449257381275,1449257381907,901,476,0,0,0,3,2,1,5,0002-00-0000-07.png,0003-00-0001-31.png
00000014,266,0,1449257382866,1449257383809,965,501,0,0,0,0,1,1,1,0005-00-0001-39.png,0004-00-0001-03.png
00000014,267,0,1449257386722,1449257387333,376,390,0,0,0,4,3,1,7,0001-00-0001-23.png,0002-00-0000-45.png
00000014,268,1,1449257390388,1449257390805,939,502,0,0,0,1,0,1,1,0004-00-0000-47.png,0005-00-0001-74.png
00000014,269,1,1449257391818,1449257392316,897,471,0,0,0,2,1,1,3,0003-00-0000-06.png,0004-00-0001-48.png
00000014,270,0,1449257393658,1449257394077,888,501,0,0,0,2,3,1,5,0003-00-0000-46.png,0002-00-0000-09.png
00000014,271,0,1449257397064,1449257397449,926,476,0,0,0,3,4,1,7,0002-00-0000-25.png,0001-00-0001-29.png
00000014,272,0,1449257400655,1449257401097,977,463,0,0,0,1,2,1,3,0004-00-0001-40.png,0003-00-0001-13.png
00000014,273,0,1449257404063,1449257404457,964,422,0,0,0,2,3,1,5,0003-00-0000-50.png,0002-00-0000-06.png
00000014,274,0,1449257407791,1449257408265,933,500,0,0,0,1,2,1,3,0004-00-0001-14.png,0003-00-0000-32.png
00000014,275,1,1449257411291,1449257411720,940,449,0,0,0,1,0,1,1,0004-00-0001-54.png,0005-00-0000-08.png
00000014,276,0,1449257412665,1449257413151,939,475,0,0,0,3,4,1,7,0002-00-0000-59.png,0001-00-0000-26.png
00000014,277,1,1449257416577,1449257416955,1016,423,0,0,0,2,1,1,3,0003-00-0001-94.png,0004-00-0000-13.png
00000014,278,1,1449257417869,1449257418738,956,480,0,0,0,4,3,1,7,0001-00-0001-05.png,0002-00-0000-50.png
00000014,279,1,1449257419713,1449257420145,409,472,0,0,0,0,1,1,1,0005-00-0000-20.png,0004-00-0001-53.png
00000014,280,0,1449257421171,1449257421589,414,475,0,0,0,3,2,1,5,0002-00-0000-50.png,0003-00-0000-90.png
00000014,281,0,1449257424466,1449257425012,404,405,0,0,0,3,2,1,5,0002-00-0001-27.png,0003-00-0000-12.png
00000014,282,0,1449257428821,1449257429244,970,440,0,0,0,1,2,1,3,0004-00-0000-09.png,0003-00-0001-08.png
00000014,283,1,1449257432078,1449257432482,925,501,0,0,0,4,3,1,7,0001-00-0001-03.png,0002-00-0001-34.png
00000014,284,0,1449257433401,1449257433917,900,464,0,0,0,2,3,1,5,0003-00-0000-31.png,0002-00-0000-47.png
00000014,285,0,1449257436980,1449257437373,952,449,0,0,0,3,4,1,7,0002-00-0001-87.png,0001-00-0001-64.png
00000014,286,1,1449257440548,1449257441081,394,416,0,0,0,0,1,1,1,0005-00-0000-52.png,0004-00-0000-86.png
00000014,287,1,1449257442056,1449257442523,913,481,0,0,0,1,0,1,1,0004-00-0000-16.png,0005-00-0000-12.png
00000014,288,1,1449257443495,1449257444040,915,467,0,0,0,2,1,1,3,0003-00-0000-02.png,0004-00-0000-00.png
00000014,289,1,1449257445534,1449257446000,350,397,0,0,0,0,1,1,1,0005-00-0001-46.png,0004-00-0000-50.png
00000014,290,1,1449257447018,1449257447523,913,449,0,0,0,1,0,1,1,0004-00-0001-85.png,0005-00-0000-78.png
00000014,291,1,1449257448537,1449257449092,890,537,0,0,0,2,1,1,3,0003-00-0000-47.png,0004-00-0001-04.png
00000014,292,0,1449257450178,1449257450632,876,494,0,0,0,1,2,1,3,0004-00-0000-63.png,0003-00-0000-51.png
00000014,293,1,1449257453557,1449257454148,950,483,0,0,0,3,2,1,5,0002-00-0001-15.png,0003-00-0000-96.png
00000014,294,1,1449257455135,1449257456090,922,427,0,0,0,4,3,1,7,0001-00-0001-28.png,0002-00-0001-08.png
00000014,295,0,1449257457485,1449257457888,894,476,0,0,0,3,4,1,7,0002-00-0000-36.png,0001-00-0001-16.png
00000014,296,0,1449257460843,1449257461260,898,538,0,0,0,2,3,1,5,0003-00-0001-63.png,0002-00-0001-27.png
00000014,297,0,1449257464527,1449257464951,953,462,0,0,0,1,2,1,3,0004-00-0000-77.png,0003-00-0001-71.png
00000014,298,1,1449257467952,1449257468399,951,448,0,0,0,2,1,1,3,0003-00-0001-31.png,0004-00-0001-75.png
00000014,299,0,1449257469856,1449257470290,886,452,0,0,0,2,3,1,5,0003-00-0000-82.png,0002-00-0000-02.png
00000014,300,1,1449257473298,1449257473739,951,413,0,0,0,1,0,1,1,0004-00-0000-86.png,0005-00-0000-28.png
00000014,301,0,1449257474664,1449257475192,901,476,0,0,0,3,4,1,7,0002-00-0000-62.png,0001-00-0000-11.png
00000014,302,1,1449257478315,1449257478895,350,384,0,0,0,0,1,1,1,0005-00-0000-83.png,0004-00-0000-49.png
00000014,303,0,1449257479824,1449257480302,421,463,0,0,0,3,2,1,5,0002-00-0001-85.png,0003-00-0001-76.png
00000014,304,0,1449257483154,1449257483661,364,382,0,0,0,4,3,1,7,0001-00-0001-79.png,0002-00-0000-57.png
00000014,305,1,1449257486645,1449257487037,926,371,0,0,0,1,0,1,1,0004-00-0001-36.png,0005-00-0001-04.png
00000014,306,1,1449257487971,1449257488393,411,459,0,0,0,0,1,1,1,0005-00-0000-17.png,0004-00-0000-93.png
00000014,307,0,1449257489416,1449257489909,905,480,0,0,0,2,3,1,5,0003-00-0001-05.png,0002-00-0000-63.png
00000014,308,1,1449257492904,1449257493338,965,449,0,0,0,2,1,1,3,0003-00-0001-08.png,0004-00-0000-35.png
00000014,309,0,1449257494265,1449257494751,871,444,0,0,0,3,4,1,7,0002-00-0001-79.png,0001-00-0001-13.png
00000014,310,1,1449257498099,1449257498534,977,464,0,0,0,3,2,1,5,0002-00-0001-25.png,0003-00-0000-52.png
00000014,311,0,1449257499472,1449257499989,927,470,0,0,0,1,2,1,3,0004-00-0001-80.png,0003-00-0001-20.png
00000014,312,1,1449257503131,1449257503595,977,437,0,0,0,4,3,1,7,0001-00-0001-50.png,0002-00-0000-77.png
00000014,313,1,1449257504921,1449257505673,878,400,0,0,0,4,3,1,7,0001-00-0001-49.png,0002-00-0000-29.png
00000014,314,1,1449257506710,1449257507126,410,471,0,0,0,1,2,1,3,0004-00-0000-06.png,0003-00-0001-92.png
00000014,315,1,1449257508210,1449257508769,360,402,0,0,0,2,3,1,5,0003-00-0000-47.png,0002-00-0000-04.png
00000014,316,0,1449257509895,1449257510411,887,528,0,0,0,3,4,1,7,0002-00-0000-04.png,0001-00-0000-18.png
00000014,317,1,1449257513295,1449257513784,380,431,0,0,0,0,1,1,1,0005-00-0001-20.png,0004-00-0000-82.png
00000014,318,1,1449257514820,1449257515318,913,476,0,0,0,2,1,1,3,0003-00-0000-60.png,0004-00-0001-68.png
00000014,319,1,1449257516359,1449257516866,925,489,0,0,0,1,0,1,1,0004-00-0000-38.png,0005-00-0001-54.png
00000014,320,1,1449257517897,1449257518365,874,463,0,0,0,3,2,1,5,0002-00-0001-44.png,0003-00-0001-53.png
00000014,321,0,1449257520276,1449257520724,382,434,0,0,0,4,3,1,7,0001-00-0001-05.png,0002-00-0001-62.png
00000014,322,1,1449257523853,1449257524258,951,449,0,0,0,1,0,1,1,0004-00-0000-74.png,0005-00-0001-55.png
00000014,323,1,1449257525275,1449257525748,887,502,0,0,0,2,1,1,3,0003-00-0000-71.png,0004-00-0000-04.png
00000014,324,0,1449257527230,1449257528208,948,466,0,0,0,3,4,1,7,0002-00-0001-97.png,0001-00-0000-40.png
00000014,325,0,1449257531258,1449257531711,911,500,0,0,0,1,2,1,3,0004-00-0001-95.png,0003-00-0000-84.png
00000014,326,0,1449257534815,1449257535223,954,466,0,0,0,2,3,1,5,0003-00-0001-45.png,0002-00-0001-16.png
00000014,327,0,1449257538513,1449257538968,901,528,0,0,0,0,1,1,1,0005-00-0000-97.png,0004-00-0000-83.png
00000014,328,0,1449257542127,1449257542594,444,471,0,0,0,3,2,1,5,0002-00-0000-84.png,0003-00-0001-22.png
00000014,329,1,1449257545568,1449257546022,977,423,0,0,0,1,0,1,1,0004-00-0001-01.png,0005-00-0000-47.png
00000014,330,1,1449257546960,1449257547478,427,449,0,0,0,0,1,1,1,0005-00-0001-29.png,0004-00-0001-30.png
00000014,331,0,1449257548471,1449257549026,926,436,0,0,0,3,4,1,7,0002-00-0001-41.png,0001-00-0000-13.png
00000014,332,0,1449257552039,1449257552471,952,449,0,0,0,2,3,1,5,0003-00-0000-27.png,0002-00-0001-18.png
00000014,333,1,1449257555587,1449257556033,977,450,0,0,0,2,1,1,3,0003-00-0000-91.png,0004-00-0001-28.png
00000014,334,0,1449257556929,1449257557343,337,502,0,0,0,3,2,1,5,0002-00-0001-94.png,0003-00-0001-51.png
00000014,335,0,1449257560486,1449257560888,892,402,0,0,0,1,2,1,3,0004-00-0000-17.png,0003-00-0000-84.png
00000014,336,1,1449257564147,1449257564541,973,417,0,0,0,4,3,1,7,0001-00-0000-10.png,0002-00-0001-71.png
00000014,337,1,1449257565526,1449257565929,350,449,0,0,0,0,1,1,1,0005-00-0000-83.png,0004-00-0000-85.png
00000014,338,1,1449257566917,1449257567367,370,452,0,0,0,3,4,1,7,0002-00-0001-21.png,0001-00-0001-16.png
00000014,339,0,1449257568390,1449257568940,919,461,0,0,0,2,3,1,5,0003-00-0001-99.png,0002-00-0001-19.png
00000014,340,0,1449257572082,1449257572470,977,437,0,0,0,1,2,1,3,0004-00-0001-21.png,0003-00-0001-56.png
00000014,341,1,1449257575639,1449257576036,925,515,0,0,0,3,2,1,5,0002-00-0001-37.png,0003-00-0001-72.png
00000014,342,1,1449257577074,1449257577570,879,453,0,0,0,4,3,1,7,0001-00-0000-38.png,0002-00-0001-51.png
00000014,343,1,1449257578580,1449257579082,872,459,0,0,0,1,0,1,1,0004-00-0001-84.png,0005-00-0000-71.png
00000014,344,1,1449257580103,1449257580588,877,493,0,0,0,2,1,1,3,0003-00-0000-86.png,0004-00-0001-18.png
00000014,345,1,1449257581645,1449257582188,417,493,0,0,0,2,3,1,5,0003-00-0000-79.png,0002-00-0001-52.png
00000014,346,1,1449257583276,1449257583754,874,489,0,0,0,3,2,1,5,0002-00-0000-61.png,0003-00-0000-13.png
00000014,347,0,1449257584787,1449257585172,376,477,0,0,0,2,1,1,3,0003-00-0000-01.png,0004-00-0000-30.png
00000014,348,1,1449257590999,1449257591422,977,463,0,0,0,1,0,1,1,0004-00-0000-96.png,0005-00-0000-53.png
00000014,349,1,1449257592475,1449257593005,900,489,0,0,0,4,3,1,7,0001-00-0000-67.png,0002-00-0000-17.png
00000014,350,0,1449257594428,1449257594851,900,488,0,0,0,3,4,1,7,0002-00-0001-35.png,0001-00-0001-00.png
00000014,351,0,1449257598462,1449257599045,956,454,0,0,0,0,1,1,1,0005-00-0000-12.png,0004-00-0000-97.png
00000014,352,1,1449257603331,1449257603928,376,369,0,0,0,1,2,1,3,0004-00-0000-02.png,0003-00-0001-41.png
00000014,353,0,1449257604811,1449257605286,370,478,0,0,0,4,3,1,7,0001-00-0001-03.png,0002-00-0001-13.png
00000014,354,1,1449257608678,1449257609314,413,395,0,0,0,0,1,1,1,0005-00-0001-18.png,0004-00-0001-80.png
00000014,355,1,1449257610626,1449257611029,876,436,0,0,0,2,1,1,3,0003-00-0001-95.png,0004-00-0000-18.png
00000014,356,1,1449257612027,1449257612466,905,505,0,0,0,3,2,1,5,0002-00-0001-20.png,0003-00-0000-05.png
00000014,357,1,1449257613430,1449257613898,879,480,0,0,0,1,0,1,1,0004-00-0000-81.png,0005-00-0000-21.png
00000014,358,0,1449257614858,1449257615351,876,468,0,0,0,3,4,1,7,0002-00-0000-91.png,0001-00-0000-78.png
00000014,359,0,1449257619489,1449257619968,964,501,0,0,0,1,2,1,3,0004-00-0000-76.png,0003-00-0000-91.png
00000014,360,0,1449257622960,1449257623373,974,437,0,0,0,2,3,1,5,0003-00-0001-94.png,0002-00-0001-36.png
00000014,361,1,1449257627033,1449257627452,973,493,0,0,0,3,2,1,5,0002-00-0001-64.png,0003-00-0000-38.png
00000014,362,0,1449257628842,1449257629269,913,476,0,0,0,3,4,1,7,0002-00-0000-89.png,0001-00-0000-88.png
00000014,363,0,1449257632270,1449257632689,926,449,0,0,0,2,3,1,5,0003-00-0000-61.png,0002-00-0001-89.png
00000014,364,1,1449257635608,1449257636073,990,436,0,0,0,4,3,1,7,0001-00-0001-17.png,0002-00-0001-38.png
00000014,365,1,1449257636992,1449257637446,418,480,0,0,0,1,2,1,3,0004-00-0000-08.png,0003-00-0001-40.png
00000014,366,1,1449257638353,1449257638861,863,449,0,0,0,2,1,1,3,0003-00-0001-41.png,0004-00-0000-45.png
00000014,367,1,1449257640034,1449257640589,898,509,0,0,0,1,0,1,1,0004-00-0001-53.png,0005-00-0000-71.png
00000014,368,1,1449257641623,1449257642055,393,480,0,0,0,0,1,1,1,0005-00-0000-52.png,0004-00-0000-55.png
00000014,369,1,1449257643091,1449257643541,419,505,0,0,0,0,1,1,1,0005-00-0000-55.png,0004-00-0000-58.png
00000014,370,0,1449257644524,1449257645038,861,476,0,0,0,1,2,1,3,0004-00-0000-48.png,0003-00-0000-52.png
00000014,371,0,1449257648133,1449257648559,978,435,0,0,0,2,3,1,5,0003-00-0000-25.png,0002-00-0001-88.png
00000014,372,0,1449257651453,1449257651905,975,431,0,0,0,3,4,1,7,0002-00-0000-38.png,0001-00-0000-68.png
00000014,373,0,1449257654928,1449257655403,420,410,0,0,0,4,3,1,7,0001-00-0000-27.png,0002-00-0001-24.png
00000014,374,0,1449257661612,1449257662095,390,392,0,0,0,3,2,1,5,0002-00-0001-94.png,0003-00-0000-02.png
00000014,375,1,1449257665271,1449257665694,975,488,0,0,0,1,0,1,1,0004-00-0000-71.png,0005-00-0000-44.png
00000014,376,0,1449257666624,1449257667115,396,473,0,0,0,2,1,1,3,0003-00-0001-08.png,0004-00-0000-48.png
00000014,377,1,1449257670240,1449257670646,931,523,0,0,0,3,2,1,5,0002-00-0000-94.png,0003-00-0001-28.png
00000014,378,0,1449257671563,1449257672052,907,474,0,0,0,2,3,1,5,0003-00-0001-88.png,0002-00-0000-66.png
00000014,379,0,1449257674929,1449257675350,900,503,0,0,0,3,4,1,7,0002-00-0000-01.png,0001-00-0000-25.png
00000014,380,1,1449257678632,1449257679063,1010,473,0,0,0,1,0,1,1,0004-00-0000-82.png,0005-00-0000-77.png
00000014,381,1,1449257679927,1449257680384,478,488,0,0,0,0,1,1,1,0005-00-0001-94.png,0004-00-0000-49.png
00000014,382,0,1449257681357,1449257681750,437,485,0,0,0,4,3,1,7,0001-00-0001-77.png,0002-00-0001-13.png
00000014,383,0,1449257685080,1449257685454,952,423,0,0,0,1,2,1,3,0004-00-0001-91.png,0003-00-0001-90.png
00000014,384,1,1449257690695,1449257691068,975,456,0,0,0,2,1,1,3,0003-00-0000-89.png,0004-00-0000-53.png
00000014,385,1,1449257692425,1449257693056,879,559,0,0,0,3,2,1,5,0002-00-0001-96.png,0003-00-0000-80.png
00000014,386,1,1449257694004,1449257694494,902,521,0,0,0,2,1,1,3,0003-00-0001-88.png,0004-00-0001-13.png
00000014,387,1,1449257695524,1449257695996,868,508,0,0,0,1,0,1,1,0004-00-0000-43.png,0005-00-0001-95.png
00000014,388,0,1449257696930,1449257697947,906,484,0,0,0,2,3,1,5,0003-00-0000-46.png,0002-00-0001-80.png
00000014,389,1,1449257701177,1449257701694,446,457,0,0,0,0,1,1,1,0005-00-0000-07.png,0004-00-0001-29.png
00000014,390,0,1449257702646,1449257703168,900,502,0,0,0,3,4,1,7,0002-00-0001-25.png,0001-00-0001-22.png
00000014,391,1,1449257706428,1449257706852,975,455,0,0,0,4,3,1,7,0001-00-0001-52.png,0002-00-0001-43.png
00000014,392,1,1449257707750,1449257708157,461,498,0,0,0,1,2,1,3,0004-00-0000-11.png,0003-00-0001-49.png
00000014,393,1,1449257709117,1449257709588,394,479,0,0,0,1,2,1,3,0004-00-0000-32.png,0003-00-0001-52.png
00000014,394,1,1449257710580,1449257711052,874,465,0,0,0,1,0,1,1,0004-00-0001-22.png,0005-00-0001-49.png
00000014,395,0,1449257712033,1449257712413,461,510,0,0,0,2,1,1,3,0003-00-0001-19.png,0004-00-0001-40.png
00000014,396,0,1449257716082,1449257716654,410,456,0,0,0,3,2,1,5,0002-00-0001-28.png,0003-00-0000-54.png
00000014,397,0,1449257719913,1449257720321,977,439,0,0,0,3,4,1,7,0002-00-0001-21.png,0001-00-0001-80.png
00000014,398,1,1449257724148,1449257724642,1001,457,0,0,0,4,3,1,7,0001-00-0001-57.png,0002-00-0000-92.png
00000014,399,0,1449257725566,1449257726073,925,491,0,0,0,2,3,1,5,0003-00-0000-93.png,0002-00-0001-94.png
00000014,400,0,1449257729181,1449257729628,977,437,0,0,0,0,1,1,1,0005-00-0000-21.png,0004-00-0000-03.png
00000014,401,1,1449257732488,1449257732893,926,528,0,0,0,3,2,1,5,0002-00-0001-42.png,0003-00-0000-85.png
00000014,402,0,1449257733790,1449257734269,920,493,0,0,0,2,3,1,5,0003-00-0001-83.png,0002-00-0000-60.png
00000014,403,0,1449257737614,1449257738001,913,526,0,0,0,0,1,1,1,0005-00-0000-01.png,0004-00-0001-54.png
00000014,404,0,1449257741139,1449257741565,904,380,0,0,0,3,4,1,7,0002-00-0001-29.png,0001-00-0000-59.png
00000014,405,1,1449257744718,1449257745139,1000,432,0,0,0,2,1,1,3,0003-00-0001-68.png,0004-00-0001-12.png
00000014,406,1,1449257746468,1449257746869,932,474,0,0,0,1,0,1,1,0004-00-0000-28.png,0005-00-0000-28.png
00000014,407,0,1449257747833,1449257748311,872,457,0,0,0,1,2,1,3,0004-00-0001-88.png,0003-00-0001-48.png
00000014,408,1,1449257753515,1449257754010,967,469,0,0,0,4,3,1,7,0001-00-0000-21.png,0002-00-0001-94.png
00000014,409,1,1449257754945,1449257755347,401,503,0,0,0,2,3,1,5,0003-00-0000-42.png,0002-00-0001-81.png
00000014,410,0,1449257756300,1449257756808,899,501,0,0,0,1,2,1,3,0004-00-0000-93.png,0003-00-0000-20.png
00000014,411,1,1449257760587,1449257761046,971,467,0,0,0,2,1,1,3,0003-00-0001-33.png,0004-00-0000-65.png
00000014,412,0,1449257762019,1449257762495,382,465,0,0,0,4,3,1,7,0001-00-0000-77.png,0002-00-0000-14.png
00000014,413,1,1449257766743,1449257767116,939,462,0,0,0,3,2,1,5,0002-00-0000-45.png,0003-00-0001-85.png
00000014,414,0,1449257768033,1449257768591,899,491,0,0,0,3,4,1,7,0002-00-0001-41.png,0001-00-0000-02.png
00000014,415,1,1449257772450,1449257772892,358,419,0,0,0,0,1,1,1,0005-00-0001-12.png,0004-00-0000-68.png
00000014,416,1,1449257773728,1449257774185,901,502,0,0,0,1,0,1,1,0004-00-0001-30.png,0005-00-0000-87.png
00000014,417,1,1449257775150,1449257776029,463,455,0,0,0,1,2,1,3,0004-00-0000-08.png,0003-00-0000-67.png
00000014,418,1,1449257776977,1449257777362,434,473,0,0,0,0,1,1,1,0005-00-0001-79.png,0004-00-0001-36.png
00000014,419,1,1449257778297,1449257778798,395,452,0,0,0,3,4,1,7,0002-00-0000-60.png,0001-00-0000-25.png
00000014,420,0,1449257779763,1449257780221,478,489,0,0,0,3,2,1,5,0002-00-0001-87.png,0003-00-0001-31.png
00000014,421,1,1449257783928,1449257784343,918,544,0,0,0,4,3,1,7,0001-00-0001-87.png,0002-00-0001-78.png
00000014,422,1,1449257785259,1449257785722,912,502,0,0,0,1,0,1,1,0004-00-0001-77.png,0005-00-0000-51.png
00000014,423,0,1449257786699,1449257787269,900,475,0,0,0,2,3,1,5,0003-00-0001-03.png,0002-00-0000-25.png
00000014,424,1,1449257790370,1449257790737,951,462,0,0,0,2,1,1,3,0003-00-0001-92.png,0004-00-0000-83.png
00000014,425,0,1449257791643,1449257792252,912,502,0,0,0,0,1,1,1,0005-00-0000-11.png,0004-00-0001-44.png
00000014,426,0,1449257795332,1449257795744,953,441,0,0,0,3,4,1,7,0002-00-0000-78.png,0001-00-0000-04.png
00000014,427,0,1449257798679,1449257799147,977,435,0,0,0,1,2,1,3,0004-00-0001-66.png,0003-00-0001-33.png
00000014,428,0,1449257802150,1449257802584,967,449,0,0,0,2,3,1,5,0003-00-0000-93.png,0002-00-0001-79.png
00000014,429,1,1449257805469,1449257805874,956,402,0,0,0,2,1,1,3,0003-00-0001-63.png,0004-00-0001-08.png
00000014,430,0,1449257806802,1449257807234,364,476,0,0,0,3,2,1,5,0002-00-0000-33.png,0003-00-0000-22.png
00000014,431,1,1449257810170,1449257810594,926,514,0,0,0,1,0,1,1,0004-00-0001-02.png,0005-00-0000-36.png
00000014,432,0,1449257811494,1449257811912,420,453,0,0,0,4,3,1,7,0001-00-0001-53.png,0002-00-0001-96.png
00000014,433,0,1449257814800,1449257815145,977,398,0,0,0,2,3,1,5,0003-00-0000-06.png,0002-00-0000-67.png
00000014,434,1,1449257819660,1449257820194,389,396,0,0,0,0,1,1,1,0005-00-0001-84.png,0004-00-0001-86.png
00000014,435,1,1449257821124,1449257821648,896,496,0,0,0,1,0,1,1,0004-00-0000-25.png,0005-00-0000-02.png
00000014,436,1,1449257822603,1449257823101,870,498,0,0,0,2,1,1,3,0003-00-0000-28.png,0004-00-0000-50.png
00000014,437,1,1449257824135,1449257824626,891,496,0,0,0,3,2,1,5,0002-00-0000-64.png,0003-00-0000-75.png
00000014,438,0,1449257825670,1449257826168,863,477,0,0,0,1,2,1,3,0004-00-0001-87.png,0003-00-0000-23.png
00000014,439,0,1449257829703,1449257830113,906,539,0,0,0,3,4,1,7,0002-00-0001-20.png,0001-00-0000-82.png
00000014,440,0,1449257833326,1449257833850,389,422,0,0,0,4,3,1,7,0001-00-0000-97.png,0002-00-0001-99.png
00000014,441,1,1449257837948,1449257838306,986,447,0,0,0,4,3,1,7,0001-00-0000-09.png,0002-00-0000-92.png
00000014,442,0,1449257839303,1449257839796,898,508,0,0,0,2,3,1,5,0003-00-0001-47.png,0002-00-0001-65.png
00000014,443,1,1449257842939,1449257843308,1002,412,0,0,0,1,0,1,1,0004-00-0000-20.png,0005-00-0001-83.png
00000014,444,1,1449257844249,1449257844736,389,435,0,0,0,0,1,1,1,0005-00-0000-29.png,0004-00-0000-85.png
00000014,445,1,1449257845711,1449257846456,915,475,0,0,0,3,2,1,5,0002-00-0000-18.png,0003-00-0000-38.png
00000014,446,1,1449257847483,1449257847847,350,491,0,0,0,3,4,1,7,0002-00-0000-58.png,0001-00-0000-48.png
00000014,447,0,1449257848826,1449257849300,862,476,0,0,0,1,2,1,3,0004-00-0001-77.png,0003-00-0001-23.png
00000014,448,1,1449257852349,1449257852776,875,449,0,0,0,2,1,1,3,0003-00-0000-89.png,0004-00-0001-09.png
00000014,449,1,1449257853712,1449257854094,344,461,0,0,0,1,2,1,3,0004-00-0001-89.png,0003-00-0000-34.png
00000014,450,1,1449257855121,1449257855149,504,488,0,0,0,0,1,1,1,0005-00-0000-21.png,0004-00-0000-65.png
00000014,451,0,1449257856382,1449257856749,385,466,0,0,0,4,3,1,7,0001-00-0000-58.png,0002-00-0000-97.png
00000014,452,0,1449257859664,1449257860095,947,471,0,0,0,2,3,1,5,0003-00-0001-83.png,0002-00-0001-98.png
00000014,453,0,1449257863427,1449257863858,967,448,0,0,0,3,4,1,7,0002-00-0001-70.png,0001-00-0001-71.png
00000014,454,0,1449257866997,1449257867525,478,396,0,0,0,3,2,1,5,0002-00-0001-24.png,0003-00-0001-87.png
00000014,455,1,1449257871004,1449257871414,925,528,0,0,0,1,0,1,1,0004-00-0001-78.png,0005-00-0001-77.png
00000014,456,1,1449257872368,1449257872846,874,515,0,0,0,2,1,1,3,0003-00-0001-65.png,0004-00-0001-79.png
00000014,457,1,1449257873881,1449257874382,875,502,0,0,0,1,0,1,1,0004-00-0000-97.png,0005-00-0001-81.png
00000014,458,1,1449257875406,1449257875751,383,485,0,0,0,0,1,1,1,0005-00-0001-66.png,0004-00-0000-69.png
00000014,459,1,1449257876789,1449257877332,886,476,0,0,0,4,3,1,7,0001-00-0001-15.png,0002-00-0000-91.png
00000014,460,1,1449257878305,1449257878719,453,503,0,0,0,3,4,1,7,0002-00-0001-09.png,0001-00-0000-18.png
00000014,461,1,1449257879738,1449257880169,478,501,0,0,0,1,2,1,3,0004-00-0000-13.png,0003-00-0000-68.png
00000014,462,1,1449257881180,1449257881734,879,480,0,0,0,3,2,1,5,0002-00-0001-73.png,0003-00-0001-14.png
00000014,463,1,1449257882767,1449257883251,874,465,0,0,0,2,1,1,3,0003-00-0000-01.png,0004-00-0000-87.png
00000014,464,0,1449257884285,1449257885269,898,462,0,0,0,2,3,1,5,0003-00-0001-52.png,0002-00-0000-31.png
00000014,465,0,1449257888324,1449257888788,922,471,0,0,0,1,2,1,3,0004-00-0001-41.png,0003-00-0000-56.png
00000014,466,1,1449257891632,1449257892067,953,437,0,0,0,2,1,1,3,0003-00-0000-18.png,0004-00-0000-73.png
00000014,467,0,1449257893011,1449257893544,900,502,0,0,0,3,4,1,7,0002-00-0001-66.png,0001-00-0000-02.png
00000014,468,1,1449257896623,1449257897010,901,546,0,0,0,1,0,1,1,0004-00-0001-92.png,0005-00-0001-79.png
00000014,469,1,1449257897944,1449257898477,413,565,0,0,0,0,1,1,1,0005-00-0000-41.png,0004-00-0000-63.png
00000014,470,0,1449257899410,1449257899915,860,503,0,0,0,2,3,1,5,0003-00-0000-22.png,0002-00-0001-06.png
00000014,471,1,1449257902933,1449257903342,915,511,0,0,0,4,3,1,7,0001-00-0001-49.png,0002-00-0000-52.png
00000014,472,0,1449257904370,1449257904848,419,480,0,0,0,3,2,1,5,0002-00-0000-26.png,0003-00-0000-45.png
00000014,473,1,1449257908061,1449257908627,951,438,0,0,0,4,3,1,7,0001-00-0001-05.png,0002-00-0001-79.png
00000014,474,1,1449257909575,1449257910068,887,502,0,0,0,2,1,1,3,0003-00-0000-69.png,0004-00-0001-82.png
00000014,475,0,1449257911479,1449257911876,900,501,0,0,0,3,4,1,7,0002-00-0001-06.png,0001-00-0000-98.png
00000014,476,0,1449257914935,1449257915370,974,462,0,0,0,0,1,1,1,0005-00-0001-04.png,0004-00-0000-46.png
00000014,477,0,1449257918270,1449257918648,965,449,0,0,0,2,3,1,5,0003-00-0000-84.png,0002-00-0001-54.png
00000014,478,0,1449257921508,1449257921968,969,414,0,0,0,1,2,1,3,0004-00-0000-93.png,0003-00-0000-00.png
00000014,479,1,1449257925145,1449257925576,976,438,0,0,0,3,2,1,5,0002-00-0001-28.png,0003-00-0000-62.png
00000014,480,1,1449257926548,1449257927037,926,489,0,0,0,1,0,1,1,0004-00-0001-10.png,0005-00-0001-05.png
00000014,481,1,1449257928007,1449257928445,414,554,0,0,0,1,2,1,3,0004-00-0001-35.png,0003-00-0000-90.png
00000014,482,1,1449257929417,1449257930068,939,501,0,0,0,2,1,1,3,0003-00-0001-42.png,0004-00-0000-85.png
00000014,483,1,1449257931117,1449257931584,900,455,0,0,0,3,2,1,5,0002-00-0001-15.png,0003-00-0001-45.png
00000014,484,0,1449257932588,1449257932991,345,478,0,0,0,4,3,1,7,0001-00-0001-36.png,0002-00-0001-77.png
00000014,485,0,1449257936065,1449257936481,951,448,0,0,0,2,3,1,5,0003-00-0000-04.png,0002-00-0000-82.png
00000014,486,0,1449257939524,1449257939981,964,436,0,0,0,3,4,1,7,0002-00-0001-14.png,0001-00-0000-76.png
00000014,487,1,1449257943082,1449257943529,994,469,0,0,0,1,0,1,1,0004-00-0000-90.png,0005-00-0000-49.png
00000014,488,1,1449257944423,1449257944847,366,481,0,0,0,0,1,1,1,0005-00-0001-81.png,0004-00-0000-86.png
00000014,489,1,1449257945804,1449257946302,886,477,0,0,0,1,0,1,1,0004-00-0000-25.png,0005-00-0000-23.png
00000014,490,1,1449257947326,1449257947843,890,477,0,0,0,4,3,1,7,0001-00-0000-88.png,0002-00-0000-87.png
00000014,491,1,1449257948866,1449257949364,867,469,0,0,0,2,1,1,3,0003-00-0001-79.png,0004-00-0001-96.png
00000014,492,1,1449257950375,1449257951396,924,458,0,0,0,3,2,1,5,0002-00-0000-94.png,0003-00-0000-15.png
00000014,493,1,1449257952477,1449257952954,427,423,0,0,0,2,3,1,5,0003-00-0000-28.png,0002-00-0001-39.png
00000014,494,1,1449257954034,1449257954498,395,460,0,0,0,0,1,1,1,0005-00-0001-78.png,0004-00-0001-55.png
00000014,495,0,1449257955505,1449257956021,883,486,0,0,0,3,4,1,7,0002-00-0000-07.png,0001-00-0001-08.png
00000014,496,0,1449257959144,1449257959596,977,463,0,0,0,1,2,1,3,0004-00-0001-38.png,0003-00-0000-11.png
00000014,497,1,1449257962631,1449257963078,973,445,0,0,0,1,0,1,1,0004-00-0000-39.png,0005-00-0001-11.png
00000014,498,1,1449257964451,1449257965070,418,427,0,0,0,0,1,1,1,0005-00-0000-05.png,0004-00-0000-62.png
00000014,499,0,1449257965992,1449257966379,419,480,0,0,0,3,2,1,5,0002-00-0000-96.png,0003-00-0000-30.png
00000014,500,0,1449257969281,1449257969696,972,471,0,0,0,2,3,1,5,0003-00-0001-02.png,0002-00-0001-13.png
00000014,501,1,1449257972838,1449257973238,990,436,0,0,0,2,1,1,3,0003-00-0001-24.png,0004-00-0001-53.png
00000014,502,0,1449257974166,1449257974597,369,479,0,0,0,4,3,1,7,0001-00-0001-04.png,0002-00-0001-30.png
00000014,503,0,1449257977496,1449257977973,897,392,0,0,0,1,2,1,3,0004-00-0000-81.png,0003-00-0000-52.png
00000014,504,0,1449257981614,1449257982001,964,436,0,0,0,3,4,1,7,0002-00-0001-65.png,0001-00-0000-65.png
00000014,505,1,1449257984924,1449257985305,973,443,0,0,0,2,1,1,3,0003-00-0001-14.png,0004-00-0001-73.png
00000014,506,0,1449257986269,1449257986749,900,528,0,0,0,1,2,1,3,0004-00-0001-80.png,0003-00-0000-26.png
00000014,507,0,1449257989913,1449257990356,876,445,0,0,0,3,4,1,7,0002-00-0000-59.png,0001-00-0001-87.png
00000014,508,1,1449257993277,1449257993706,912,503,0,0,0,4,3,1,7,0001-00-0001-92.png,0002-00-0000-63.png
00000014,509,0,1449257994654,1449257995187,913,476,0,0,0,0,1,1,1,0005-00-0000-15.png,0004-00-0001-33.png
00000014,510,0,1449257998027,1449257998438,913,502,0,0,0,2,3,1,5,0003-00-0001-77.png,0002-00-0001-18.png
00000014,511,1,1449258001442,1449258001868,976,436,0,0,0,3,2,1,5,0002-00-0001-83.png,0003-00-0001-74.png
00000014,512,1,1449258002781,1449258003283,899,491,0,0,0,1,0,1,1,0004-00-0000-89.png,0005-00-0001-53.png
00000014,513,0,1449258004199,1449258004722,888,502,0,0,0,3,4,1,7,0002-00-0000-90.png,0001-00-0001-20.png
00000014,514,1,1449258007601,1449258008076,959,482,0,0,0,1,0,1,1,0004-00-0001-07.png,0005-00-0000-11.png
00000014,515,0,1449258009459,1449258009925,396,468,0,0,0,2,1,1,3,0003-00-0001-66.png,0004-00-0001-57.png
00000014,516,0,1449258013059,1449258013469,931,481,0,0,0,1,2,1,3,0004-00-0000-89.png,0003-00-0001-02.png
00000014,517,0,1449258016637,1449258017218,356,383,0,0,0,3,2,1,5,0002-00-0000-39.png,0003-00-0001-35.png
00000014,518,0,1449258021069,1449258021482,997,441,0,0,0,0,1,1,1,0005-00-0001-56.png,0004-00-0000-77.png
00000014,519,0,1449258025091,1449258025529,983,421,0,0,0,2,3,1,5,0003-00-0001-72.png,0002-00-0001-18.png
00000014,520,0,1449258028462,1449258028934,443,389,0,0,0,4,3,1,7,0001-00-0001-30.png,0002-00-0001-63.png
00000014,521,1,1449258032406,1449258032837,950,485,0,0,0,4,3,1,7,0001-00-0001-07.png,0002-00-0001-10.png
00000014,522,1,1449258033728,1449258034136,427,476,0,0,0,0,1,1,1,0005-00-0001-64.png,0004-00-0000-01.png
00000014,523,0,1449258035086,1449258035728,899,514,0,0,0,1,2,1,3,0004-00-0000-86.png,0003-00-0000-91.png
00000014,524,1,1449258038630,1449258039027,971,455,0,0,0,2,1,1,3,0003-00-0000-51.png,0004-00-0000-97.png
00000014,525,0,1449258039898,1449258040335,419,505,0,0,0,1,0,1,1,0004-00-0001-62.png,0005-00-0001-80.png
00000014,526,0,1449258052038,1449258052403,925,528,0,0,0,3,4,1,7,0002-00-0001-04.png,0001-00-0001-70.png
00000014,527,0,1449258055284,1449258055615,1010,395,0,0,0,2,3,1,5,0003-00-0000-90.png,0002-00-0001-13.png
00000014,528,0,1449258060875,1449258061257,454,423,0,0,0,3,2,1,5,0002-00-0001-30.png,0003-00-0001-59.png
00000014,529,0,1449258064307,1449258064740,923,539,0,0,0,0,1,1,1,0005-00-0001-59.png,0004-00-0001-64.png
00000014,530,0,1449258068542,1449258069369,468,442,0,0,0,4,3,1,7,0001-00-0000-04.png,0002-00-0000-78.png
00000014,531,1,1449258072796,1449258073239,878,406,0,0,0,2,1,1,3,0003-00-0000-28.png,0004-00-0001-68.png
00000014,532,0,1449258074168,1449258074847,283,532,0,0,0,1,0,1,1,0004-00-0001-35.png,0005-00-0000-14.png
00000014,533,0,1449258083156,1449258083513,951,542,0,0,0,3,4,1,7,0002-00-0001-98.png,0001-00-0001-49.png
00000014,534,1,1449258086668,1449258087089,999,471,0,0,0,3,2,1,5,0002-00-0001-62.png,0003-00-0000-26.png
00000014,535,1,1449258088058,1449258088446,417,491,0,0,0,1,2,1,3,0004-00-0000-68.png,0003-00-0001-26.png
00000014,536,0,1449258089392,1449258089845,902,495,0,0,0,2,3,1,5,0003-00-0000-06.png,0002-00-0000-74.png
00000014,537,0,1449258093514,1449258093967,978,491,0,0,0,0,1,1,1,0005-00-0001-35.png,0004-00-0001-59.png
00000014,538,0,1449258096844,1449258097298,902,493,0,0,0,3,4,1,7,0002-00-0000-11.png,0001-00-0001-37.png
00000014,539,1,1449258100361,1449258100753,951,515,0,0,0,3,2,1,5,0002-00-0000-15.png,0003-00-0000-79.png
00000014,540,1,1449258101672,1449258102135,896,472,0,0,0,1,0,1,1,0004-00-0000-70.png,0005-00-0001-19.png
00000014,541,0,1449258102985,1449258103409,325,488,0,0,0,4,3,1,7,0001-00-0001-59.png,0002-00-0000-35.png
00000014,542,0,1449258106266,1449258106694,900,528,0,0,0,1,2,1,3,0004-00-0000-43.png,0003-00-0001-64.png
00000014,543,1,1449258109756,1449258110178,973,445,0,0,0,2,1,1,3,0003-00-0000-14.png,0004-00-0001-37.png
00000014,544,0,1449258111047,1449258111536,913,501,0,0,0,2,3,1,5,0003-00-0000-33.png,0002-00-0000-77.png
00000014,545,0,1449258114654,1449258115127,989,492,0,0,0,0,1,1,1,0005-00-0001-47.png,0004-00-0001-60.png
00000014,546,0,1449258118133,1449258118638,384,393,0,0,0,4,3,1,7,0001-00-0001-90.png,0002-00-0001-63.png
00000014,547,0,1449258121561,1449258122172,913,505,0,0,0,1,2,1,3,0004-00-0000-42.png,0003-00-0000-59.png
00000014,548,1,1449258125219,1449258125655,890,403,0,0,0,1,0,1,1,0004-00-0001-50.png,0005-00-0000-25.png
00000014,549,1,1449258126552,1449258127041,875,540,0,0,0,2,1,1,3,0003-00-0000-65.png,0004-00-0000-51.png
00000014,550,1,1449258127970,1449258128380,453,490,0,0,0,3,4,1,7,0002-00-0001-00.png,0001-00-0000-44.png
00000014,551,1,1449258129344,1449258129829,876,514,0,0,0,3,2,1,5,0002-00-0001-52.png,0003-00-0001-70.png
00000014,552,0,1449258130783,1449258131747,925,488,0,0,0,2,3,1,5,0003-00-0000-22.png,0002-00-0001-69.png
00000014,553,1,1449258134908,1449258135304,950,455,0,0,0,2,1,1,3,0003-00-0001-64.png,0004-00-0000-14.png
00000014,554,0,1449258136317,1449258136736,366,494,0,0,0,4,3,1,7,0001-00-0001-61.png,0002-00-0001-60.png
00000014,555,0,1449258139998,1449258140462,964,501,0,0,0,1,2,1,3,0004-00-0001-99.png,0003-00-0000-18.png
00000014,556,0,1449258143463,1449258143885,965,449,0,0,0,3,4,1,7,0002-00-0000-40.png,0001-00-0000-75.png
00000014,557,0,1449258147123,1449258147511,925,541,0,0,0,2,3,1,5,0003-00-0000-58.png,0002-00-0001-59.png
00000014,558,0,1449258150622,1449258150998,1003,410,0,0,0,0,1,1,1,0005-00-0001-52.png,0004-00-0001-47.png
00000014,559,1,1449258153872,1449258154569,875,462,0,0,0,1,0,1,1,0004-00-0000-30.png,0005-00-0000-05.png
00000014,560,1,1449258155856,1449258156319,924,483,0,0,0,3,2,1,5,0002-00-0000-43.png,0003-00-0001-98.png
00000014,561,1,1449258157188,1449258157717,892,547,0,0,0,3,2,1,5,0002-00-0001-03.png,0003-00-0001-50.png
00000014,562,0,1449258158672,1449258159149,875,488,0,0,0,3,4,1,7,0002-00-0000-36.png,0001-00-0001-19.png
00000014,563,1,1449258162270,1449258162706,903,491,0,0,0,4,3,1,7,0001-00-0001-66.png,0002-00-0000-79.png
00000014,564,1,1449258163648,1449258164165,899,516,0,0,0,2,1,1,3,0003-00-0000-26.png,0004-00-0000-09.png
00000014,565,0,1449258165150,1449258165655,870,498,0,0,0,2,3,1,5,0003-00-0001-44.png,0002-00-0001-96.png
00000014,566,1,1449258168629,1449258169049,953,443,0,0,0,1,0,1,1,0004-00-0001-89.png,0005-00-0001-62.png
00000014,567,1,1449258170364,1449258170888,401,488,0,0,0,1,2,1,3,0004-00-0000-39.png,0003-00-0000-79.png
00000014,568,1,1449258171837,1449258172265,367,454,0,0,0,0,1,1,1,0005-00-0000-63.png,0004-00-0000-61.png
00000014,569,0,1449258173289,1449258173733,437,508,0,0,0,4,3,1,7,0001-00-0000-31.png,0002-00-0001-06.png
00000014,570,0,1449258176861,1449258177445,1000,486,0,0,0,1,2,1,3,0004-00-0000-80.png,0003-00-0000-25.png
00000014,571,1,1449258180314,1449258180710,922,505,0,0,0,2,1,1,3,0003-00-0001-14.png,0004-00-0000-35.png
00000014,572,1,1449258181634,1449258182139,926,490,0,0,0,1,0,1,1,0004-00-0001-31.png,0005-00-0001-96.png
00000014,573,1,1449258183098,1449258183576,376,423,0,0,0,2,3,1,5,0003-00-0001-19.png,0002-00-0000-47.png
00000014,574,1,1449258184810,1449258185222,412,485,0,0,0,0,1,1,1,0005-00-0001-58.png,0004-00-0000-25.png
00000014,575,0,1449258186312,1449258186705,401,502,0,0,0,3,2,1,5,0002-00-0001-26.png,0003-00-0000-25.png
00000014,576,0,1449258190514,1449258190929,966,466,0,0,0,3,4,1,7,0002-00-0000-44.png,0001-00-0000-82.png
00000014,577,1,1449258194022,1449258194417,951,386,0,0,0,1,0,1,1,0004-00-0000-67.png,0005-00-0001-91.png
00000014,578,1,1449258195310,1449258195832,401,463,0,0,0,1,2,1,3,0004-00-0000-36.png,0003-00-0001-10.png
00000014,579,1,1449258197247,1449258197643,874,490,0,0,0,2,1,1,3,0003-00-0000-54.png,0004-00-0001-57.png
00000014,580,1,1449258198649,1449258199106,863,501,0,0,0,3,2,1,5,0002-00-0000-29.png,0003-00-0001-87.png
00000014,581,0,1449258200146,1449258200555,863,501,0,0,0,3,4,1,7,0002-00-0000-29.png,0001-00-0001-74.png
00000014,582,0,1449258204119,1449258204502,964,466,0,0,0,0,1,1,1,0005-00-0000-29.png,0004-00-0001-39.png
00000014,583,0,1449258208092,1449258208483,987,477,0,0,0,2,3,1,5,0003-00-0001-91.png,0002-00-0001-16.png
00000014,584,1,1449258212885,1449258213290,902,462,0,0,0,4,3,1,7,0001-00-0001-10.png,0002-00-0001-74.png
00000014,585,1,1449258214204,1449258214650,383,453,0,0,0,1,2,1,3,0004-00-0001-13.png,0003-00-0000-96.png
00000014,586,1,1449258216034,1449258216466,907,500,0,0,0,1,0,1,1,0004-00-0000-97.png,0005-00-0000-09.png
00000014,587,1,1449258217815,1449258218196,888,501,0,0,0,2,1,1,3,0003-00-0001-56.png,0004-00-0000-15.png
00000014,588,0,1449258219184,1449258219667,891,470,0,0,0,2,3,1,5,0003-00-0000-26.png,0002-00-0001-18.png
00000014,589,1,1449258223569,1449258224137,972,492,0,0,0,4,3,1,7,0001-00-0001-55.png,0002-00-0000-29.png
00000014,590,0,1449258225030,1449258225473,401,478,0,0,0,3,2,1,5,0002-00-0001-34.png,0003-00-0000-28.png
00000014,591,0,1449258229450,1449258229871,971,469,0,0,0,0,1,1,1,0005-00-0000-72.png,0004-00-0000-56.png
00000014,592,0,1449258233268,1449258233690,952,461,0,0,0,3,4,1,7,0002-00-0001-04.png,0001-00-0001-60.png
00000014,593,0,1449258237699,1449258238173,384,397,0,0,0,4,3,1,7,0001-00-0000-87.png,0002-00-0001-67.png
00000014,594,1,1449258241764,1449258242286,483,417,0,0,0,0,1,1,1,0005-00-0000-74.png,0004-00-0000-70.png
00000014,595,0,1449258243151,1449258244039,934,487,0,0,0,1,2,1,3,0004-00-0001-65.png,0003-00-0000-04.png
00000014,596,0,1449258247220,1449258247655,891,455,0,0,0,2,3,1,5,0003-00-0000-60.png,0002-00-0001-97.png
00000014,597,0,1449258250788,1449258251206,897,468,0,0,0,3,4,1,7,0002-00-0000-18.png,0001-00-0000-49.png
00000014,598,1,1449258254126,1449258254551,925,527,0,0,0,1,0,1,1,0004-00-0000-24.png,0005-00-0000-42.png
00000014,599,0,1449258255449,1449258256086,436,537,0,0,0,2,1,1,3,0003-00-0001-97.png,0004-00-0001-57.png
00000014,600,1,1449258259176,1449258259573,1002,423,0,0,0,3,2,1,5,0002-00-0000-98.png,0003-00-0000-87.png
00000014,601,1,1449258260454,1449258260879,356,462,0,0,0,0,1,1,1,0005-00-0001-00.png,0004-00-0000-09.png
00000014,602,1,1449258261940,1449258262377,384,470,0,0,0,1,2,1,3,0004-00-0001-48.png,0003-00-0000-35.png
00000014,603,1,1449258263877,1449258264291,928,467,0,0,0,2,1,1,3,0003-00-0001-98.png,0004-00-0001-28.png
00000014,604,0,1449258265279,1449258266697,926,502,0,0,0,3,4,1,7,0002-00-0000-79.png,0001-00-0001-23.png
00000014,605,1,1449258270546,1449258271032,958,499,0,0,0,4,3,1,7,0001-00-0001-40.png,0002-00-0001-70.png
00000014,606,1,1449258271961,1449258272393,912,502,0,0,0,1,0,1,1,0004-00-0000-68.png,0005-00-0001-20.png
00000014,607,1,1449258273344,1449258273372,504,514,0,0,0,2,3,1,5,0003-00-0001-02.png,0002-00-0000-92.png
00000014,608,1,1449258274677,1449258275140,869,506,0,0,0,3,2,1,5,0002-00-0001-00.png,0003-00-0001-62.png
00000014,609,0,1449258276177,1449258276530,437,487,0,0,0,2,1,1,3,0003-00-0001-88.png,0004-00-0000-40.png
00000014,610,0,1449258279729,1449258280124,977,437,0,0,0,1,2,1,3,0004-00-0000-45.png,0003-00-0000-95.png
00000014,611,1,1449258283192,1449258283593,901,521,0,0,0,1,0,1,1,0004-00-0001-70.png,0005-00-0000-50.png
00000014,612,0,1449258284476,1449258285009,875,528,0,0,0,2,3,1,5,0003-00-0000-97.png,0002-00-0000-34.png
00000014,613,0,1449258287986,1449258288371,950,429,0,0,0,0,1,1,1,0005-00-0001-99.png,0004-00-0000-59.png
00000014,614,0,1449258291284,1449258291672,956,427,0,0,0,3,4,1,7,0002-00-0001-73.png,0001-00-0001-93.png
00000014,615,1,1449258294525,1449258294988,925,501,0,0,0,4,3,1,7,0001-00-0000-51.png,0002-00-0001-12.png
00000014,616,0,1449258295896,1449258296299,421,511,0,0,0,3,2,1,5,0002-00-0000-93.png,0003-00-0000-67.png
00000014,617,1,1449258299553,1449258299982,967,467,0,0,0,2,1,1,3,0003-00-0000-77.png,0004-00-0000-89.png
00000014,618,0,1449258300872,1449258301299,325,451,0,0,0,4,3,1,7,0001-00-0000-72.png,0002-00-0001-64.png
00000014,619,0,1449258304443,1449258305141,939,436,0,0,0,1,2,1,3,0004-00-0000-21.png,0003-00-0000-58.png
00000014,620,1,1449258307993,1449258308685,927,468,0,0,0,3,2,1,5,0002-00-0001-11.png,0003-00-0001-25.png
00000014,621,0,1449258309612,1449258310045,912,501,0,0,0,3,4,1,7,0002-00-0001-20.png,0001-00-0000-37.png
00000014,622,0,1449258313339,1449258313743,952,489,0,0,0,2,3,1,5,0003-00-0000-65.png,0002-00-0000-87.png
00000014,623,1,1449258318455,1449258318882,925,561,0,0,0,1,0,1,1,0004-00-0000-68.png,0005-00-0001-83.png
00000014,624,1,1449258319726,1449258320152,447,470,0,0,0,0,1,1,1,0005-00-0000-35.png,0004-00-0001-20.png
00000014,625,1,1449258321524,1449258321940,925,488,0,0,0,2,1,1,3,0003-00-0000-41.png,0004-00-0001-15.png
00000014,626,0,1449258322854,1449258323209,436,512,0,0,0,4,3,1,7,0001-00-0001-61.png,0002-00-0000-94.png
00000014,627,1,1449258332869,1449258333323,386,426,0,0,0,0,1,1,1,0005-00-0000-09.png,0004-00-0001-53.png
00000014,628,0,1449258334397,1449258334836,913,514,0,0,0,3,4,1,7,0002-00-0001-49.png,0001-00-0001-39.png
00000014,629,0,1449258339299,1449258339707,959,446,0,0,0,1,2,1,3,0004-00-0001-17.png,0003-00-0000-59.png
00000014,630,0,1449258343944,1449258344919,403,375,0,0,0,3,2,1,5,0002-00-0001-37.png,0003-00-0000-71.png
00000014,631,1,1449258348294,1449258348707,928,434,0,0,0,1,0,1,1,0004-00-0000-43.png,0005-00-0001-60.png
00000014,632,0,1449258349619,1449258350171,901,462,0,0,0,2,3,1,5,0003-00-0000-47.png,0002-00-0000-17.png
00000014,633,0,1449258353197,1449258353578,970,458,0,0,0,2,3,1,5,0003-00-0001-99.png,0002-00-0001-17.png
00000014,634,1,1449258356733,1449258357110,930,401,0,0,0,4,3,1,7,0001-00-0000-14.png,0002-00-0001-71.png
00000014,635,1,1449258358007,1449258358488,909,500,0,0,0,1,0,1,1,0004-00-0001-98.png,0005-00-0001-91.png
00000014,636,0,1449258359489,1449258359988,876,502,0,0,0,3,4,1,7,0002-00-0001-18.png,0001-00-0001-33.png
00000014,637,1,1449258363184,1449258363707,454,396,0,0,0,1,2,1,3,0004-00-0000-77.png,0003-00-0000-67.png
00000014,638,1,1449258365385,1449258365960,443,469,0,0,0,0,1,1,1,0005-00-0000-60.png,0004-00-0000-07.png
00000014,639,1,1449258366882,1449258367616,892,517,0,0,0,2,1,1,3,0003-00-0001-80.png,0004-00-0001-19.png
00000014,640,0,1449258368519,1449258368929,409,498,0,0,0,3,2,1,5,0002-00-0000-27.png,0003-00-0000-77.png
00000014,641,1,1449258371877,1449258372361,468,442,0,0,0,2,3,1,5,0003-00-0001-92.png,0002-00-0001-29.png
00000014,642,1,1449258373301,1449258373785,900,489,0,0,0,1,0,1,1,0004-00-0000-14.png,0005-00-0000-19.png
00000014,643,0,1449258374760,1449258375374,921,515,0,0,0,3,4,1,7,0002-00-0001-42.png,0001-00-0001-36.png
00000014,644,1,1449258378547,1449258378983,882,452,0,0,0,3,2,1,5,0002-00-0000-38.png,0003-00-0000-06.png
00000014,645,1,1449258379887,1449258380424,364,476,0,0,0,1,2,1,3,0004-00-0001-21.png,0003-00-0000-06.png
00000014,646,1,1449258381487,1449258381941,870,472,0,0,0,2,1,1,3,0003-00-0000-03.png,0004-00-0001-07.png
00000014,647,0,1449258382978,1449258383382,390,502,0,0,0,4,3,1,7,0001-00-0000-14.png,0002-00-0001-52.png
00000014,648,0,1449258386430,1449258386871,913,436,0,0,0,0,1,1,1,0005-00-0000-52.png,0004-00-0001-12.png
00000014,649,1,1449258389827,1449258390264,975,483,0,0,0,1,0,1,1,0004-00-0001-80.png,0005-00-0000-83.png
00000014,650,1,1449258391596,1449258392130,350,474,0,0,0,2,3,1,5,0003-00-0000-11.png,0002-00-0001-96.png
00000014,651,1,1449258393176,1449258393639,875,488,0,0,0,2,1,1,3,0003-00-0001-80.png,0004-00-0000-98.png
00000014,652,0,1449258394625,1449258395086,876,487,0,0,0,0,1,1,1,0005-00-0000-97.png,0004-00-0000-58.png
00000014,653,0,1449258398226,1449258398711,938,488,0,0,0,3,4,1,7,0002-00-0000-36.png,0001-00-0000-22.png
00000014,654,0,1449258401869,1449258402434,427,462,0,0,0,4,3,1,7,0001-00-0000-72.png,0002-00-0001-01.png
00000014,655,1,1449258405877,1449258406268,899,400,0,0,0,3,2,1,5,0002-00-0000-82.png,0003-00-0001-58.png
00000014,656,1,1449258407149,1449258407553,416,494,0,0,0,1,2,1,3,0004-00-0000-42.png,0003-00-0000-15.png
00000014,657,1,1449258408491,1449258408926,418,467,0,0,0,0,1,1,1,0005-00-0000-94.png,0004-00-0001-17.png
00000014,658,1,1449258409889,1449258410446,875,492,0,0,0,3,2,1,5,0002-00-0000-65.png,0003-00-0000-96.png
00000014,659,1,1449258411480,1449258412084,889,501,0,0,0,4,3,1,7,0001-00-0001-94.png,0002-00-0001-53.png
00000014,660,1,1449258413094,1449258414072,900,488,0,0,0,1,0,1,1,0004-00-0000-87.png,0005-00-0001-74.png
00000014,661,0,1449258415025,1449258416031,902,494,0,0,0,2,3,1,5,0003-00-0001-68.png,0002-00-0001-23.png
00000014,662,0,1449258419133,1449258419516,922,393,0,0,0,3,4,1,7,0002-00-0001-73.png,0001-00-0000-83.png
00000014,663,0,1449258422513,1449258422967,926,462,0,0,0,1,2,1,3,0004-00-0001-08.png,0003-00-0001-83.png
00000014,664,1,1449258426310,1449258426752,949,489,0,0,0,2,1,1,3,0003-00-0001-59.png,0004-00-0000-55.png
00000014,665,1,1449258427999,1449258428430,389,475,0,0,0,1,2,1,3,0004-00-0000-67.png,0003-00-0001-09.png
00000014,666,1,1449258429929,1449258430339,925,490,0,0,0,2,1,1,3,0003-00-0000-98.png,0004-00-0001-63.png
00000014,667,0,1449258431335,1449258431724,376,500,0,0,0,4,3,1,7,0001-00-0000-10.png,0002-00-0001-47.png
00000014,668,0,1449258434985,1449258435485,952,488,0,0,0,0,1,1,1,0005-00-0000-76.png,0004-00-0001-61.png
00000014,669,1,1449258438312,1449258438759,977,488,0,0,0,1,0,1,1,0004-00-0000-31.png,0005-00-0001-99.png
00000014,670,0,1449258439646,1449258440070,441,515,0,0,0,3,2,1,5,0002-00-0000-01.png,0003-00-0000-80.png
00000014,671,0,1449258443165,1449258443591,905,558,0,0,0,2,3,1,5,0003-00-0001-42.png,0002-00-0000-52.png
00000014,672,0,1449258446660,1449258447075,993,429,0,0,0,3,4,1,7,0002-00-0000-84.png,0001-00-0000-82.png
00000014,673,1,1449258450525,1449258450951,924,534,0,0,0,1,0,1,1,0004-00-0001-98.png,0005-00-0000-46.png
00000014,674,0,1449258451840,1449258452408,921,523,0,0,0,1,2,1,3,0004-00-0000-53.png,0003-00-0000-66.png
00000014,675,0,1449258455250,1449258455632,926,397,0,0,0,3,4,1,7,0002-00-0001-19.png,0001-00-0001-53.png
00000014,676,0,1449258458906,1449258459242,1009,447,0,0,0,2,3,1,5,0003-00-0000-35.png,0002-00-0001-34.png
00000014,677,1,1449258462129,1449258462782,926,450,0,0,0,4,3,1,7,0001-00-0001-88.png,0002-00-0001-89.png
00000014,678,0,1449258463643,1449258464304,366,433,0,0,0,3,2,1,5,0002-00-0001-34.png,0003-00-0000-79.png
00000014,679,1,1449258467322,1449258467844,421,436,0,0,0,0,1,1,1,0005-00-0000-08.png,0004-00-0000-39.png
00000014,680,1,1449258468706,1449258469216,889,501,0,0,0,2,1,1,3,0003-00-0001-51.png,0004-00-0001-11.png
00000014,681,1,1449258470104,1449258470507,439,514,0,0,0,1,2,1,3,0004-00-0001-70.png,0003-00-0000-51.png
00000014,682,1,1449258471477,1449258471872,401,476,0,0,0,3,4,1,7,0002-00-0001-38.png,0001-00-0000-17.png
00000014,683,0,1449258472908,1449258473429,427,554,0,0,0,4,3,1,7,0001-00-0000-97.png,0002-00-0000-58.png
00000014,684,1,1449258477042,1449258477497,884,449,0,0,0,3,2,1,5,0002-00-0001-71.png,0003-00-0000-52.png
00000014,685,0,1449258478372,1449258478797,465,475,0,0,0,1,0,1,1,0004-00-0001-72.png,0005-00-0001-72.png
00000014,686,0,1449258481771,1449258482175,977,475,0,0,0,2,3,1,5,0003-00-0001-51.png,0002-00-0000-06.png
00000014,687,1,1449258485490,1449258485953,391,418,0,0,0,0,1,1,1,0005-00-0000-60.png,0004-00-0000-96.png
00000014,688,1,1449258486871,1449258487330,881,500,0,0,0,2,1,1,3,0003-00-0001-21.png,0004-00-0000-65.png
00000014,689,0,1449258488294,1449258488784,872,483,0,0,0,2,3,1,5,0003-00-0001-39.png,0002-00-0001-88.png
00000014,690,1,1449258491982,1449258492387,977,463,0,0,0,4,3,1,7,0001-00-0001-29.png,0002-00-0000-53.png
00000014,691,1,1449258493291,1449258493707,411,474,0,0,0,1,2,1,3,0004-00-0000-72.png,0003-00-0000-06.png
00000014,692,0,1449258494630,1449258495026,376,490,0,0,0,3,2,1,5,0002-00-0000-07.png,0003-00-0001-92.png
00000014,693,0,1449258498050,1449258498462,907,527,0,0,0,3,4,1,7,0002-00-0001-81.png,0001-00-0001-21.png
00000014,694,1,1449258501326,1449258501723,907,475,0,0,0,1,0,1,1,0004-00-0001-59.png,0005-00-0000-64.png
00000014,695,1,1449258502654,1449258503262,896,470,0,0,0,2,1,1,3,0003-00-0000-97.png,0004-00-0000-52.png
00000014,696,1,1449258504216,1449258504886,350,424,0,0,0,0,1,1,1,0005-00-0000-15.png,0004-00-0001-79.png
00000014,697,0,1449258505856,1449258506317,874,489,0,0,0,2,3,1,5,0003-00-0001-73.png,0002-00-0001-22.png
00000014,698,1,1449258509411,1449258509869,977,462,0,0,0,2,1,1,3,0003-00-0000-10.png,0004-00-0000-81.png
00000014,699,1,1449258510789,1449258511268,401,519,0,0,0,0,1,1,1,0005-00-0001-01.png,0004-00-0001-36.png
00000014,700,1,1449258512239,1449258512781,873,509,0,0,0,3,2,1,5,0002-00-0000-22.png,0003-00-0000-88.png
00000014,701,0,1449258513771,1449258514145,437,501,0,0,0,4,3,1,7,0001-00-0000-56.png,0002-00-0001-19.png
00000014,702,0,1449258517343,1449258517772,952,449,0,0,0,3,4,1,7,0002-00-0000-21.png,0001-00-0000-95.png
00000014,703,0,1449258521108,1449258521564,911,560,0,0,0,1,2,1,3,0004-00-0000-01.png,0003-00-0000-98.png
00000014,704,1,1449258524540,1449258524952,900,541,0,0,0,1,0,1,1,0004-00-0000-07.png,0005-00-0000-52.png
00000014,705,1,1449258525870,1449258526344,336,449,0,0,0,2,3,1,5,0003-00-0001-16.png,0002-00-0001-02.png
00000014,706,0,1449258527358,1449258527784,427,450,0,0,0,4,3,1,7,0001-00-0001-31.png,0002-00-0000-35.png
00000014,707,0,1449258530776,1449258531260,976,475,0,0,0,0,1,1,1,0005-00-0000-43.png,0004-00-0000-38.png
00000014,708,1,1449258534323,1449258534789,414,451,0,0,0,3,4,1,7,0002-00-0001-24.png,0001-00-0001-78.png
00000014,709,1,1449258535699,1449258536310,923,507,0,0,0,2,1,1,3,0003-00-0000-28.png,0004-00-0000-01.png
00000014,710,1,1449258537281,1449258537767,874,515,0,0,0,1,0,1,1,0004-00-0000-20.png,0005-00-0000-91.png
00000014,711,1,1449258538756,1449258539125,344,505,0,0,0,1,2,1,3,0004-00-0001-78.png,0003-00-0001-64.png
00000014,712,0,1449258540119,1449258540491,413,501,0,0,0,3,2,1,5,0002-00-0001-08.png,0003-00-0001-30.png
00000014,713,0,1449258543688,1449258544109,942,455,0,0,0,0,1,1,1,0005-00-0000-93.png,0004-00-0000-06.png
00000014,714,1,1449258548031,1449258548462,927,539,0,0,0,2,1,1,3,0003-00-0000-85.png,0004-00-0000-10.png
00000014,715,1,1449258549779,1449258550240,380,467,0,0,0,1,2,1,3,0004-00-0000-10.png,0003-00-0000-22.png
00000014,716,0,1449258551657,1449258552085,900,502,0,0,0,2,3,1,5,0003-00-0001-93.png,0002-00-0000-20.png
00000014,717,0,1449258555515,1449258555904,951,464,0,0,0,3,4,1,7,0002-00-0001-84.png,0001-00-0001-52.png
00000014,718,1,1449258558973,1449258559366,925,554,0,0,0,4,3,1,7,0001-00-0000-65.png,0002-00-0000-33.png
00000014,719,0,1449258560271,1449258560731,370,461,0,0,0,1,0,1,1,0004-00-0000-05.png,0005-00-0001-18.png
00000014,720,1,1449258563930,1449258564447,976,482,0,0,0,3,2,1,5,0002-00-0000-10.png,0003-00-0000-58.png
00000014,721,1,1449258565373,1449258565925,401,488,0,0,0,3,4,1,7,0002-00-0000-15.png,0001-00-0001-84.png
00000014,722,1,1449258566961,1449258567945,882,441,0,0,0,1,0,1,1,0004-00-0001-41.png,0005-00-0000-54.png
00000014,723,1,1449258568969,1449258569365,350,500,0,0,0,1,2,1,3,0004-00-0001-10.png,0003-00-0001-56.png
00000014,724,0,1449258570499,1449258570911,359,497,0,0,0,2,1,1,3,0003-00-0001-13.png,0004-00-0000-41.png
00000014,725,1,1449258574038,1449258574477,917,546,0,0,0,3,2,1,5,0002-00-0000-62.png,0003-00-0000-09.png
00000014,726,0,1449258575843,1449258576263,901,495,0,0,0,2,3,1,5,0003-00-0001-22.png,0002-00-0001-29.png
00000014,727,1,1449258579384,1449258579803,432,437,0,0,0,0,1,1,1,0005-00-0000-08.png,0004-00-0000-03.png
00000014,728,1,1449258580683,1449258581180,925,501,0,0,0,4,3,1,7,0001-00-0000-51.png,0002-00-0001-12.png
00000014,729,1,1449258582167,1449258582590,877,495,0,0,0,2,1,1,3,0003-00-0000-98.png,0004-00-0000-64.png
00000014,730,1,1449258583600,1449258583981,364,476,0,0,0,3,4,1,7,0002-00-0001-42.png,0001-00-0001-51.png
00000014,731,0,1449258584978,1449258585460,862,502,0,0,0,1,2,1,3,0004-00-0000-03.png,0003-00-0001-95.png
00000014,732,1,1449258588396,1449258588837,947,471,0,0,0,4,3,1,7,0001-00-0000-43.png,0002-00-0001-90.png
00000014,733,1,1449258589763,1449258590214,899,491,0,0,0,1,0,1,1,0004-00-0000-79.png,0005-00-0001-49.png
00000014,734,0,1449258591202,1449258591697,872,484,0,0,0,2,3,1,5,0003-00-0000-81.png,0002-00-0000-95.png
00000014,735,1,1449258594867,1449258595305,944,495,0,0,0,3,2,1,5,0002-00-0000-43.png,0003-00-0001-99.png
00000014,736,1,1449258596280,1449258596703,365,473,0,0,0,0,1,1,1,0005-00-0000-67.png,0004-00-0000-99.png
00000014,737,1,1449258597959,1449258598394,389,481,0,0,0,1,2,1,3,0004-00-0000-43.png,0003-00-0001-83.png
00000014,738,0,1449258599751,1449258600130,907,474,0,0,0,3,4,1,7,0002-00-0001-89.png,0001-00-0000-81.png
00000014,739,1,1449258603086,1449258603498,955,480,0,0,0,3,2,1,5,0002-00-0000-30.png,0003-00-0001-50.png
00000014,740,1,1449258604826,1449258605271,870,498,0,0,0,2,1,1,3,0003-00-0000-29.png,0004-00-0001-39.png
00000014,741,1,1449258606298,1449258606698,369,488,0,0,0,0,1,1,1,0005-00-0001-04.png,0004-00-0001-26.png
00000014,742,0,1449258607620,1449258608620,891,494,0,0,0,2,3,1,5,0003-00-0000-73.png,0002-00-0000-97.png
00000014,743,1,1449258611534,1449258611887,950,456,0,0,0,1,0,1,1,0004-00-0001-94.png,0005-00-0000-40.png
00000014,744,0,1449258612796,1449258613184,376,462,0,0,0,4,3,1,7,0001-00-0001-78.png,0002-00-0000-31.png
00000014,745,0,1449258616811,1449258617205,991,486,0,0,0,1,2,1,3,0004-00-0001-61.png,0003-00-0001-39.png
00000014,746,1,1449258620258,1449258620662,963,476,0,0,0,4,3,1,7,0001-00-0000-43.png,0002-00-0001-91.png
00000014,747,1,1449258622072,1449258622512,920,467,0,0,0,3,2,1,5,0002-00-0001-28.png,0003-00-0000-19.png
00000014,748,0,1449258623479,1449258623877,453,475,0,0,0,1,0,1,1,0004-00-0001-73.png,0005-00-0001-90.png
00000014,749,1,1449258626727,1449258627115,978,469,0,0,0,2,1,1,3,0003-00-0001-82.png,0004-00-0000-52.png
00000014,750,1,1449258628468,1449258628875,453,464,0,0,0,0,1,1,1,0005-00-0000-97.png,0004-00-0000-26.png
00000014,751,0,1449258630356,1449258630777,911,503,0,0,0,3,4,1,7,0002-00-0001-77.png,0001-00-0000-41.png
00000014,752,0,1449258634163,1449258634548,929,559,0,0,0,2,3,1,5,0003-00-0001-31.png,0002-00-0000-81.png
00000014,753,0,1449258637752,1449258638128,952,528,0,0,0,1,2,1,3,0004-00-0000-24.png,0003-00-0001-77.png
00000014,754,1,1449258641070,1449258641453,959,412,0,0,0,3,2,1,5,0002-00-0000-52.png,0003-00-0001-10.png
00000014,755,0,1449258642362,1449258642734,426,491,0,0,0,4,3,1,7,0001-00-0000-82.png,0002-00-0001-94.png
00000014,756,1,1449258645712,1449258646212,373,429,0,0,0,0,1,1,1,0005-00-0000-94.png,0004-00-0001-15.png
00000014,757,0,1449258647302,1449258647682,391,476,0,0,0,2,1,1,3,0003-00-0001-07.png,0004-00-0000-40.png
00000014,758,1,1449258651336,1449258651821,412,423,0,0,0,2,3,1,5,0003-00-0000-79.png,0002-00-0001-55.png
00000014,759,1,1449258652856,1449258653564,925,482,0,0,0,1,0,1,1,0004-00-0000-59.png,0005-00-0000-13.png
00000014,760,0,1449258654533,1449258655005,904,480,0,0,0,3,4,1,7,0002-00-0001-59.png,0001-00-0001-57.png
00000014,761,0,1449258658919,1449258659336,990,501,0,0,0,3,4,1,7,0002-00-0001-10.png,0001-00-0000-47.png
00000014,762,0,1449258662448,1449258662854,899,453,0,0,0,0,1,1,1,0005-00-0000-93.png,0004-00-0000-68.png
00000014,763,1,1449258665697,1449258666083,939,476,0,0,0,4,3,1,7,0001-00-0001-50.png,0002-00-0001-59.png
00000014,764,1,1449258667009,1449258667566,918,496,0,0,0,2,1,1,3,0003-00-0000-82.png,0004-00-0001-96.png
00000014,765,1,1449258668549,1449258669009,866,495,0,0,0,1,0,1,1,0004-00-0001-54.png,0005-00-0001-79.png
00000014,766,1,1449258670016,1449258670471,343,505,0,0,0,1,2,1,3,0004-00-0000-61.png,0003-00-0001-16.png
00000014,767,0,1449258671479,1449258671982,872,511,0,0,0,2,3,1,5,0003-00-0001-89.png,0002-00-0000-17.png
00000014,768,1,1449258674908,1449258675467,898,534,0,0,0,3,2,1,5,0002-00-0000-17.png,0003-00-0001-44.png
00000014,769,1,1449258676378,1449258676877,912,502,0,0,0,1,0,1,1,0004-00-0000-56.png,0005-00-0000-64.png
00000014,770,0,1449258677820,1449258678328,887,502,0,0,0,3,4,1,7,0002-00-0000-26.png,0001-00-0001-37.png
00000014,771,0,1449258681189,1449258681581,970,405,0,0,0,1,2,1,3,0004-00-0001-96.png,0003-00-0001-79.png
00000014,772,0,1449258684608,1449258685015,983,447,0,0,0,2,3,1,5,0003-00-0000-51.png,0002-00-0001-73.png
00000014,773,1,1449258688074,1449258688499,952,463,0,0,0,3,2,1,5,0002-00-0000-07.png,0003-00-0000-16.png
00000014,774,1,1449258689412,1449258689822,350,475,0,0,0,0,1,1,1,0005-00-0001-18.png,0004-00-0000-23.png
00000014,775,1,1449258691088,1449258691592,897,484,0,0,0,2,1,1,3,0003-00-0000-07.png,0004-00-0001-42.png
00000014,776,1,1449258692558,1449258693025,870,498,0,0,0,4,3,1,7,0001-00-0000-24.png,0002-00-0000-38.png
00000014,777,0,1449258694433,1449258694861,875,462,0,0,0,2,3,1,5,0003-00-0000-39.png,0002-00-0001-02.png
00000014,778,0,1449258698670,1449258699082,985,500,0,0,0,3,4,1,7,0002-00-0001-62.png,0001-00-0001-04.png
00000014,779,0,1449258702497,1449258702919,929,471,0,0,0,0,1,1,1,0005-00-0001-22.png,0004-00-0000-40.png
00000014,780,0,1449258706077,1449258706606,453,436,0,0,0,1,0,1,1,0004-00-0001-82.png,0005-00-0001-81.png
00000014,781,0,1449258709752,1449258710177,909,449,0,0,0,1,2,1,3,0004-00-0000-70.png,0003-00-0001-48.png
00000014,782,1,1449258713065,1449258713466,952,410,0,0,0,4,3,1,7,0001-00-0000-58.png,0002-00-0001-30.png
00000014,783,1,1449258714441,1449258714880,912,502,0,0,0,2,1,1,3,0003-00-0000-93.png,0004-00-0001-21.png
00000014,784,1,1449258715837,1449258716375,896,472,0,0,0,3,2,1,5,0002-00-0000-55.png,0003-00-0001-52.png
00000014,785,1,1449258717385,1449258717748,427,512,0,0,0,0,1,1,1,0005-00-0000-93.png,0004-00-0001-33.png
00000014,786,1,1449258718762,1449258719273,875,482,0,0,0,1,0,1,1,0004-00-0000-42.png,0005-00-0001-13.png
00000014,787,0,1449258720223,1449258720668,427,502,0,0,0,2,1,1,3,0003-00-0001-47.png,0004-00-0001-05.png
00000014,788,0,1449258723637,1449258724064,954,468,0,0,0,3,4,1,7,0002-00-0000-32.png,0001-00-0001-74.png
00000014,789,0,1449258727619,1449258728000,965,450,0,0,0,2,3,1,5,0003-00-0000-02.png,0002-00-0000-99.png
00000014,790,1,1449258731019,1449258731404,899,502,0,0,0,3,2,1,5,0002-00-0001-20.png,0003-00-0000-42.png
00000014,791,1,1449258732321,1449258732721,447,522,0,0,0,1,2,1,3,0004-00-0000-58.png,0003-00-0001-25.png
00000014,792,1,1449258733808,1449258734328,901,513,0,0,0,4,3,1,7,0001-00-0001-39.png,0002-00-0000-12.png
00000014,793,1,1449258735273,1449258735781,870,472,0,0,0,1,0,1,1,0004-00-0001-80.png,0005-00-0001-12.png
00000014,794,0,1449258737209,1449258737584,436,470,0,0,0,4,3,1,7,0001-00-0000-51.png,0002-00-0001-59.png
00000014,795,1,1449258740579,1449258740966,1002,410,0,0,0,2,1,1,3,0003-00-0000-73.png,0004-00-0000-85.png
00000014,796,1,1449258741891,1449258742390,382,438,0,0,0,1,2,1,3,0004-00-0001-16.png,0003-00-0001-54.png
00000014,797,0,1449258743424,1449258743863,393,428,0,0,0,3,2,1,5,0002-00-0001-70.png,0003-00-0000-71.png
00000014,798,0,1449258747130,1449258747549,955,492,0,0,0,2,3,1,5,0003-00-0000-29.png,0002-00-0001-24.png
00000014,799,1,1449258750876,1449258751431,427,436,0,0,0,0,1,1,1,0005-00-0000-91.png,0004-00-0001-67.png
00000014,800,0,1449258752375,1449258752904,926,489,0,0,0,3,4,1,7,0002-00-0000-70.png,0001-00-0001-01.png
00000014,801,0,1449258756057,1449258756513,951,517,0,0,0,0,1,1,1,0005-00-0001-04.png,0004-00-0001-50.png
00000014,802,1,1449258759682,1449258760098,930,532,0,0,0,1,0,1,1,0004-00-0001-88.png,0005-00-0001-99.png
00000014,803,0,1449258761035,1449258761558,395,460,0,0,0,4,3,1,7,0001-00-0000-84.png,0002-00-0001-73.png
00000014,804,0,1449258764560,1449258765016,896,438,0,0,0,3,4,1,7,0002-00-0001-87.png,0001-00-0000-95.png
00000014,805,1,1449258768120,1449258768641,964,476,0,0,0,2,1,1,3,0003-00-0001-07.png,0004-00-0001-33.png
00000014,806,0,1449258769577,1449258770061,922,498,0,0,0,2,3,1,5,0003-00-0000-22.png,0002-00-0001-00.png
00000014,807,0,1449258773109,1449258773515,962,473,0,0,0,1,2,1,3,0004-00-0000-96.png,0003-00-0000-79.png
00000014,808,1,1449258776594,1449258776984,933,525,0,0,0,3,2,1,5,0002-00-0000-38.png,0003-00-0000-93.png
00000014,809,1,1449258777868,1449258778279,401,476,0,0,0,0,1,1,1,0005-00-0000-09.png,0004-00-0001-53.png
00000014,810,1,1449258779299,1449258779781,899,484,0,0,0,2,1,1,3,0003-00-0001-21.png,0004-00-0000-96.png
00000014,811,0,1449258780751,1449258781150,380,471,0,0,0,4,3,1,7,0001-00-0001-05.png,0002-00-0001-36.png
00000014,812,0,1449258784203,1449258784616,998,472,0,0,0,3,4,1,7,0002-00-0001-96.png,0001-00-0001-83.png
00000014,813,1,1449258787498,1449258787895,1006,403,0,0,0,3,2,1,5,0002-00-0001-86.png,0003-00-0000-20.png
00000014,814,1,1449258788800,1449258789198,388,476,0,0,0,1,2,1,3,0004-00-0001-06.png,0003-00-0000-91.png
00000014,815,0,1449258790201,1449258790571,398,471,0,0,0,1,0,1,1,0004-00-0000-28.png,0005-00-0000-77.png
00000014,816,0,1449258793641,1449258794138,953,468,0,0,0,2,3,1,5,0003-00-0000-71.png,0002-00-0001-41.png
00000014,817,1,1449258797943,1449258798339,990,475,0,0,0,2,1,1,3,0003-00-0000-94.png,0004-00-0001-40.png
00000014,818,1,1449258799258,1449258799817,928,494,0,0,0,1,0,1,1,0004-00-0001-25.png,0005-00-0001-73.png
00000014,819,1,1449258800892,1449258801249,427,502,0,0,0,1,2,1,3,0004-00-0000-52.png,0003-00-0000-73.png
00000014,820,1,1449258802316,1449258802733,440,501,0,0,0,0,1,1,1,0005-00-0000-12.png,0004-00-0000-37.png
00000014,821,0,1449258803757,1449258804129,407,505,0,0,0,3,2,1,5,0002-00-0001-27.png,0003-00-0001-05.png
00000014,822,0,1449258807235,1449258807672,959,501,0,0,0,3,4,1,7,0002-00-0000-63.png,0001-00-0001-23.png
00000014,823,0,1449258810664,1449258811043,975,456,0,0,0,2,3,1,5,0003-00-0000-35.png,0002-00-0000-44.png
00000014,824,1,1449258814211,1449258814595,983,473,0,0,0,4,3,1,7,0001-00-0001-65.png,0002-00-0001-35.png
00000014,825,1,1449258815521,1449258816006,914,502,0,0,0,4,3,1,7,0001-00-0001-93.png,0002-00-0001-51.png
00000014,826,1,1449258816954,1449258817475,873,483,0,0,0,2,1,1,3,0003-00-0001-88.png,0004-00-0000-29.png
00000014,827,0,1449258818476,1449258818880,457,515,0,0,0,3,2,1,5,0002-00-0001-76.png,0003-00-0000-98.png
00000014,828,0,1449258822191,1449258822627,950,482,0,0,0,3,4,1,7,0002-00-0000-00.png,0001-00-0000-67.png
00000014,829,0,1449258825762,1449258826177,977,481,0,0,0,2,3,1,5,0003-00-0000-84.png,0002-00-0001-38.png
00000014,830,1,1449258829069,1449258829484,964,468,0,0,0,1,0,1,1,0004-00-0000-74.png,0005-00-0000-87.png
00000014,831,1,1449258830378,1449258830792,372,449,0,0,0,0,1,1,1,0005-00-0000-24.png,0004-00-0001-81.png
00000014,832,1,1449258831847,1449258832232,367,481,0,0,0,1,2,1,3,0004-00-0001-92.png,0003-00-0001-05.png
00000014,833,0,1449258833221,1449258833703,860,502,0,0,0,2,3,1,5,0003-00-0000-60.png,0002-00-0001-39.png
00000014,834,1,1449258836792,1449258837288,414,410,0,0,0,0,1,1,1,0005-00-0001-49.png,0004-00-0000-82.png
00000014,835,0,1449258838211,1449258838575,453,516,0,0,0,4,3,1,7,0001-00-0000-78.png,0002-00-0000-22.png
00000014,836,0,1449258841532,1449258841947,951,502,0,0,0,1,2,1,3,0004-00-0001-17.png,0003-00-0001-71.png
00000014,837,0,1449258844881,1449258845273,952,436,0,0,0,3,4,1,7,0002-00-0001-26.png,0001-00-0000-30.png
00000014,838,1,1449258848336,1449258848720,946,501,0,0,0,1,0,1,1,0004-00-0001-51.png,0005-00-0000-81.png
00000014,839,1,1449258849629,1449258850134,926,514,0,0,0,2,1,1,3,0003-00-0000-12.png,0004-00-0000-70.png
00000014,840,0,1449258851057,1449258851493,376,502,0,0,0,3,2,1,5,0002-00-0000-01.png,0003-00-0000-54.png
00000014,841,0,1449258854409,1449258854882,955,493,0,0,0,2,3,1,5,0003-00-0000-57.png,0002-00-0001-51.png
00000014,842,1,1449258857951,1449258858353,952,449,0,0,0,1,0,1,1,0004-00-0001-32.png,0005-00-0001-75.png
00000014,843,1,1449258859259,1449258859671,357,482,0,0,0,1,2,1,3,0004-00-0000-92.png,0003-00-0001-56.png
00000014,844,0,1449258860724,1449258861061,446,529,0,0,0,4,3,1,7,0001-00-0000-51.png,0002-00-0001-47.png
00000014,845,1,1449258864001,1449258864349,902,520,0,0,0,2,1,1,3,0003-00-0000-84.png,0004-00-0000-09.png
00000014,846,0,1449258865321,1449258866264,939,475,0,0,0,3,4,1,7,0002-00-0000-65.png,0001-00-0001-02.png
00000014,847,1,1449258869270,1449258869831,450,416,0,0,0,0,1,1,1,0005-00-0000-79.png,0004-00-0001-52.png
00000014,848,1,1449258870696,1449258871199,900,489,0,0,0,3,2,1,5,0002-00-0000-45.png,0003-00-0000-82.png
00000014,849,0,1449258872130,1449258872554,376,503,0,0,0,2,1,1,3,0003-00-0001-74.png,0004-00-0001-46.png
00000014,850,1,1449258875511,1449258875935,913,555,0,0,0,3,2,1,5,0002-00-0000-77.png,0003-00-0000-83.png
00000014,851,0,1449258876902,1449258877344,376,487,0,0,0,4,3,1,7,0001-00-0000-84.png,0002-00-0000-03.png
00000014,852,0,1449258880525,1449258880982,861,489,0,0,0,3,4,1,7,0002-00-0000-59.png,0001-00-0000-20.png
00000014,853,1,1449258885119,1449258885627,388,423,0,0,0,0,1,1,1,0005-00-0001-22.png,0004-00-0001-97.png
00000014,854,0,1449258886568,1449258886973,368,496,0,0,0,1,0,1,1,0004-00-0001-91.png,0005-00-0000-62.png
00000014,855,0,1449258889937,1449258890383,984,474,0,0,0,1,2,1,3,0004-00-0000-57.png,0003-00-0000-55.png
00000014,856,0,1449258893328,1449258893711,925,515,0,0,0,2,3,1,5,0003-00-0001-02.png,0002-00-0001-25.png
00000014,857,0,1449258896835,1449258897318,415,506,0,0,0,4,3,1,7,0001-00-0001-10.png,0002-00-0000-43.png
00000014,858,1,1449258900253,1449258900629,970,425,0,0,0,2,1,1,3,0003-00-0001-51.png,0004-00-0001-75.png
00000014,859,1,1449258901560,1449258902037,901,514,0,0,0,1,0,1,1,0004-00-0000-42.png,0005-00-0000-44.png
00000014,860,0,1449258903018,1449258903493,887,476,0,0,0,3,4,1,7,0002-00-0000-74.png,0001-00-0000-35.png
00000014,861,0,1449258906695,1449258907082,903,544,0,0,0,2,3,1,5,0003-00-0001-98.png,0002-00-0000-87.png
00000014,862,0,1449258910133,1449258910655,976,449,0,0,0,1,2,1,3,0004-00-0000-42.png,0003-00-0000-45.png
00000014,863,0,1449258913551,1449258913996,472,415,0,0,0,3,2,1,5,0002-00-0000-55.png,0003-00-0000-22.png
00000014,864,1,1449258916905,1449258917493,427,358,0,0,0,0,1,1,1,0005-00-0000-60.png,0004-00-0000-63.png
00000014,865,0,1449258918739,1449258919185,909,495,0,0,0,2,3,1,5,0003-00-0000-16.png,0002-00-0000-38.png
00000014,866,0,1449258922259,1449258922661,979,410,0,0,0,1,2,1,3,0004-00-0001-86.png,0003-00-0000-73.png
00000014,867,1,1449258925548,1449258925919,968,441,0,0,0,3,2,1,5,0002-00-0001-79.png,0003-00-0000-93.png
00000014,868,0,1449258927214,1449258927642,925,491,0,0,0,0,1,1,1,0005-00-0001-98.png,0004-00-0001-01.png
00000014,869,1,1449258930514,1449258930959,976,489,0,0,0,2,1,1,3,0003-00-0000-98.png,0004-00-0000-80.png
00000014,870,1,1449258931858,1449258932392,896,524,0,0,0,4,3,1,7,0001-00-0001-38.png,0002-00-0000-19.png
00000014,871,1,1449258933369,1449258934064,899,542,0,0,0,1,0,1,1,0004-00-0000-94.png,0005-00-0001-16.png
00000014,872,1,1449258935050,1449258935426,470,505,0,0,0,3,4,1,7,0002-00-0000-70.png,0001-00-0001-81.png
00000014,873,0,1449258936429,1449258936833,435,493,0,0,0,3,2,1,5,0002-00-0000-91.png,0003-00-0000-91.png
00000014,874,0,1449258939898,1449258940301,980,436,0,0,0,3,4,1,7,0002-00-0001-95.png,0001-00-0000-49.png
00000014,875,0,1449258943475,1449258944044,478,410,0,0,0,2,1,1,3,0003-00-0001-07.png,0004-00-0001-81.png
00000014,876,0,1449258947134,1449258947570,891,430,0,0,0,1,2,1,3,0004-00-0000-39.png,0003-00-0000-03.png
00000014,877,1,1449258950644,1449258951063,959,395,0,0,0,1,0,1,1,0004-00-0001-81.png,0005-00-0000-99.png
00000014,878,0,1449258952005,1449258952407,427,501,0,0,0,4,3,1,7,0001-00-0001-91.png,0002-00-0000-06.png
00000014,879,0,1449258956695,1449258957049,977,476,0,0,0,0,1,1,1,0005-00-0001-50.png,0004-00-0001-92.png
00000014,880,0,1449258960263,1449258960672,973,470,0,0,0,2,3,1,5,0003-00-0000-24.png,0002-00-0000-56.png
00000014,881,0,1449258963631,1449258964077,977,410,0,0,0,3,4,1,7,0002-00-0001-33.png,0001-00-0000-45.png
00000014,882,0,1449258967191,1449258967582,960,448,0,0,0,1,2,1,3,0004-00-0001-41.png,0003-00-0000-33.png
00000014,883,1,1449258970472,1449258970903,1003,410,0,0,0,2,1,1,3,0003-00-0001-84.png,0004-00-0000-15.png
00000014,884,1,1449258971907,1449258972294,390,489,0,0,0,0,1,1,1,0005-00-0000-84.png,0004-00-0001-14.png
00000014,885,0,1449258973278,1449258973695,376,502,0,0,0,1,0,1,1,0004-00-0001-65.png,0005-00-0000-33.png
00000014,886,0,1449258976545,1449258977081,432,385,0,0,0,4,3,1,7,0001-00-0001-68.png,0002-00-0000-25.png
00000014,887,0,1449258980159,1449258980543,991,424,0,0,0,2,3,1,5,0003-00-0001-32.png,0002-00-0000-58.png
00000014,888,0,1449258983838,1449258983854,515,483,0,0,0,3,2,1,5,0002-00-0000-55.png,0003-00-0001-68.png
00000014,889,1,1449258986915,1449258987288,1002,386,0,0,0,4,3,1,7,0001-00-0001-60.png,0002-00-0001-59.png
00000014,890,0,1449258988667,1449258989055,443,468,0,0,0,3,2,1,5,0002-00-0001-85.png,0003-00-0001-65.png
00000014,891,1,1449258993219,1449258993612,985,448,0,0,0,1,0,1,1,0004-00-0001-36.png,0005-00-0001-11.png
00000014,892,1,1449258994946,1449258995381,395,461,0,0,0,1,2,1,3,0004-00-0000-15.png,0003-00-0001-79.png
00000014,893,0,1449258996448,1449258996940,888,502,0,0,0,0,1,1,1,0005-00-0000-43.png,0004-00-0000-21.png
00000014,894,1,1449259000067,1449259000482,975,433,0,0,0,2,1,1,3,0003-00-0001-49.png,0004-00-0001-74.png
00000014,895,0,1449259001837,1449259002246,900,502,0,0,0,2,3,1,5,0003-00-0001-51.png,0002-00-0000-90.png
00000014,896,0,1449259005451,1449259005881,952,506,0,0,0,3,4,1,7,0002-00-0001-75.png,0001-00-0000-72.png
00000014,897,0,1449259009070,1449259010062,433,548,0,0,0,1,0,1,1,0004-00-0000-60.png,0005-00-0000-16.png
00000014,898,1,1449259013017,1449259013444,994,454,0,0,0,4,3,1,7,0001-00-0000-12.png,0002-00-0000-53.png
00000014,899,1,1449259014381,1449259014826,350,475,0,0,0,3,4,1,7,0002-00-0001-97.png,0001-00-0001-60.png
00000014,900,1,1449259016204,1449259016623,387,488,0,0,0,1,2,1,3,0004-00-0001-08.png,0003-00-0001-27.png
00000014,901,0,1449259017626,1449259018010,433,486,0,0,0,2,1,1,3,0003-00-0001-37.png,0004-00-0000-45.png
00000014,902,0,1449259021403,1449259022070,862,553,0,0,0,0,1,1,1,0005-00-0001-25.png,0004-00-0001-70.png
00000014,903,1,1449259025131,1449259025608,951,410,0,0,0,3,2,1,5,0002-00-0000-72.png,0003-00-0000-32.png
00000014,904,0,1449259026551,1449259027024,900,515,0,0,0,2,3,1,5,0003-00-0000-11.png,0002-00-0000-33.png
00000014,905,1,1449259029917,1449259030333,939,398,0,0,0,2,1,1,3,0003-00-0001-97.png,0004-00-0001-69.png
00000014,906,0,1449259031290,1449259031824,900,501,0,0,0,2,3,1,5,0003-00-0001-87.png,0002-00-0001-62.png
00000014,907,0,1449259035089,1449259035483,977,475,0,0,0,0,1,1,1,0005-00-0000-70.png,0004-00-0000-92.png
00000014,908,1,1449259039610,1449259040233,454,477,0,0,0,3,4,1,7,0002-00-0001-20.png,0001-00-0000-48.png
00000014,909,1,1449259041351,1449259041903,889,475,0,0,0,4,3,1,7,0001-00-0001-11.png,0002-00-0000-36.png
00000014,910,1,1449259043089,1449259043602,876,467,0,0,0,3,2,1,5,0002-00-0000-34.png,0003-00-0000-55.png
00000014,911,0,1449259045033,1449259045532,896,472,0,0,0,1,2,1,3,0004-00-0000-92.png,0003-00-0001-03.png
00000014,912,1,1449259049389,1449259049787,1009,448,0,0,0,1,0,1,1,0004-00-0001-64.png,0005-00-0000-11.png
00000014,913,1,1449259050720,1449259051151,418,480,0,0,0,3,4,1,7,0002-00-0000-33.png,0001-00-0001-71.png
00000014,914,1,1449259052081,1449259052508,399,498,0,0,0,0,1,1,1,0005-00-0001-36.png,0004-00-0000-00.png
00000014,915,0,1449259053514,1449259054006,875,513,0,0,0,2,3,1,5,0003-00-0000-34.png,0002-00-0001-39.png
00000014,916,1,1449259057469,1449259057871,973,496,0,0,0,1,0,1,1,0004-00-0000-45.png,0005-00-0000-39.png
00000014,917,1,1449259058812,1449259059267,394,480,0,0,0,1,2,1,3,0004-00-0000-95.png,0003-00-0000-69.png
00000014,918,1,1449259060751,1449259061166,871,470,0,0,0,2,1,1,3,0003-00-0001-53.png,0004-00-0000-95.png
00000014,919,0,1449259062138,1449259062519,441,503,0,0,0,4,3,1,7,0001-00-0000-30.png,0002-00-0000-76.png
00000014,920,1,1449259065491,1449259065898,951,463,0,0,0,3,2,1,5,0002-00-0001-63.png,0003-00-0000-05.png
00000014,921,0,1449259067270,1449259067696,453,486,0,0,0,4,3,1,7,0001-00-0000-78.png,0002-00-0000-71.png
00000014,922,1,1449259070737,1449259071172,976,488,0,0,0,3,2,1,5,0002-00-0000-30.png,0003-00-0001-06.png
00000014,923,0,1449259072485,1449259072890,900,501,0,0,0,3,4,1,7,0002-00-0000-01.png,0001-00-0001-36.png
00000014,924,1,1449259076153,1449259076527,926,541,0,0,0,1,0,1,1,0004-00-0001-86.png,0005-00-0000-66.png
00000014,925,0,1449259077945,1449259078352,382,479,0,0,0,2,1,1,3,0003-00-0000-27.png,0004-00-0001-41.png
00000014,926,0,1449259081364,1449259081836,977,463,0,0,0,0,1,1,1,0005-00-0001-14.png,0004-00-0001-75.png
00000014,927,0,1449259085012,1449259085465,970,452,0,0,0,1,2,1,3,0004-00-0000-52.png,0003-00-0000-70.png
00000014,928,0,1449259088527,1449259088962,964,475,0,0,0,2,3,1,5,0003-00-0000-68.png,0002-00-0001-00.png
00000014,929,1,1449259095744,1449259096124,985,467,0,0,0,3,2,1,5,0002-00-0000-15.png,0003-00-0000-56.png
00000014,930,0,1449259097038,1449259097618,898,511,0,0,0,3,4,1,7,0002-00-0001-45.png,0001-00-0000-32.png
00000014,931,1,1449259100855,1449259101287,926,436,0,0,0,4,3,1,7,0001-00-0001-54.png,0002-00-0001-38.png
00000014,932,1,1449259102164,1449259102574,369,460,0,0,0,0,1,1,1,0005-00-0001-64.png,0004-00-0001-31.png
00000014,933,1,1449259103657,1449259104104,877,521,0,0,0,2,1,1,3,0003-00-0000-01.png,0004-00-0001-97.png
00000014,934,0,1449259105076,1449259105583,896,472,0,0,0,1,2,1,3,0004-00-0001-49.png,0003-00-0001-79.png
00000014,935,1,1449259108744,1449259109107,973,446,0,0,0,1,0,1,1,0004-00-0000-52.png,0005-00-0001-00.png
00000014,936,0,1449259110056,1449259110507,891,497,0,0,0,2,3,1,5,0003-00-0000-20.png,0002-00-0000-41.png
00000014,937,0,1449259113792,1449259114177,987,459,0,0,0,3,4,1,7,0002-00-0000-79.png,0001-00-0000-16.png
00000014,938,1,1449259117042,1449259117714,904,533,0,0,0,3,2,1,5,0002-00-0001-37.png,0003-00-0000-14.png
00000014,939,1,1449259118615,1449259119099,896,498,0,0,0,1,0,1,1,0004-00-0001-48.png,0005-00-0000-67.png
00000014,940,1,1449259120064,1449259120564,866,485,0,0,0,2,1,1,3,0003-00-0000-47.png,0004-00-0000-07.png
00000014,941,0,1449259121534,1449259122020,862,476,0,0,0,2,3,1,5,0003-00-0001-77.png,0002-00-0001-57.png
00000014,942,0,1449259125353,1449259126273,970,469,0,0,0,0,1,1,1,0005-00-0001-44.png,0004-00-0000-97.png
00000014,943,0,1449259129414,1449259129817,977,475,0,0,0,1,2,1,3,0004-00-0000-60.png,0003-00-0001-40.png
00000014,944,0,1449259132794,1449259133367,457,427,0,0,0,4,3,1,7,0001-00-0001-36.png,0002-00-0000-28.png
00000014,945,0,1449259136455,1449259137313,958,472,0,0,0,2,3,1,5,0003-00-0000-43.png,0002-00-0000-73.png
00000014,946,0,1449259140744,1449259141158,1002,448,0,0,0,1,2,1,3,0004-00-0001-58.png,0003-00-0001-38.png
00000014,947,0,1449259144731,1449259145114,977,449,0,0,0,0,1,1,1,0005-00-0000-81.png,0004-00-0001-99.png
00000014,948,0,1449259148222,1449259148638,904,532,0,0,0,3,4,1,7,0002-00-0001-17.png,0001-00-0000-66.png
00000014,949,1,1449259151495,1449259151922,900,527,0,0,0,1,0,1,1,0004-00-0000-98.png,0005-00-0000-31.png
00000014,950,0,1449259152879,1449259153373,443,480,0,0,0,4,3,1,7,0001-00-0000-23.png,0002-00-0001-69.png
00000014,951,1,1449259156535,1449259156900,926,554,0,0,0,2,1,1,3,0003-00-0001-46.png,0004-00-0001-10.png
