subject_id,trial,correct_response,stim_time,response_time,x_coord,y_coord,trial_timeout,timeout_time,interTrial_timeout,left_rank,right_rank,distance,joint_rank,left_image,right_image
00000014,1,1,1449068619299,1449068620163,350,351,0,0,0,0,1,1,1,0005-00-0001-40.png,0004-00-0001-25.png
00000014,2,1,1449068621636,1449068622057,931,453,0,0,0,2,1,1,3,0003-00-0000-46.png,0004-00-0000-93.png
00000014,3,0,1449068623134,1449068624043,436,392,0,0,0,4,3,1,7,0001-00-0000-94.png,0002-00-0001-07.png
00000014,4,0,1449068627359,1449068627812,926,411,0,0,0,3,4,1,7,0002-00-0000-42.png,0001-00-0001-64.png
00000014,5,0,1449068630756,1449068630776,512,366,0,0,0,1,0,1,1,0004-00-0000-43.png,0005-00-0000-80.png
00000014,6,1,1449068633707,1449068633715,511,407,0,0,0,2,3,1,5,0003-00-0000-45.png,0002-00-0000-79.png
00000014,7,0,1449068634763,1449068635231,928,467,0,0,0,1,2,1,3,0004-00-0000-08.png,0003-00-0001-89.png
00000014,8,1,1449068638238,1449068638702,938,446,0,0,0,3,2,1,5,0002-00-0001-49.png,0003-00-0000-83.png
00000014,9,0,1449068639707,1449068640357,964,443,0,0,0,0,1,1,1,0005-00-0000-77.png,0004-00-0000-15.png
00000014,10,0,1449068643628,1449068644073,376,372,0,0,0,4,3,1,7,0001-00-0001-47.png,0002-00-0001-80.png
00000014,11,0,1449068647296,1449068647953,376,380,0,0,0,3,2,1,5,0002-00-0000-58.png,0003-00-0000-23.png
00000014,12,1,1449068651217,1449068651887,402,380,0,0,0,3,4,1,7,0002-00-0000-19.png,0001-00-0000-21.png
00000014,13,1,1449068653106,1449068653544,956,428,0,0,0,1,0,1,1,0004-00-0001-23.png,0005-00-0000-60.png
00000014,14,0,1449068654489,1449068654996,944,450,0,0,0,1,2,1,3,0004-00-0001-67.png,0003-00-0001-77.png
00000014,15,0,1449068657885,1449068658364,928,442,0,0,0,2,3,1,5,0003-00-0001-39.png,0002-00-0000-28.png
00000014,16,0,1449068661761,1449068662232,359,365,0,0,0,2,1,1,3,0003-00-0000-20.png,0004-00-0000-85.png
00000014,17,0,1449068665134,1449068665603,385,355,0,0,0,2,1,1,3,0003-00-0000-56.png,0004-00-0001-96.png
00000014,18,1,1449068669032,1449068669445,970,430,0,0,0,3,2,1,5,0002-00-0001-07.png,0003-00-0001-02.png
00000014,19,0,1449068670910,1449068671398,932,443,0,0,0,0,1,1,1,0005-00-0001-21.png,0004-00-0000-63.png
00000014,20,0,1449068674539,1449068675006,923,433,0,0,0,1,2,1,3,0004-00-0001-62.png,0003-00-0000-75.png
00000014,21,0,1449068678106,1449068678600,872,463,0,0,0,3,4,1,7,0002-00-0000-36.png,0001-00-0000-03.png
00000014,22,0,1449068681576,1449068681596,500,387,0,0,0,1,0,1,1,0004-00-0000-24.png,0005-00-0000-20.png
00000014,23,0,1449068685687,1449068686218,391,382,0,0,0,4,3,1,7,0001-00-0001-72.png,0002-00-0001-60.png
00000014,24,0,1449068689297,1449068689933,951,449,0,0,0,2,3,1,5,0003-00-0001-36.png,0002-00-0000-76.png
00000014,25,1,1449068693009,1449068693480,979,458,0,0,0,1,0,1,1,0004-00-0001-03.png,0005-00-0001-55.png
00000014,26,1,1449068694832,1449068695328,421,514,0,0,0,0,1,1,1,0005-00-0000-24.png,0004-00-0001-48.png
00000014,27,0,1449068696358,1449068696825,871,394,0,0,0,1,2,1,3,0004-00-0001-17.png,0003-00-0001-50.png
00000014,28,0,1449068699813,1449068699829,488,424,0,0,0,3,2,1,5,0002-00-0001-90.png,0003-00-0001-86.png
00000014,29,0,1449068703101,1449068703586,418,403,0,0,0,4,3,1,7,0001-00-0001-70.png,0002-00-0000-52.png
00000014,30,0,1449068706865,1449068707295,949,430,0,0,0,3,4,1,7,0002-00-0000-80.png,0001-00-0000-65.png
00000014,31,0,1449068711211,1449068711733,410,367,0,0,0,2,1,1,3,0003-00-0001-79.png,0004-00-0001-40.png
00000014,32,0,1449068715045,1449068715479,956,402,0,0,0,2,3,1,5,0003-00-0001-82.png,0002-00-0000-23.png
00000014,33,0,1449068718562,1449068719026,971,409,0,0,0,3,4,1,7,0002-00-0000-37.png,0001-00-0001-51.png
00000014,34,1,1449068722241,1449068722733,921,472,0,0,0,3,2,1,5,0002-00-0000-87.png,0003-00-0000-53.png
00000014,35,1,1449068724030,1449068724506,928,440,0,0,0,2,1,1,3,0003-00-0001-66.png,0004-00-0000-14.png
00000014,36,1,1449068725529,1449068725984,901,450,0,0,0,4,3,1,7,0001-00-0001-95.png,0002-00-0001-86.png
00000014,37,0,1449068727033,1449068727575,874,409,0,0,0,1,2,1,3,0004-00-0001-74.png,0003-00-0001-88.png
00000014,38,0,1449068733456,1449068733914,990,447,0,0,0,2,3,1,5,0003-00-0000-22.png,0002-00-0000-55.png
00000014,39,1,1449068736824,1449068737283,933,421,0,0,0,1,0,1,1,0004-00-0001-42.png,0005-00-0000-87.png
00000014,40,0,1449068738305,1449068738773,878,520,0,0,0,0,1,1,1,0005-00-0000-83.png,0004-00-0001-95.png
00000014,41,0,1449068746615,1449068747045,489,379,0,0,0,1,0,1,1,0004-00-0001-99.png,0005-00-0000-62.png
00000014,42,1,1449068750203,1449068750698,401,384,0,0,0,1,2,1,3,0004-00-0001-07.png,0003-00-0001-48.png
00000014,43,1,1449068751743,1449068752206,929,453,0,0,0,4,3,1,7,0001-00-0000-79.png,0002-00-0001-57.png
00000014,44,1,1449068753235,1449068753724,901,462,0,0,0,3,2,1,5,0002-00-0001-04.png,0003-00-0001-96.png
00000014,45,0,1449068754974,1449068755518,920,441,0,0,0,0,1,1,1,0005-00-0001-72.png,0004-00-0000-31.png
00000014,46,1,1449068758603,1449068759057,921,497,0,0,0,2,1,1,3,0003-00-0000-78.png,0004-00-0000-66.png
00000014,47,0,1449068760054,1449068760517,930,454,0,0,0,3,4,1,7,0002-00-0000-39.png,0001-00-0000-85.png
00000014,48,1,1449068763440,1449068763460,522,345,0,0,0,2,3,1,5,0003-00-0000-78.png,0002-00-0001-20.png
00000014,49,0,1449068764495,1449068764926,334,455,0,0,0,4,3,1,7,0001-00-0001-89.png,0002-00-0001-17.png
00000014,50,1,1449068768075,1449068768616,340,407,0,0,0,0,1,1,1,0005-00-0001-37.png,0004-00-0000-06.png
00000014,51,0,1449068769565,1449068770004,414,555,0,0,0,3,2,1,5,0002-00-0000-94.png,0003-00-0000-39.png
00000014,52,0,1449068773045,1449068773495,952,462,0,0,0,2,3,1,5,0003-00-0000-29.png,0002-00-0000-87.png
00000014,53,1,1449068776543,1449068777036,925,533,0,0,0,2,1,1,3,0003-00-0001-85.png,0004-00-0000-98.png
00000014,54,0,1449068778055,1449068778548,889,475,0,0,0,1,2,1,3,0004-00-0000-45.png,0003-00-0000-07.png
00000014,55,1,1449068782357,1449068782832,953,460,0,0,0,1,0,1,1,0004-00-0000-38.png,0005-00-0001-79.png
00000014,56,0,1449068783870,1449068784344,894,533,0,0,0,3,4,1,7,0002-00-0000-27.png,0001-00-0000-65.png
00000014,57,0,1449068787467,1449068787911,926,501,0,0,0,1,2,1,3,0004-00-0000-02.png,0003-00-0001-53.png
00000014,58,0,1449068791121,1449068791551,965,416,0,0,0,3,4,1,7,0002-00-0000-87.png,0001-00-0001-57.png
00000014,59,1,1449068794570,1449068795008,876,400,0,0,0,2,1,1,3,0003-00-0000-45.png,0004-00-0001-55.png
00000014,60,1,1449068796033,1449068796545,943,417,0,0,0,1,0,1,1,0004-00-0001-41.png,0005-00-0001-11.png
00000014,61,0,1449068797803,1449068798273,914,423,0,0,0,2,3,1,5,0003-00-0001-71.png,0002-00-0001-57.png
00000014,62,1,1449068801391,1449068801894,453,514,0,0,0,0,1,1,1,0005-00-0001-46.png,0004-00-0001-51.png
00000014,63,0,1449068802977,1449068803451,401,465,0,0,0,4,3,1,7,0001-00-0001-45.png,0002-00-0001-23.png
00000014,64,1,1449068806439,1449068806926,940,423,0,0,0,3,2,1,5,0002-00-0001-91.png,0003-00-0000-89.png
00000014,65,1,1449068808039,1449068808553,863,445,0,0,0,4,3,1,7,0001-00-0001-17.png,0002-00-0000-15.png
00000014,66,0,1449068809628,1449068810108,905,480,0,0,0,2,3,1,5,0003-00-0000-65.png,0002-00-0001-28.png
00000014,67,1,1449068812968,1449068813460,388,502,0,0,0,3,4,1,7,0002-00-0000-23.png,0001-00-0000-67.png
00000014,68,1,1449068814551,1449068815049,936,474,0,0,0,1,0,1,1,0004-00-0001-37.png,0005-00-0001-66.png
00000014,69,1,1449068816261,1449068816710,386,528,0,0,0,0,1,1,1,0005-00-0001-22.png,0004-00-0001-58.png
00000014,70,0,1449068817921,1449068818345,435,471,0,0,0,3,2,1,5,0002-00-0000-76.png,0003-00-0001-56.png
00000014,71,0,1449068821227,1449068821808,972,414,0,0,0,1,2,1,3,0004-00-0001-05.png,0003-00-0000-23.png
00000014,72,1,1449068824808,1449068825340,879,419,0,0,0,2,1,1,3,0003-00-0000-40.png,0004-00-0001-28.png
00000014,73,0,1449068826428,1449068826870,907,513,0,0,0,3,4,1,7,0002-00-0001-09.png,0001-00-0000-46.png
00000014,74,1,1449068829754,1449068830395,964,405,0,0,0,1,0,1,1,0004-00-0001-72.png,0005-00-0001-44.png
00000014,75,0,1449068831450,1449068831885,925,438,0,0,0,2,3,1,5,0003-00-0001-58.png,0002-00-0001-87.png
00000014,76,1,1449068834836,1449068835331,888,410,0,0,0,2,1,1,3,0003-00-0001-99.png,0004-00-0000-51.png
00000014,77,1,1449068836420,1449068836887,382,448,0,0,0,0,1,1,1,0005-00-0000-04.png,0004-00-0001-41.png
00000014,78,0,1449068837949,1449068838447,877,545,0,0,0,1,2,1,3,0004-00-0000-18.png,0003-00-0001-37.png
00000014,79,0,1449068841484,1449068841990,376,384,0,0,0,4,3,1,7,0001-00-0001-84.png,0002-00-0000-60.png
00000014,80,0,1449068844889,1449068845381,362,381,0,0,0,3,2,1,5,0002-00-0001-55.png,0003-00-0000-94.png
00000014,81,0,1449068848820,1449068849294,370,371,0,0,0,4,3,1,7,0001-00-0001-26.png,0002-00-0001-77.png
00000014,82,1,1449068852268,1449068852292,511,344,0,0,0,2,3,1,5,0003-00-0001-25.png,0002-00-0000-08.png
00000014,83,1,1449068853434,1449068853878,905,428,0,0,0,1,0,1,1,0004-00-0001-02.png,0005-00-0001-25.png
00000014,84,1,1449068854992,1449068855370,447,469,0,0,0,1,2,1,3,0004-00-0001-74.png,0003-00-0001-29.png
00000014,85,0,1449068856633,1449068857079,900,435,0,0,0,3,4,1,7,0002-00-0000-59.png,0001-00-0001-01.png
00000014,86,1,1449068860269,1449068860750,949,454,0,0,0,2,1,1,3,0003-00-0000-49.png,0004-00-0001-22.png
00000014,87,1,1449068861886,1449068862358,325,397,0,0,0,0,1,1,1,0005-00-0001-51.png,0004-00-0000-53.png
00000014,88,0,1449068863478,1449068863973,472,479,0,0,0,3,2,1,5,0002-00-0000-46.png,0003-00-0000-75.png
00000014,89,0,1449068866908,1449068867451,910,431,0,0,0,1,2,1,3,0004-00-0000-10.png,0003-00-0000-19.png
00000014,90,1,1449068870468,1449068870891,933,448,0,0,0,3,2,1,5,0002-00-0001-09.png,0003-00-0001-09.png
00000014,91,1,1449068871999,1449068872452,882,552,0,0,0,2,1,1,3,0003-00-0000-24.png,0004-00-0000-49.png
00000014,92,1,1449068873529,1449068873956,901,462,0,0,0,1,0,1,1,0004-00-0001-16.png,0005-00-0000-80.png
00000014,93,0,1449068875179,1449068875651,896,472,0,0,0,2,3,1,5,0003-00-0000-02.png,0002-00-0001-06.png
00000014,94,1,1449068879410,1449068879848,900,554,0,0,0,4,3,1,7,0001-00-0000-48.png,0002-00-0001-23.png
00000014,95,1,1449068880875,1449068881306,361,424,0,0,0,0,1,1,1,0005-00-0000-24.png,0004-00-0000-43.png
00000014,96,0,1449068882336,1449068882842,925,437,0,0,0,3,4,1,7,0002-00-0000-20.png,0001-00-0000-49.png
00000014,97,0,1449068886180,1449068886684,344,410,0,0,0,3,2,1,5,0002-00-0000-25.png,0003-00-0000-80.png
00000014,98,0,1449068889912,1449068890489,884,473,0,0,0,0,1,1,1,0005-00-0001-08.png,0004-00-0000-48.png
00000014,99,1,1449068894670,1449068895090,900,541,0,0,0,1,0,1,1,0004-00-0000-14.png,0005-00-0001-15.png
00000014,100,1,1449068896150,1449068896644,900,481,0,0,0,4,3,1,7,0001-00-0000-73.png,0002-00-0000-29.png
00000014,101,0,1449068897708,1449068898160,896,439,0,0,0,1,2,1,3,0004-00-0001-40.png,0003-00-0001-58.png
00000014,102,0,1449068901143,1449068901634,891,433,0,0,0,2,3,1,5,0003-00-0001-01.png,0002-00-0000-14.png
00000014,103,1,1449068904915,1449068905365,920,506,0,0,0,2,1,1,3,0003-00-0000-53.png,0004-00-0000-14.png
00000014,104,1,1449068906405,1449068906824,427,431,0,0,0,3,4,1,7,0002-00-0000-19.png,0001-00-0000-18.png
00000014,105,1,1449068908086,1449068908537,868,545,0,0,0,2,1,1,3,0003-00-0001-25.png,0004-00-0001-24.png
00000014,106,0,1449068909647,1449068910158,897,459,0,0,0,2,3,1,5,0003-00-0001-52.png,0002-00-0001-62.png
00000014,107,1,1449068914856,1449068915346,369,400,0,0,0,1,2,1,3,0004-00-0000-68.png,0003-00-0001-93.png
00000014,108,0,1449068916494,1449068916910,416,443,0,0,0,4,3,1,7,0001-00-0001-76.png,0002-00-0001-16.png
00000014,109,0,1449068920084,1449068920519,949,460,0,0,0,3,4,1,7,0002-00-0001-04.png,0001-00-0001-94.png
00000014,110,0,1449068923740,1449068924215,390,386,0,0,0,3,2,1,5,0002-00-0001-29.png,0003-00-0000-84.png
00000014,111,1,1449068927287,1449068927750,965,423,0,0,0,1,0,1,1,0004-00-0000-11.png,0005-00-0000-02.png
00000014,112,1,1449068928767,1449068929195,311,448,0,0,0,0,1,1,1,0005-00-0000-17.png,0004-00-0001-29.png
00000014,113,0,1449068930189,1449068930724,927,467,0,0,0,1,2,1,3,0004-00-0000-46.png,0003-00-0001-55.png
00000014,114,0,1449068933816,1449068934295,931,492,0,0,0,3,4,1,7,0002-00-0001-58.png,0001-00-0000-13.png
00000014,115,1,1449068937371,1449068937846,975,462,0,0,0,1,0,1,1,0004-00-0000-94.png,0005-00-0000-48.png
00000014,116,1,1449068939013,1449068939448,956,428,0,0,0,3,2,1,5,0002-00-0000-88.png,0003-00-0000-79.png
00000014,117,0,1449068940485,1449068940886,343,435,0,0,0,4,3,1,7,0001-00-0000-15.png,0002-00-0000-64.png
00000014,118,1,1449068944123,1449068944536,979,416,0,0,0,2,1,1,3,0003-00-0000-94.png,0004-00-0001-26.png
00000014,119,0,1449068945663,1449068946146,941,484,0,0,0,2,3,1,5,0003-00-0000-44.png,0002-00-0001-32.png
00000014,120,0,1449068949017,1449068949462,952,424,0,0,0,0,1,1,1,0005-00-0001-89.png,0004-00-0001-94.png
00000014,121,1,1449068952973,1449068953428,415,436,0,0,0,0,1,1,1,0005-00-0001-13.png,0004-00-0000-85.png
00000014,122,0,1449068954463,1449068955004,899,543,0,0,0,3,4,1,7,0002-00-0000-22.png,0001-00-0000-68.png
00000014,123,1,1449068958117,1449068958593,934,445,0,0,0,2,1,1,3,0003-00-0001-58.png,0004-00-0000-95.png
00000014,124,0,1449068959647,1449068960128,921,446,0,0,0,1,2,1,3,0004-00-0001-15.png,0003-00-0001-70.png
00000014,125,0,1449068963295,1449068963799,448,454,0,0,0,4,3,1,7,0001-00-0001-13.png,0002-00-0001-37.png
00000014,126,1,1449068967270,1449068967858,949,435,0,0,0,3,2,1,5,0002-00-0001-19.png,0003-00-0000-77.png
00000014,127,1,1449068969006,1449068969548,939,475,0,0,0,1,0,1,1,0004-00-0001-95.png,0005-00-0001-88.png
00000014,128,0,1449068970654,1449068971096,900,450,0,0,0,2,3,1,5,0003-00-0000-23.png,0002-00-0001-14.png
00000014,129,1,1449068974160,1449068974672,414,399,0,0,0,0,1,1,1,0005-00-0001-83.png,0004-00-0001-38.png
00000014,130,0,1449068975839,1449068976321,902,547,0,0,0,1,2,1,3,0004-00-0001-44.png,0003-00-0000-09.png
00000014,131,1,1449068979276,1449068979802,930,454,0,0,0,3,2,1,5,0002-00-0000-49.png,0003-00-0001-77.png
00000014,132,1,1449068981017,1449068981451,875,508,0,0,0,4,3,1,7,0001-00-0000-43.png,0002-00-0000-32.png
00000014,133,1,1449068982677,1449068983179,918,443,0,0,0,1,0,1,1,0004-00-0000-20.png,0005-00-0000-11.png
00000014,134,0,1449068984346,1449068984821,899,465,0,0,0,2,3,1,5,0003-00-0000-32.png,0002-00-0001-62.png
00000014,135,1,1449068987864,1449068988415,429,378,0,0,0,3,4,1,7,0002-00-0000-75.png,0001-00-0000-44.png
00000014,136,1,1449068989507,1449068990008,915,449,0,0,0,2,1,1,3,0003-00-0000-59.png,0004-00-0001-22.png
00000014,137,1,1449068991169,1449068991633,469,441,0,0,0,0,1,1,1,0005-00-0000-88.png,0004-00-0001-00.png
00000014,138,1,1449068992856,1449068993366,867,536,0,0,0,3,2,1,5,0002-00-0001-42.png,0003-00-0000-07.png
00000014,139,0,1449068994564,1449068994989,382,485,0,0,0,2,1,1,3,0003-00-0001-27.png,0004-00-0001-32.png
00000014,140,0,1449068997886,1449068998300,953,442,0,0,0,2,3,1,5,0003-00-0000-77.png,0002-00-0000-26.png
00000014,141,0,1449069001142,1449069001606,401,398,0,0,0,4,3,1,7,0001-00-0000-56.png,0002-00-0000-87.png
00000014,142,0,1449069004921,1449069005393,977,465,0,0,0,3,4,1,7,0002-00-0000-65.png,0001-00-0001-20.png
00000014,143,1,1449069008409,1449069008898,949,455,0,0,0,1,0,1,1,0004-00-0001-78.png,0005-00-0001-11.png
00000014,144,0,1449069009961,1449069010433,937,450,0,0,0,1,2,1,3,0004-00-0000-12.png,0003-00-0001-12.png
00000014,145,0,1449069013458,1449069013932,901,528,0,0,0,1,2,1,3,0004-00-0000-91.png,0003-00-0000-92.png
00000014,146,0,1449069017564,1449069017993,965,449,0,0,0,0,1,1,1,0005-00-0000-25.png,0004-00-0000-66.png
00000014,147,1,1449069020857,1449069021352,935,419,0,0,0,1,0,1,1,0004-00-0001-83.png,0005-00-0001-39.png
00000014,148,0,1449069022443,1449069022934,880,532,0,0,0,2,3,1,5,0003-00-0000-14.png,0002-00-0001-25.png
00000014,149,0,1449069025883,1449069026374,427,392,0,0,0,4,3,1,7,0001-00-0001-84.png,0002-00-0000-74.png
00000014,150,0,1449069029569,1449069030115,466,399,0,0,0,3,2,1,5,0002-00-0000-12.png,0003-00-0001-70.png
00000014,151,1,1449069033327,1449069033825,882,450,0,0,0,2,1,1,3,0003-00-0000-41.png,0004-00-0000-95.png
00000014,152,0,1449069034880,1449069035342,877,547,0,0,0,3,4,1,7,0002-00-0000-39.png,0001-00-0001-82.png
00000014,153,1,1449069038266,1449069038688,952,436,0,0,0,3,2,1,5,0002-00-0000-04.png,0003-00-0000-85.png
00000014,154,0,1449069039917,1449069040370,926,449,0,0,0,3,4,1,7,0002-00-0001-55.png,0001-00-0001-60.png
00000014,155,0,1449069043576,1449069044057,363,396,0,0,0,4,3,1,7,0001-00-0001-55.png,0002-00-0001-98.png
00000014,156,1,1449069047422,1449069048012,385,407,0,0,0,0,1,1,1,0005-00-0001-10.png,0004-00-0000-05.png
00000014,157,0,1449069049108,1449069049528,882,553,0,0,0,2,3,1,5,0003-00-0001-82.png,0002-00-0001-14.png
00000014,158,1,1449069052359,1449069052785,408,393,0,0,0,1,2,1,3,0004-00-0001-70.png,0003-00-0000-82.png
00000014,159,1,1449069053790,1449069054194,927,461,0,0,0,1,0,1,1,0004-00-0001-32.png,0005-00-0001-13.png
00000014,160,1,1449069055351,1449069055829,889,468,0,0,0,2,1,1,3,0003-00-0000-15.png,0004-00-0000-35.png
00000014,161,0,1449069057023,1449069057465,899,491,0,0,0,2,3,1,5,0003-00-0001-85.png,0002-00-0001-13.png
00000014,162,0,1449069060381,1449069060892,434,395,0,0,0,4,3,1,7,0001-00-0001-69.png,0002-00-0000-54.png
00000014,163,1,1449069064378,1449069064939,383,350,0,0,0,0,1,1,1,0005-00-0001-77.png,0004-00-0000-25.png
00000014,164,1,1449069066266,1449069066741,860,560,0,0,0,1,0,1,1,0004-00-0000-84.png,0005-00-0000-63.png
00000014,165,1,1449069067908,1449069068772,412,528,0,0,0,1,2,1,3,0004-00-0000-93.png,0003-00-0001-58.png
00000014,166,1,1449069069894,1449069070273,406,487,0,0,0,3,4,1,7,0002-00-0001-40.png,0001-00-0001-72.png
00000014,167,0,1449069071414,1449069071795,376,476,0,0,0,3,2,1,5,0002-00-0000-02.png,0003-00-0001-99.png
00000014,168,1,1449069075149,1449069075577,976,437,0,0,0,2,1,1,3,0003-00-0000-10.png,0004-00-0000-24.png
00000014,169,1,1449069076683,1449069077161,870,420,0,0,0,1,0,1,1,0004-00-0000-70.png,0005-00-0000-22.png
00000014,170,1,1449069079703,1449069080154,874,542,0,0,0,2,1,1,3,0003-00-0000-72.png,0004-00-0000-73.png
00000014,171,0,1449069081633,1449069082109,877,469,0,0,0,2,3,1,5,0003-00-0001-72.png,0002-00-0000-77.png
00000014,172,1,1449069085195,1449069085657,344,438,0,0,0,1,2,1,3,0004-00-0000-97.png,0003-00-0001-68.png
00000014,173,1,1449069086871,1449069087306,325,429,0,0,0,0,1,1,1,0005-00-0000-78.png,0004-00-0001-17.png
00000014,174,0,1449069088391,1449069088856,894,467,0,0,0,3,4,1,7,0002-00-0001-59.png,0001-00-0001-04.png
00000014,175,1,1449069091866,1449069092332,932,470,0,0,0,4,3,1,7,0001-00-0001-33.png,0002-00-0001-59.png
00000014,176,1,1449069093492,1449069093999,900,462,0,0,0,3,2,1,5,0002-00-0000-41.png,0003-00-0000-75.png
00000014,177,1,1449069095181,1449069095659,875,488,0,0,0,1,0,1,1,0004-00-0000-25.png,0005-00-0001-02.png
00000014,178,0,1449069096740,1449069097224,896,472,0,0,0,3,4,1,7,0002-00-0000-59.png,0001-00-0001-97.png
00000014,179,0,1449069100275,1449069100736,874,533,0,0,0,0,1,1,1,0005-00-0000-67.png,0004-00-0001-03.png
00000014,180,1,1449069104781,1449069105297,440,427,0,0,0,1,2,1,3,0004-00-0001-52.png,0003-00-0000-90.png
00000014,181,0,1449069106367,1449069106868,913,450,0,0,0,2,3,1,5,0003-00-0000-93.png,0002-00-0001-28.png
00000014,182,0,1449069109978,1449069110503,439,424,0,0,0,4,3,1,7,0001-00-0000-89.png,0002-00-0001-85.png
00000014,183,0,1449069113925,1449069114983,365,345,0,0,0,3,2,1,5,0002-00-0001-40.png,0003-00-0000-16.png
00000014,184,1,1449069120147,1449069120558,965,449,0,0,0,2,1,1,3,0003-00-0001-37.png,0004-00-0001-73.png
00000014,185,1,1449069121655,1449069122111,379,431,0,0,0,0,1,1,1,0005-00-0000-32.png,0004-00-0000-17.png
00000014,186,1,1449069123181,1449069123629,896,521,0,0,0,1,0,1,1,0004-00-0001-42.png,0005-00-0001-44.png
00000014,187,1,1449069124739,1449069125129,401,488,0,0,0,1,2,1,3,0004-00-0001-73.png,0003-00-0000-49.png
00000014,188,0,1449069126239,1449069126742,874,553,0,0,0,2,3,1,5,0003-00-0000-81.png,0002-00-0000-50.png
00000014,189,1,1449069129578,1449069130125,893,400,0,0,0,2,1,1,3,0003-00-0001-03.png,0004-00-0000-33.png
00000014,190,0,1449069131266,1449069131744,411,401,0,0,0,3,2,1,5,0002-00-0001-77.png,0003-00-0001-24.png
00000014,191,0,1449069134846,1449069135325,948,469,0,0,0,3,4,1,7,0002-00-0001-08.png,0001-00-0001-40.png
00000014,192,1,1449069138608,1449069139196,926,423,0,0,0,4,3,1,7,0001-00-0000-26.png,0002-00-0001-95.png
00000014,193,0,1449069140263,1449069140773,926,475,0,0,0,3,4,1,7,0002-00-0001-61.png,0001-00-0001-15.png
00000014,194,0,1449069143889,1449069144469,427,436,0,0,0,4,3,1,7,0001-00-0001-32.png,0002-00-0000-78.png
00000014,195,0,1449069147618,1449069148116,951,464,0,0,0,0,1,1,1,0005-00-0000-85.png,0004-00-0001-19.png
00000014,196,0,1449069151375,1449069151970,398,406,0,0,0,1,0,1,1,0004-00-0000-00.png,0005-00-0001-26.png
00000014,197,0,1449069155042,1449069155536,961,467,0,0,0,2,3,1,5,0003-00-0001-07.png,0002-00-0001-59.png
00000014,198,1,1449069159313,1449069159764,990,424,0,0,0,2,1,1,3,0003-00-0000-97.png,0004-00-0001-89.png
00000014,199,0,1449069160870,1449069161354,952,475,0,0,0,1,2,1,3,0004-00-0000-99.png,0003-00-0000-11.png
00000014,200,1,1449069164480,1449069165000,958,421,0,0,0,3,2,1,5,0002-00-0001-82.png,0003-00-0000-82.png
00000014,201,0,1449069166013,1449069166566,931,495,0,0,0,2,3,1,5,0003-00-0000-63.png,0002-00-0001-17.png
00000014,202,0,1449069169428,1449069169884,939,422,0,0,0,3,4,1,7,0002-00-0001-42.png,0001-00-0001-47.png
00000014,203,0,1449069172997,1449069173508,918,514,0,0,0,0,1,1,1,0005-00-0001-18.png,0004-00-0001-17.png
00000014,204,1,1449069176637,1449069177058,925,489,0,0,0,1,0,1,1,0004-00-0001-72.png,0005-00-0001-95.png
00000014,205,0,1449069178090,1449069178591,925,475,0,0,0,1,2,1,3,0004-00-0000-83.png,0003-00-0001-20.png
00000014,206,1,1449069181455,1449069181968,902,519,0,0,0,2,1,1,3,0003-00-0001-39.png,0004-00-0001-00.png
00000014,207,0,1449069182958,1449069183371,370,453,0,0,0,3,2,1,5,0002-00-0001-67.png,0003-00-0000-86.png
00000014,208,1,1449069186864,1449069187309,998,419,0,0,0,4,3,1,7,0001-00-0000-34.png,0002-00-0001-26.png
00000014,209,1,1449069188396,1449069188901,926,464,0,0,0,2,1,1,3,0003-00-0000-34.png,0004-00-0001-50.png
00000014,210,0,1449069190076,1449069190519,898,482,0,0,0,2,3,1,5,0003-00-0001-92.png,0002-00-0001-64.png
00000014,211,1,1449069194075,1449069194587,898,534,0,0,0,3,2,1,5,0002-00-0001-23.png,0003-00-0000-11.png
00000014,212,1,1449069195671,1449069196141,870,445,0,0,0,1,0,1,1,0004-00-0000-86.png,0005-00-0000-27.png
00000014,213,0,1449069197350,1449069197819,325,412,0,0,0,4,3,1,7,0001-00-0000-30.png,0002-00-0001-52.png
00000014,214,0,1449069200998,1449069201768,957,428,0,0,0,0,1,1,1,0005-00-0000-96.png,0004-00-0001-06.png
00000014,215,0,1449069204870,1449069205346,951,486,0,0,0,3,4,1,7,0002-00-0000-73.png,0001-00-0001-62.png
00000014,216,0,1449069208862,1449069209436,945,434,0,0,0,1,2,1,3,0004-00-0000-44.png,0003-00-0000-86.png
00000014,217,1,1449069212508,1449069212946,889,441,0,0,0,2,1,1,3,0003-00-0001-35.png,0004-00-0001-78.png
00000014,218,0,1449069214129,1449069214596,926,429,0,0,0,0,1,1,1,0005-00-0000-76.png,0004-00-0000-77.png
00000014,219,1,1449069217865,1449069218330,862,461,0,0,0,4,3,1,7,0001-00-0000-12.png,0002-00-0001-63.png
00000014,220,1,1449069219376,1449069219838,877,546,0,0,0,1,0,1,1,0004-00-0001-05.png,0005-00-0000-07.png
00000014,221,0,1449069220896,1449069221328,901,469,0,0,0,2,3,1,5,0003-00-0000-34.png,0002-00-0001-27.png
00000014,222,0,1449069224392,1449069224876,926,539,0,0,0,1,2,1,3,0004-00-0001-60.png,0003-00-0001-31.png
00000014,223,0,1449069228350,1449069228784,969,441,0,0,0,3,4,1,7,0002-00-0000-47.png,0001-00-0001-39.png
00000014,224,1,1449069232029,1449069232443,960,448,0,0,0,3,2,1,5,0002-00-0000-88.png,0003-00-0001-83.png
00000014,225,0,1449069233480,1449069233986,913,476,0,0,0,0,1,1,1,0005-00-0000-70.png,0004-00-0001-54.png
00000014,226,1,1449069236885,1449069237395,941,452,0,0,0,1,0,1,1,0004-00-0001-18.png,0005-00-0000-73.png
00000014,227,0,1449069238409,1449069238758,391,467,0,0,0,3,2,1,5,0002-00-0001-57.png,0003-00-0001-83.png
00000014,228,1,1449069241622,1449069242078,915,449,0,0,0,2,1,1,3,0003-00-0001-66.png,0004-00-0000-23.png
00000014,229,0,1449069243130,1449069243585,898,456,0,0,0,1,2,1,3,0004-00-0001-78.png,0003-00-0000-98.png
00000014,230,0,1449069246678,1449069247178,941,467,0,0,0,3,4,1,7,0002-00-0001-39.png,0001-00-0000-17.png
00000014,231,0,1449069250271,1449069250749,926,539,0,0,0,2,3,1,5,0003-00-0001-22.png,0002-00-0000-84.png
00000014,232,0,1449069254112,1449069254710,407,416,0,0,0,4,3,1,7,0001-00-0000-93.png,0002-00-0000-51.png
00000014,233,0,1449069257879,1449069258327,895,391,0,0,0,3,4,1,7,0002-00-0000-86.png,0001-00-0001-12.png
00000014,234,1,1449069261608,1449069262061,977,440,0,0,0,2,1,1,3,0003-00-0000-60.png,0004-00-0001-13.png
00000014,235,0,1449069263116,1449069263609,891,560,0,0,0,1,2,1,3,0004-00-0000-58.png,0003-00-0001-37.png
00000014,236,1,1449069266636,1449069267194,363,396,0,0,0,0,1,1,1,0005-00-0001-46.png,0004-00-0001-27.png
00000014,237,0,1449069268205,1449069268597,368,453,0,0,0,3,2,1,5,0002-00-0000-87.png,0003-00-0001-11.png
00000014,238,1,1449069271615,1449069272012,951,411,0,0,0,1,0,1,1,0004-00-0000-94.png,0005-00-0001-58.png
00000014,239,1,1449069273099,1449069273812,903,467,0,0,0,4,3,1,7,0001-00-0001-02.png,0002-00-0001-86.png
00000014,240,0,1449069275005,1449069275465,900,464,0,0,0,2,3,1,5,0003-00-0000-53.png,0002-00-0000-07.png
00000014,241,0,1449069278364,1449069278392,472,392,0,0,0,2,1,1,3,0003-00-0001-52.png,0004-00-0000-56.png
00000014,242,0,1449069281574,1449069282008,921,524,0,0,0,3,4,1,7,0002-00-0000-79.png,0001-00-0000-55.png
00000014,243,1,1449069285331,1449069285984,427,397,0,0,0,2,3,1,5,0003-00-0001-76.png,0002-00-0001-79.png
00000014,244,1,1449069287178,1449069287607,922,444,0,0,0,1,0,1,1,0004-00-0000-20.png,0005-00-0001-55.png
00000014,245,0,1449069288711,1449069289754,927,493,0,0,0,0,1,1,1,0005-00-0001-25.png,0004-00-0000-84.png
00000014,246,0,1449069292892,1449069293376,360,379,0,0,0,4,3,1,7,0001-00-0001-99.png,0002-00-0001-58.png
00000014,247,0,1449069296630,1449069297117,960,438,0,0,0,1,2,1,3,0004-00-0000-09.png,0003-00-0001-44.png
00000014,248,0,1449069300767,1449069301243,388,396,0,0,0,3,2,1,5,0002-00-0001-87.png,0003-00-0001-61.png
00000014,249,0,1449069304683,1449069305181,376,448,0,0,0,3,2,1,5,0002-00-0000-15.png,0003-00-0001-00.png
00000014,250,1,1449069308330,1449069308952,414,430,0,0,0,1,2,1,3,0004-00-0001-65.png,0003-00-0001-34.png
00000014,251,0,1449069310118,1449069310532,888,475,0,0,0,2,3,1,5,0003-00-0000-90.png,0002-00-0000-45.png
00000014,252,0,1449069313692,1449069314226,440,410,0,0,0,2,1,1,3,0003-00-0000-14.png,0004-00-0000-32.png
00000014,253,0,1449069317435,1449069317949,404,418,0,0,0,4,3,1,7,0001-00-0000-20.png,0002-00-0000-73.png
00000014,254,0,1449069321230,1449069321746,954,468,0,0,0,0,1,1,1,0005-00-0001-59.png,0004-00-0000-62.png
00000014,255,1,1449069324969,1449069325567,883,527,0,0,0,1,0,1,1,0004-00-0000-91.png,0005-00-0000-34.png
00000014,256,0,1449069326743,1449069327176,891,534,0,0,0,3,4,1,7,0002-00-0000-39.png,0001-00-0001-55.png
00000014,257,1,1449069330274,1449069330765,939,488,0,0,0,4,3,1,7,0001-00-0001-24.png,0002-00-0000-29.png
00000014,258,0,1449069331894,1449069332334,873,542,0,0,0,3,4,1,7,0002-00-0001-13.png,0001-00-0000-51.png
00000014,259,0,1449069335947,1449069336468,440,528,0,0,0,1,0,1,1,0004-00-0000-56.png,0005-00-0000-55.png
00000014,260,1,1449069339892,1449069340345,340,387,0,0,0,1,2,1,3,0004-00-0000-55.png,0003-00-0001-61.png
00000014,261,1,1449069341428,1449069342167,380,427,0,0,0,2,3,1,5,0003-00-0001-38.png,0002-00-0000-31.png
00000014,262,1,1449069343476,1449069343981,375,455,0,0,0,0,1,1,1,0005-00-0000-87.png,0004-00-0001-28.png
00000014,263,1,1449069345116,1449069346031,876,384,0,0,0,2,1,1,3,0003-00-0001-16.png,0004-00-0000-89.png
00000014,264,0,1449069347140,1449069347513,406,472,0,0,0,3,2,1,5,0002-00-0001-54.png,0003-00-0000-52.png
00000014,265,0,1449069350852,1449069351265,950,410,0,0,0,2,3,1,5,0003-00-0000-59.png,0002-00-0000-10.png
00000014,266,1,1449069354694,1449069355278,413,398,0,0,0,0,1,1,1,0005-00-0001-89.png,0004-00-0000-23.png
00000014,267,0,1449069356356,1449069356746,388,480,0,0,0,4,3,1,7,0001-00-0000-55.png,0002-00-0000-70.png
00000014,268,0,1449069359990,1449069360646,400,396,0,0,0,2,1,1,3,0003-00-0001-56.png,0004-00-0001-38.png
00000014,269,1,1449069363638,1449069364167,951,464,0,0,0,1,0,1,1,0004-00-0000-38.png,0005-00-0001-74.png
00000014,270,0,1449069365228,1449069365662,876,462,0,0,0,3,4,1,7,0002-00-0000-46.png,0001-00-0000-29.png
00000014,271,1,1449069368826,1449069369367,409,405,0,0,0,1,2,1,3,0004-00-0000-08.png,0003-00-0000-41.png
00000014,272,1,1449069370527,1449069371075,878,520,0,0,0,3,2,1,5,0002-00-0001-39.png,0003-00-0001-20.png
00000014,273,1,1449069372302,1449069372776,886,503,0,0,0,3,2,1,5,0002-00-0001-08.png,0003-00-0001-49.png
00000014,274,0,1449069373965,1449069374546,878,525,0,0,0,2,3,1,5,0003-00-0000-30.png,0002-00-0000-49.png
00000014,275,0,1449069377757,1449069378251,400,435,0,0,0,4,3,1,7,0001-00-0000-54.png,0002-00-0001-67.png
00000014,276,0,1449069381449,1449069382112,952,423,0,0,0,1,2,1,3,0004-00-0001-56.png,0003-00-0001-96.png
00000014,277,1,1449069385242,1449069385762,956,473,0,0,0,2,1,1,3,0003-00-0000-22.png,0004-00-0001-36.png
00000014,278,0,1449069386977,1449069387417,873,560,0,0,0,3,4,1,7,0002-00-0001-60.png,0001-00-0000-18.png
00000014,279,1,1449069390444,1449069390916,906,539,0,0,0,1,0,1,1,0004-00-0000-61.png,0005-00-0000-16.png
00000014,280,1,1449069392077,1449069392561,373,450,0,0,0,0,1,1,1,0005-00-0001-89.png,0004-00-0001-14.png
00000014,281,1,1449069393815,1449069394288,925,464,0,0,0,1,0,1,1,0004-00-0000-11.png,0005-00-0000-52.png
00000014,282,0,1449069395491,1449069395902,357,489,0,0,0,4,3,1,7,0001-00-0001-42.png,0002-00-0000-98.png
00000014,283,1,1449069398903,1449069399441,442,547,0,0,0,0,1,1,1,0005-00-0001-46.png,0004-00-0000-70.png
00000014,284,0,1449069400663,1449069401125,880,455,0,0,0,1,2,1,3,0004-00-0001-41.png,0003-00-0001-06.png
00000014,285,0,1449069404217,1449069404764,942,440,0,0,0,2,3,1,5,0003-00-0000-06.png,0002-00-0001-93.png
00000014,286,0,1449069407988,1449069408579,944,466,0,0,0,3,4,1,7,0002-00-0000-45.png,0001-00-0000-84.png
00000014,287,0,1449069413522,1449069413578,520,514,0,0,0,3,2,1,5,0002-00-0000-77.png,0003-00-0000-30.png
00000014,288,1,1449069416568,1449069417041,981,445,0,0,0,2,1,1,3,0003-00-0000-67.png,0004-00-0000-89.png
00000014,289,0,1449069418242,1449069418759,918,468,0,0,0,3,4,1,7,0002-00-0001-88.png,0001-00-0000-79.png
00000014,290,0,1449069421946,1449069422444,948,471,0,0,0,1,2,1,3,0004-00-0001-18.png,0003-00-0001-55.png
00000014,291,1,1449069425618,1449069426134,924,462,0,0,0,3,2,1,5,0002-00-0000-37.png,0003-00-0000-36.png
00000014,292,1,1449069427179,1449069427644,925,475,0,0,0,1,0,1,1,0004-00-0001-36.png,0005-00-0000-23.png
00000014,293,1,1449069428798,1449069429207,387,468,0,0,0,0,1,1,1,0005-00-0001-01.png,0004-00-0001-89.png
00000014,294,0,1449069430607,1449069431079,925,490,0,0,0,2,3,1,5,0003-00-0001-01.png,0002-00-0001-56.png
00000014,295,1,1449069434235,1449069434760,874,526,0,0,0,2,1,1,3,0003-00-0000-53.png,0004-00-0000-92.png
00000014,296,0,1449069435897,1449069436422,441,554,0,0,0,4,3,1,7,0001-00-0001-23.png,0002-00-0001-47.png
00000014,297,0,1449069439818,1449069440328,985,443,0,0,0,2,3,1,5,0003-00-0000-12.png,0002-00-0001-08.png
00000014,298,0,1449069443496,1449069444031,370,453,0,0,0,4,3,1,7,0001-00-0001-16.png,0002-00-0001-14.png
00000014,299,0,1449069447046,1449069447541,901,528,0,0,0,3,4,1,7,0002-00-0001-52.png,0001-00-0000-35.png
00000014,300,1,1449069454962,1449069455447,932,386,0,0,0,2,1,1,3,0003-00-0001-88.png,0004-00-0001-51.png
00000014,301,0,1449069456813,1449069457700,339,396,0,0,0,1,0,1,1,0004-00-0000-65.png,0005-00-0001-16.png
00000014,302,1,1449069460559,1449069461221,913,398,0,0,0,3,2,1,5,0002-00-0000-54.png,0003-00-0000-99.png
00000014,303,0,1449069462320,1449069462883,901,502,0,0,0,1,2,1,3,0004-00-0000-10.png,0003-00-0000-99.png
00000014,304,0,1449069465934,1449069466493,876,418,0,0,0,0,1,1,1,0005-00-0001-81.png,0004-00-0001-63.png
00000014,305,1,1449069469670,1449069470191,968,453,0,0,0,3,2,1,5,0002-00-0001-17.png,0003-00-0001-73.png
00000014,306,1,1449069471487,1449069471982,903,560,0,0,0,1,0,1,1,0004-00-0001-80.png,0005-00-0001-44.png
00000014,307,0,1449069473016,1449069473448,886,450,0,0,0,2,3,1,5,0003-00-0000-16.png,0002-00-0000-03.png
00000014,308,0,1449069476531,1449069477013,299,514,0,0,0,4,3,1,7,0001-00-0001-73.png,0002-00-0000-96.png
00000014,309,1,1449069480002,1449069480038,520,455,0,0,0,3,4,1,7,0002-00-0001-71.png,0001-00-0001-37.png
00000014,310,1,1449069481596,1449069482065,925,474,0,0,0,2,1,1,3,0003-00-0001-90.png,0004-00-0001-19.png
00000014,311,1,1449069483281,1449069483872,374,391,0,0,0,0,1,1,1,0005-00-0000-61.png,0004-00-0000-65.png
00000014,312,0,1449069485191,1449069485675,874,501,0,0,0,1,2,1,3,0004-00-0001-31.png,0003-00-0000-45.png
00000014,313,0,1449069489561,1449069490098,365,410,0,0,0,4,3,1,7,0001-00-0000-57.png,0002-00-0000-50.png
00000014,314,1,1449069493894,1449069494458,398,390,0,0,0,0,1,1,1,0005-00-0000-34.png,0004-00-0000-56.png
00000014,315,0,1449069495486,1449069495950,904,506,0,0,0,3,4,1,7,0002-00-0000-54.png,0001-00-0000-63.png
00000014,316,1,1449069499390,1449069499875,939,474,0,0,0,2,1,1,3,0003-00-0000-65.png,0004-00-0000-02.png
00000014,317,0,1449069500932,1449069501356,885,476,0,0,0,2,3,1,5,0003-00-0000-94.png,0002-00-0001-34.png
00000014,318,1,1449069504580,1449069505124,926,476,0,0,0,1,0,1,1,0004-00-0001-76.png,0005-00-0000-98.png
00000014,319,1,1449069506204,1449069506739,902,496,0,0,0,3,2,1,5,0002-00-0000-09.png,0003-00-0000-96.png
00000014,320,1,1449069507877,1449069508261,386,484,0,0,0,1,2,1,3,0004-00-0001-55.png,0003-00-0000-86.png
00000014,321,0,1449069509560,1449069510082,901,513,0,0,0,1,2,1,3,0004-00-0001-10.png,0003-00-0001-88.png
00000014,322,0,1449069513248,1449069513790,385,419,0,0,0,4,3,1,7,0001-00-0000-25.png,0002-00-0000-98.png
00000014,323,0,1449069516905,1449069517583,924,431,0,0,0,3,4,1,7,0002-00-0000-16.png,0001-00-0001-08.png
00000014,324,1,1449069520622,1449069521136,957,473,0,0,0,1,0,1,1,0004-00-0000-30.png,0005-00-0001-04.png
00000014,325,1,1449069522280,1449069523125,388,397,0,0,0,0,1,1,1,0005-00-0001-09.png,0004-00-0001-19.png
00000014,326,0,1449069524158,1449069524644,880,479,0,0,0,2,3,1,5,0003-00-0001-65.png,0002-00-0000-58.png
00000014,327,0,1449069527644,1449069528254,387,410,0,0,0,3,2,1,5,0002-00-0001-25.png,0003-00-0001-31.png
00000014,328,1,1449069531902,1449069532455,907,526,0,0,0,2,1,1,3,0003-00-0000-48.png,0004-00-0001-66.png
00000014,329,0,1449069533583,1449069534105,874,491,0,0,0,0,1,1,1,0005-00-0001-86.png,0004-00-0000-83.png
00000014,330,1,1449069537346,1449069538095,952,436,0,0,0,1,0,1,1,0004-00-0001-63.png,0005-00-0001-72.png
00000014,331,0,1449069539256,1449069539633,386,560,0,0,0,4,3,1,7,0001-00-0000-29.png,0002-00-0000-76.png
00000014,332,1,1449069543027,1449069543708,490,527,0,0,0,1,2,1,3,0004-00-0001-36.png,0003-00-0000-28.png
00000014,333,0,1449069544814,1449069545368,902,518,0,0,0,2,3,1,5,0003-00-0001-30.png,0002-00-0001-75.png
00000014,334,0,1449069548666,1449069549175,974,455,0,0,0,3,4,1,7,0002-00-0000-79.png,0001-00-0001-41.png
00000014,335,1,1449069552308,1449069552854,952,487,0,0,0,2,1,1,3,0003-00-0000-70.png,0004-00-0001-00.png
00000014,336,1,1449069553908,1449069554374,919,469,0,0,0,3,2,1,5,0002-00-0001-98.png,0003-00-0000-12.png
00000014,337,0,1449069555563,1449069556013,422,566,0,0,0,4,3,1,7,0001-00-0000-44.png,0002-00-0000-36.png
00000014,338,0,1449069559741,1449069560279,414,423,0,0,0,3,2,1,5,0002-00-0001-97.png,0003-00-0000-67.png
00000014,339,0,1449069563110,1449069563607,914,528,0,0,0,1,2,1,3,0004-00-0001-50.png,0003-00-0000-93.png
00000014,340,1,1449069567177,1449069567702,906,539,0,0,0,1,0,1,1,0004-00-0000-82.png,0005-00-0000-06.png
00000014,341,0,1449069568800,1449069569262,875,490,0,0,0,0,1,1,1,0005-00-0000-21.png,0004-00-0000-07.png
00000014,342,1,1449069572796,1449069573317,932,499,0,0,0,2,1,1,3,0003-00-0001-72.png,0004-00-0000-57.png
00000014,343,0,1449069574383,1449069574870,898,534,0,0,0,2,3,1,5,0003-00-0001-80.png,0002-00-0000-52.png
00000014,344,0,1449069579818,1449069580319,947,486,0,0,0,3,4,1,7,0002-00-0001-15.png,0001-00-0001-90.png
00000014,345,0,1449069586985,1449069587396,915,395,0,0,0,1,2,1,3,0004-00-0001-52.png,0003-00-0001-89.png
00000014,346,0,1449069590997,1449069591477,917,400,0,0,0,0,1,1,1,0005-00-0000-66.png,0004-00-0001-10.png
00000014,347,0,1449069594616,1449069595226,387,447,0,0,0,2,1,1,3,0003-00-0000-69.png,0004-00-0001-34.png
00000014,348,0,1449069599292,1449069599874,953,410,0,0,0,3,4,1,7,0002-00-0000-05.png,0001-00-0001-85.png
00000014,349,1,1449069603489,1449069604081,890,390,0,0,0,3,2,1,5,0002-00-0001-70.png,0003-00-0000-60.png
00000014,350,1,1449069605294,1449069605802,925,475,0,0,0,1,0,1,1,0004-00-0001-63.png,0005-00-0001-15.png
00000014,351,0,1449069607091,1449069607574,900,449,0,0,0,2,3,1,5,0003-00-0001-91.png,0002-00-0001-73.png
00000014,352,0,1449069610651,1449069611235,426,539,0,0,0,4,3,1,7,0001-00-0000-24.png,0002-00-0001-40.png
00000014,353,1,1449069614238,1449069615190,978,424,0,0,0,1,0,1,1,0004-00-0001-37.png,0005-00-0001-46.png
00000014,354,0,1449069616378,1449069616820,905,532,0,0,0,0,1,1,1,0005-00-0000-76.png,0004-00-0000-91.png
00000014,355,0,1449069619887,1449069620358,924,508,0,0,0,3,4,1,7,0002-00-0000-92.png,0001-00-0001-39.png
00000014,356,1,1449069623700,1449069624336,947,454,0,0,0,3,2,1,5,0002-00-0000-57.png,0003-00-0000-97.png
00000014,357,0,1449069625658,1449069626568,927,502,0,0,0,2,3,1,5,0003-00-0001-47.png,0002-00-0000-75.png
00000014,358,0,1449069630287,1449069630801,996,450,0,0,0,1,2,1,3,0004-00-0000-19.png,0003-00-0001-59.png
00000014,359,0,1449069634510,1449069635029,467,416,0,0,0,4,3,1,7,0001-00-0000-00.png,0002-00-0000-32.png
00000014,360,1,1449069639435,1449069639930,953,464,0,0,0,2,1,1,3,0003-00-0000-06.png,0004-00-0001-32.png
00000014,361,1,1449069641181,1449069641712,924,509,0,0,0,1,0,1,1,0004-00-0001-52.png,0005-00-0000-54.png
00000014,362,0,1449069642970,1449069643477,901,487,0,0,0,3,4,1,7,0002-00-0000-88.png,0001-00-0000-32.png
00000014,363,0,1449069646388,1449069646854,899,528,0,0,0,2,3,1,5,0003-00-0001-55.png,0002-00-0001-12.png
00000014,364,0,1449069650492,1449069651043,411,501,0,0,0,4,3,1,7,0001-00-0000-16.png,0002-00-0000-43.png
00000014,365,1,1449069654200,1449069654718,960,467,0,0,0,3,2,1,5,0002-00-0001-12.png,0003-00-0001-02.png
00000014,366,0,1449069655850,1449069656353,927,502,0,0,0,1,2,1,3,0004-00-0001-71.png,0003-00-0000-33.png
00000014,367,1,1449069659605,1449069660287,899,542,0,0,0,2,1,1,3,0003-00-0000-51.png,0004-00-0001-91.png
00000014,368,1,1449069661430,1449069661924,394,425,0,0,0,0,1,1,1,0005-00-0000-10.png,0004-00-0000-53.png
00000014,369,1,1449069663141,1449069663662,383,460,0,0,0,0,1,1,1,0005-00-0001-77.png,0004-00-0000-25.png
00000014,370,0,1449069664901,1449069665343,406,459,0,0,0,1,0,1,1,0004-00-0001-11.png,0005-00-0000-04.png
00000014,371,0,1449069668724,1449069669214,924,456,0,0,0,1,2,1,3,0004-00-0001-26.png,0003-00-0000-57.png
00000014,372,0,1449069673010,1449069673476,341,389,0,0,0,4,3,1,7,0001-00-0000-54.png,0002-00-0001-78.png
00000014,373,1,1449069676833,1449069677446,413,396,0,0,0,2,3,1,5,0003-00-0001-72.png,0002-00-0000-31.png
00000014,374,1,1449069678850,1449069679300,406,565,0,0,0,3,4,1,7,0002-00-0001-31.png,0001-00-0000-84.png
00000014,375,1,1449069680538,1449069681029,890,490,0,0,0,2,1,1,3,0003-00-0001-69.png,0004-00-0001-60.png
00000014,376,0,1449069682248,1449069682659,418,488,0,0,0,3,2,1,5,0002-00-0001-35.png,0003-00-0000-03.png
00000014,377,1,1449069686442,1449069686470,515,462,0,0,0,0,1,1,1,0005-00-0000-82.png,0004-00-0000-72.png
00000014,378,1,1449069687824,1449069688348,913,502,0,0,0,1,0,1,1,0004-00-0000-04.png,0005-00-0001-94.png
00000014,379,0,1449069690067,1449069690498,937,476,0,0,0,3,4,1,7,0002-00-0000-04.png,0001-00-0000-60.png
00000014,380,1,1449069694070,1449069694744,919,460,0,0,0,2,1,1,3,0003-00-0001-39.png,0004-00-0001-67.png
00000014,381,0,1449069695870,1449069696322,387,456,0,0,0,3,2,1,5,0002-00-0000-39.png,0003-00-0000-00.png
00000014,382,0,1449069699222,1449069699655,950,429,0,0,0,2,3,1,5,0003-00-0001-87.png,0002-00-0000-38.png
00000014,383,0,1449069703641,1449069704178,395,462,0,0,0,4,3,1,7,0001-00-0000-28.png,0002-00-0001-67.png
00000014,384,0,1449069707019,1449069707447,950,405,0,0,0,1,2,1,3,0004-00-0001-69.png,0003-00-0000-12.png
00000014,385,0,1449069710681,1449069711200,951,475,0,0,0,3,4,1,7,0002-00-0000-91.png,0001-00-0001-15.png
00000014,386,0,1449069715418,1449069715863,887,425,0,0,0,2,3,1,5,0003-00-0000-97.png,0002-00-0000-40.png
00000014,387,1,1449069719042,1449069723822,433,361,0,0,0,0,1,1,1,0005-00-0000-92.png,0004-00-0000-10.png
00000014,388,0,1449069725113,1449069725756,412,428,0,0,0,2,1,1,3,0003-00-0001-92.png,0004-00-0000-04.png
00000014,389,1,1449069728888,1449069729436,960,499,0,0,0,3,2,1,5,0002-00-0000-72.png,0003-00-0001-57.png
00000014,390,0,1449069730559,1449069730956,427,514,0,0,0,4,3,1,7,0001-00-0001-40.png,0002-00-0000-92.png
00000014,391,1,1449069734336,1449069734968,427,411,0,0,0,1,2,1,3,0004-00-0001-22.png,0003-00-0000-60.png
00000014,392,1,1449069736193,1449069736674,906,505,0,0,0,1,0,1,1,0004-00-0001-16.png,0005-00-0000-33.png
00000014,393,1,1449069737846,1449069738325,900,476,0,0,0,3,2,1,5,0002-00-0001-03.png,0003-00-0001-13.png
00000014,394,1,1449069739541,1449069739969,872,508,0,0,0,2,1,1,3,0003-00-0001-16.png,0004-00-0001-14.png
00000014,395,0,1449069741185,1449069741616,395,488,0,0,0,4,3,1,7,0001-00-0000-22.png,0002-00-0000-40.png
00000014,396,1,1449069745913,1449069746455,407,389,0,0,0,1,2,1,3,0004-00-0000-45.png,0003-00-0001-09.png
00000014,397,0,1449069747464,1449069747922,893,483,0,0,0,2,3,1,5,0003-00-0000-52.png,0002-00-0001-56.png
00000014,398,0,1449069751365,1449069751864,927,469,0,0,0,3,4,1,7,0002-00-0000-31.png,0001-00-0001-06.png
00000014,399,0,1449069754806,1449069755251,954,470,0,0,0,0,1,1,1,0005-00-0001-61.png,0004-00-0001-76.png
00000014,400,1,1449069758124,1449069758670,949,432,0,0,0,1,0,1,1,0004-00-0001-45.png,0005-00-0001-53.png
00000014,401,1,1449069759798,1449069760262,423,440,0,0,0,0,1,1,1,0005-00-0001-46.png,0004-00-0001-55.png
00000014,402,1,1449069761345,1449069761820,862,476,0,0,0,2,1,1,3,0003-00-0000-64.png,0004-00-0000-50.png
00000014,403,1,1449069762959,1449069763423,877,492,0,0,0,1,0,1,1,0004-00-0000-31.png,0005-00-0001-78.png
00000014,404,0,1449069764559,1449069765060,876,502,0,0,0,1,2,1,3,0004-00-0000-39.png,0003-00-0000-27.png
00000014,405,0,1449069768076,1449069768591,938,476,0,0,0,3,4,1,7,0002-00-0001-84.png,0001-00-0000-69.png
00000014,406,1,1449069773471,1449069773911,950,464,0,0,0,3,2,1,5,0002-00-0001-54.png,0003-00-0001-55.png
00000014,407,1,1449069774955,1449069775432,898,510,0,0,0,4,3,1,7,0001-00-0000-43.png,0002-00-0001-23.png
00000014,408,0,1449069776624,1449069777110,878,494,0,0,0,2,3,1,5,0003-00-0001-03.png,0002-00-0001-99.png
00000014,409,0,1449069781078,1449069781572,928,516,0,0,0,2,3,1,5,0003-00-0001-32.png,0002-00-0001-23.png
00000014,410,0,1449069784743,1449069785642,337,414,0,0,0,4,3,1,7,0001-00-0000-41.png,0002-00-0001-07.png
00000014,411,1,1449069788860,1449069789339,926,449,0,0,0,2,1,1,3,0003-00-0001-33.png,0004-00-0000-00.png
00000014,412,1,1449069790413,1449069790840,358,443,0,0,0,0,1,1,1,0005-00-0000-84.png,0004-00-0000-84.png
00000014,413,1,1449069791939,1449069792322,390,483,0,0,0,1,2,1,3,0004-00-0001-23.png,0003-00-0001-40.png
00000014,414,0,1449069793472,1449069793900,898,482,0,0,0,3,4,1,7,0002-00-0000-16.png,0001-00-0001-57.png
00000014,415,1,1449069796950,1449069797394,897,392,0,0,0,1,0,1,1,0004-00-0001-62.png,0005-00-0001-51.png
00000014,416,1,1449069798421,1449069798924,888,476,0,0,0,3,2,1,5,0002-00-0001-00.png,0003-00-0001-74.png
00000014,417,0,1449069800000,1449069800392,344,452,0,0,0,4,3,1,7,0001-00-0000-41.png,0002-00-0001-85.png
00000014,418,0,1449069803340,1449069803850,921,446,0,0,0,2,3,1,5,0003-00-0000-74.png,0002-00-0000-01.png
00000014,419,0,1449069812578,1449069813079,364,384,0,0,0,3,2,1,5,0002-00-0000-69.png,0003-00-0000-70.png
00000014,420,0,1449069816867,1449069817313,959,493,0,0,0,1,2,1,3,0004-00-0000-20.png,0003-00-0000-12.png
00000014,421,0,1449069820333,1449069820909,898,562,0,0,0,3,4,1,7,0002-00-0001-10.png,0001-00-0001-75.png
00000014,422,1,1449069824658,1449069825172,949,485,0,0,0,1,0,1,1,0004-00-0000-68.png,0005-00-0000-93.png
00000014,423,1,1449069826196,1449069826663,880,480,0,0,0,2,1,1,3,0003-00-0001-48.png,0004-00-0001-59.png
00000014,424,1,1449069827721,1449069828099,382,475,0,0,0,0,1,1,1,0005-00-0000-21.png,0004-00-0000-89.png
00000014,425,0,1449069829180,1449069829611,411,469,0,0,0,3,2,1,5,0002-00-0000-38.png,0003-00-0000-72.png
00000014,426,0,1449069832545,1449069833103,932,426,0,0,0,1,2,1,3,0004-00-0001-27.png,0003-00-0000-60.png
00000014,427,1,1449069836039,1449069836477,938,423,0,0,0,2,1,1,3,0003-00-0001-38.png,0004-00-0001-46.png
00000014,428,1,1449069837502,1449069837934,388,441,0,0,0,0,1,1,1,0005-00-0001-01.png,0004-00-0001-90.png
00000014,429,1,1449069839090,1449069839548,896,498,0,0,0,1,0,1,1,0004-00-0000-43.png,0005-00-0000-20.png
00000014,430,0,1449069840651,1449069841156,920,482,0,0,0,3,4,1,7,0002-00-0001-86.png,0001-00-0000-40.png
00000014,431,0,1449069845004,1449069845475,442,444,0,0,0,4,3,1,7,0001-00-0001-84.png,0002-00-0001-02.png
00000014,432,0,1449069848722,1449069849194,888,527,0,0,0,2,3,1,5,0003-00-0000-96.png,0002-00-0000-26.png
00000014,433,0,1449069852241,1449069852758,427,518,0,0,0,4,3,1,7,0001-00-0001-36.png,0002-00-0001-70.png
00000014,434,1,1449069856156,1449069856992,929,505,0,0,0,1,0,1,1,0004-00-0001-04.png,0005-00-0001-21.png
00000014,435,0,1449069858025,1449069858645,920,454,0,0,0,0,1,1,1,0005-00-0000-39.png,0004-00-0001-83.png
00000014,436,1,1449069866194,1449069866602,913,504,0,0,0,2,1,1,3,0003-00-0000-56.png,0004-00-0001-70.png
00000014,437,0,1449069867616,1449069868065,358,497,0,0,0,3,2,1,5,0002-00-0000-23.png,0003-00-0001-41.png
00000014,438,0,1449069870926,1449069871368,926,397,0,0,0,3,4,1,7,0002-00-0001-69.png,0001-00-0000-70.png
00000014,439,1,1449069874836,1449069875420,453,460,0,0,0,1,2,1,3,0004-00-0001-77.png,0003-00-0001-80.png
00000014,440,0,1449069876456,1449069876918,938,476,0,0,0,2,3,1,5,0003-00-0001-76.png,0002-00-0000-70.png
00000014,441,1,1449069880241,1449069880746,952,487,0,0,0,2,1,1,3,0003-00-0000-22.png,0004-00-0001-72.png
00000014,442,0,1449069881804,1449069882254,361,426,0,0,0,4,3,1,7,0001-00-0001-53.png,0002-00-0000-55.png
00000014,443,1,1449069886033,1449069886539,864,436,0,0,0,1,0,1,1,0004-00-0000-78.png,0005-00-0001-71.png
00000014,444,0,1449069887657,1449069888048,387,475,0,0,0,3,2,1,5,0002-00-0001-38.png,0003-00-0001-71.png
00000014,445,0,1449069891640,1449069892146,951,475,0,0,0,3,4,1,7,0002-00-0000-89.png,0001-00-0000-77.png
00000014,446,0,1449069896081,1449069896517,905,401,0,0,0,2,3,1,5,0003-00-0001-07.png,0002-00-0001-42.png
00000014,447,1,1449069899482,1449069899952,413,423,0,0,0,1,2,1,3,0004-00-0000-98.png,0003-00-0000-32.png
00000014,448,1,1449069900943,1449069901367,367,454,0,0,0,0,1,1,1,0005-00-0001-78.png,0004-00-0001-64.png
00000014,449,1,1449069902474,1449069902918,897,483,0,0,0,1,0,1,1,0004-00-0001-26.png,0005-00-0001-68.png
00000014,450,0,1449069904056,1449069904488,351,465,0,0,0,4,3,1,7,0001-00-0001-34.png,0002-00-0001-50.png
00000014,451,0,1449069907949,1449069908475,926,463,0,0,0,1,2,1,3,0004-00-0000-66.png,0003-00-0000-67.png
00000014,452,0,1449069911739,1449069912372,462,527,0,0,0,3,2,1,5,0002-00-0000-87.png,0003-00-0000-30.png
00000014,453,1,1449069915764,1449069916269,943,454,0,0,0,2,1,1,3,0003-00-0001-30.png,0004-00-0001-51.png
00000014,454,0,1449069917326,1449069917795,916,462,0,0,0,3,4,1,7,0002-00-0001-64.png,0001-00-0000-95.png
00000014,455,0,1449069921250,1449069921716,965,475,0,0,0,2,3,1,5,0003-00-0001-53.png,0002-00-0000-78.png
00000014,456,1,1449069925443,1449069926020,417,473,0,0,0,0,1,1,1,0005-00-0001-81.png,0004-00-0001-71.png
00000014,457,0,1449069927034,1449069927434,391,506,0,0,0,3,2,1,5,0002-00-0001-73.png,0003-00-0001-71.png
00000014,458,0,1449069930676,1449069931132,939,475,0,0,0,0,1,1,1,0005-00-0001-29.png,0004-00-0001-35.png
00000014,459,1,1449069934843,1449069935307,976,448,0,0,0,1,0,1,1,0004-00-0000-76.png,0005-00-0000-96.png
00000014,460,0,1449069936395,1449069936867,927,486,0,0,0,2,3,1,5,0003-00-0001-88.png,0002-00-0001-09.png
00000014,461,0,1449069939993,1449069940554,371,402,0,0,0,4,3,1,7,0001-00-0000-14.png,0002-00-0001-46.png
00000014,462,1,1449069943509,1449069943994,954,468,0,0,0,2,1,1,3,0003-00-0001-41.png,0004-00-0000-16.png
00000014,463,0,1449069944983,1449069945439,925,463,0,0,0,3,4,1,7,0002-00-0001-55.png,0001-00-0000-00.png
00000014,464,0,1449069948807,1449069949314,959,499,0,0,0,1,2,1,3,0004-00-0001-81.png,0003-00-0000-05.png
00000014,465,1,1449069952682,1449069953111,950,458,0,0,0,1,0,1,1,0004-00-0000-13.png,0005-00-0001-51.png
00000014,466,1,1449069954218,1449069954730,926,489,0,0,0,3,2,1,5,0002-00-0000-66.png,0003-00-0000-48.png
00000014,467,0,1449069955858,1449069956241,414,502,0,0,0,4,3,1,7,0001-00-0001-49.png,0002-00-0001-65.png
00000014,468,1,1449069959300,1449069959771,950,457,0,0,0,2,1,1,3,0003-00-0001-59.png,0004-00-0000-08.png
00000014,469,0,1449069960879,1449069961335,926,489,0,0,0,3,4,1,7,0002-00-0001-39.png,0001-00-0000-04.png
00000014,470,0,1449069964842,1449069965283,939,501,0,0,0,0,1,1,1,0005-00-0001-14.png,0004-00-0000-10.png
00000014,471,0,1449069968450,1449069968974,954,493,0,0,0,1,2,1,3,0004-00-0001-71.png,0003-00-0000-75.png
00000014,472,1,1449069972461,1449069973444,440,411,0,0,0,2,3,1,5,0003-00-0001-66.png,0002-00-0000-38.png
00000014,473,1,1449069974521,1449069975012,916,474,0,0,0,1,0,1,1,0004-00-0001-82.png,0005-00-0000-98.png
00000014,474,1,1449069976172,1449069976688,913,500,0,0,0,2,1,1,3,0003-00-0000-85.png,0004-00-0001-05.png
00000014,475,1,1449069977840,1449069978334,888,476,0,0,0,3,2,1,5,0002-00-0000-58.png,0003-00-0001-10.png
00000014,476,1,1449069979490,1449069979889,350,495,0,0,0,0,1,1,1,0005-00-0001-18.png,0004-00-0000-58.png
00000014,477,1,1449069981100,1449069981479,417,481,0,0,0,1,2,1,3,0004-00-0000-83.png,0003-00-0000-19.png
00000014,478,0,1449069982723,1449069983111,369,478,0,0,0,4,3,1,7,0001-00-0000-18.png,0002-00-0000-05.png
00000014,479,0,1449069986031,1449069986510,874,516,0,0,0,3,4,1,7,0002-00-0001-76.png,0001-00-0000-69.png
00000014,480,0,1449069989450,1449069989972,928,467,0,0,0,2,3,1,5,0003-00-0000-21.png,0002-00-0000-51.png
00000014,481,1,1449069993057,1449069993556,357,385,0,0,0,0,1,1,1,0005-00-0000-17.png,0004-00-0000-20.png
00000014,482,1,1449069994679,1449069995142,900,462,0,0,0,2,1,1,3,0003-00-0000-03.png,0004-00-0000-12.png
00000014,483,1,1449069996338,1449069996809,898,485,0,0,0,1,0,1,1,0004-00-0001-52.png,0005-00-0000-80.png
00000014,484,0,1449069997958,1449069998359,344,462,0,0,0,4,3,1,7,0001-00-0001-80.png,0002-00-0000-12.png
00000014,485,0,1449070001266,1449070001767,946,470,0,0,0,1,2,1,3,0004-00-0000-58.png,0003-00-0001-04.png
00000014,486,0,1449070005473,1449070005897,970,450,0,0,0,2,3,1,5,0003-00-0001-59.png,0002-00-0000-22.png
00000014,487,0,1449070009187,1449070009672,925,542,0,0,0,3,4,1,7,0002-00-0001-67.png,0001-00-0001-22.png
00000014,488,1,1449070012825,1449070013322,965,448,0,0,0,3,2,1,5,0002-00-0000-02.png,0003-00-0000-00.png
00000014,489,1,1449070014499,1449070015029,319,447,0,0,0,0,1,1,1,0005-00-0000-45.png,0004-00-0001-15.png
00000014,490,0,1449070016086,1449070016534,898,482,0,0,0,2,3,1,5,0003-00-0001-48.png,0002-00-0000-62.png
00000014,491,0,1449070019373,1449070019816,952,409,0,0,0,3,4,1,7,0002-00-0001-55.png,0001-00-0000-93.png
00000014,492,1,1449070022904,1449070023502,469,428,0,0,0,1,2,1,3,0004-00-0001-68.png,0003-00-0001-27.png
00000014,493,0,1449070024624,1449070025099,431,562,0,0,0,3,2,1,5,0002-00-0001-81.png,0003-00-0001-28.png
00000014,494,1,1449070028192,1449070028700,903,429,0,0,0,2,1,1,3,0003-00-0001-16.png,0004-00-0000-97.png
00000014,495,1,1449070029862,1449070030550,951,475,0,0,0,1,0,1,1,0004-00-0001-94.png,0005-00-0001-72.png
00000014,496,0,1449070031934,1449070032373,401,476,0,0,0,4,3,1,7,0001-00-0000-86.png,0002-00-0000-06.png
00000014,497,0,1449070035522,1449070036097,901,475,0,0,0,2,3,1,5,0003-00-0001-84.png,0002-00-0000-45.png
00000014,498,1,1449070039563,1449070040163,949,484,0,0,0,2,1,1,3,0003-00-0001-50.png,0004-00-0000-94.png
00000014,499,1,1449070041235,1449070041635,373,501,0,0,0,0,1,1,1,0005-00-0000-41.png,0004-00-0000-86.png
00000014,500,1,1449070042951,1449070043417,907,474,0,0,0,1,0,1,1,0004-00-0000-74.png,0005-00-0001-11.png
00000014,501,1,1449070044622,1449070045126,889,527,0,0,0,4,3,1,7,0001-00-0000-92.png,0002-00-0001-72.png
00000014,502,0,1449070046284,1449070046647,361,456,0,0,0,3,2,1,5,0002-00-0000-51.png,0003-00-0000-33.png
00000014,503,0,1449070049891,1449070050332,907,557,0,0,0,3,4,1,7,0002-00-0001-42.png,0001-00-0000-00.png
00000014,504,1,1449070053587,1449070054271,397,427,0,0,0,1,2,1,3,0004-00-0000-63.png,0003-00-0001-14.png
00000014,505,0,1449070055618,1449070056135,391,390,0,0,0,2,1,1,3,0003-00-0000-92.png,0004-00-0001-89.png
00000014,506,1,1449070059461,1449070060005,371,399,0,0,0,0,1,1,1,0005-00-0000-61.png,0004-00-0000-08.png
00000014,507,0,1449070061060,1449070061557,939,476,0,0,0,2,3,1,5,0003-00-0001-08.png,0002-00-0000-70.png
00000014,508,1,1449070064935,1449070065453,927,475,0,0,0,1,0,1,1,0004-00-0001-39.png,0005-00-0000-50.png
00000014,509,0,1449070066587,1449070067110,905,506,0,0,0,1,2,1,3,0004-00-0001-94.png,0003-00-0001-37.png
00000014,510,0,1449070070967,1449070071424,940,475,0,0,0,3,4,1,7,0002-00-0001-25.png,0001-00-0000-38.png
00000014,511,0,1449070074556,1449070075219,423,513,0,0,0,3,2,1,5,0002-00-0000-11.png,0003-00-0000-21.png
00000014,512,0,1449070078397,1449070078918,381,414,0,0,0,4,3,1,7,0001-00-0000-40.png,0002-00-0001-72.png
00000014,513,0,1449070082240,1449070082947,375,403,0,0,0,2,1,1,3,0003-00-0000-92.png,0004-00-0000-96.png
00000014,514,0,1449070086211,1449070086783,393,402,0,0,0,3,2,1,5,0002-00-0001-69.png,0003-00-0001-24.png
00000014,515,0,1449070090284,1449070090765,900,555,0,0,0,2,3,1,5,0003-00-0001-54.png,0002-00-0000-89.png
00000014,516,0,1449070094661,1449070095136,971,466,0,0,0,3,4,1,7,0002-00-0001-66.png,0001-00-0001-27.png
00000014,517,1,1449070098728,1449070099170,952,475,0,0,0,1,0,1,1,0004-00-0000-12.png,0005-00-0001-85.png
00000014,518,0,1449070100230,1449070100806,884,566,0,0,0,0,1,1,1,0005-00-0000-36.png,0004-00-0001-29.png
00000014,519,0,1449070104629,1449070105055,401,516,0,0,0,4,3,1,7,0001-00-0000-34.png,0002-00-0001-20.png
00000014,520,0,1449070108605,1449070109142,923,460,0,0,0,1,2,1,3,0004-00-0000-14.png,0003-00-0001-17.png
00000014,521,0,1449070112375,1449070112830,950,455,0,0,0,2,3,1,5,0003-00-0000-34.png,0002-00-0000-20.png
00000014,522,0,1449070116169,1449070116684,368,400,0,0,0,4,3,1,7,0001-00-0001-32.png,0002-00-0001-36.png
00000014,523,0,1449070119657,1449070119677,520,402,0,0,0,1,0,1,1,0004-00-0000-33.png,0005-00-0000-85.png
00000014,524,0,1449070122746,1449070123313,383,371,0,0,0,2,1,1,3,0003-00-0000-97.png,0004-00-0001-58.png
00000014,525,1,1449070133930,1449070134452,402,406,0,0,0,0,1,1,1,0005-00-0000-38.png,0004-00-0001-29.png
00000014,526,1,1449070135901,1449070136460,363,481,0,0,0,1,2,1,3,0004-00-0001-13.png,0003-00-0000-03.png
00000014,527,1,1449070137618,1449070138079,364,462,0,0,0,3,4,1,7,0002-00-0000-95.png,0001-00-0001-88.png
00000014,528,1,1449070139312,1449070139800,913,502,0,0,0,3,2,1,5,0002-00-0001-81.png,0003-00-0000-12.png
00000014,529,0,1449070141061,1449070141494,350,462,0,0,0,2,1,1,3,0003-00-0001-87.png,0004-00-0001-64.png
00000014,530,0,1449070145481,1449070146009,926,502,0,0,0,0,1,1,1,0005-00-0001-57.png,0004-00-0001-36.png
00000014,531,0,1449070151762,1449070152289,953,531,0,0,0,3,4,1,7,0002-00-0000-09.png,0001-00-0000-80.png
00000014,532,0,1449070155516,1449070156084,350,422,0,0,0,4,3,1,7,0001-00-0001-61.png,0002-00-0001-49.png
00000014,533,1,1449070159164,1449070159739,961,521,0,0,0,1,0,1,1,0004-00-0000-63.png,0005-00-0001-48.png
00000014,534,0,1449070161098,1449070161686,448,469,0,0,0,3,2,1,5,0002-00-0000-73.png,0003-00-0001-56.png
00000014,535,0,1449070165207,1449070165743,871,418,0,0,0,2,3,1,5,0003-00-0000-43.png,0002-00-0000-42.png
00000014,536,0,1449070170466,1449070171010,971,461,0,0,0,1,2,1,3,0004-00-0001-73.png,0003-00-0001-35.png
00000014,537,1,1449070174484,1449070175003,921,472,0,0,0,2,1,1,3,0003-00-0000-65.png,0004-00-0000-23.png
00000014,538,1,1449070176211,1449070176820,883,525,0,0,0,3,2,1,5,0002-00-0001-24.png,0003-00-0000-45.png
00000014,539,0,1449070177961,1449070178414,920,494,0,0,0,2,3,1,5,0003-00-0000-69.png,0002-00-0000-78.png
00000014,540,0,1449070186128,1449070186597,952,462,0,0,0,1,2,1,3,0004-00-0001-50.png,0003-00-0000-08.png
00000014,541,0,1449070189988,1449070190515,939,474,0,0,0,3,4,1,7,0002-00-0001-20.png,0001-00-0001-91.png
00000014,542,1,1449070193729,1449070194242,928,469,0,0,0,1,0,1,1,0004-00-0000-18.png,0005-00-0001-24.png
00000014,543,0,1449070195385,1449070195796,367,475,0,0,0,4,3,1,7,0001-00-0000-46.png,0002-00-0001-96.png
00000014,544,1,1449070199243,1449070199774,364,410,0,0,0,0,1,1,1,0005-00-0001-84.png,0004-00-0001-13.png
00000014,545,0,1449070200964,1449070201383,349,459,0,0,0,4,3,1,7,0001-00-0000-98.png,0002-00-0001-26.png
00000014,546,0,1449070204537,1449070205055,888,436,0,0,0,2,3,1,5,0003-00-0000-98.png,0002-00-0001-72.png
00000014,547,0,1449070208339,1449070208899,376,429,0,0,0,3,2,1,5,0002-00-0000-47.png,0003-00-0001-46.png
00000014,548,1,1449070213148,1449070213700,936,499,0,0,0,2,1,1,3,0003-00-0000-93.png,0004-00-0000-93.png
00000014,549,1,1449070215390,1449070216213,376,399,0,0,0,1,2,1,3,0004-00-0001-06.png,0003-00-0000-59.png
00000014,550,1,1449070217557,1449070218151,930,506,0,0,0,1,0,1,1,0004-00-0001-78.png,0005-00-0001-84.png
00000014,551,1,1449070219864,1449070220362,392,435,0,0,0,0,1,1,1,0005-00-0001-82.png,0004-00-0000-70.png
00000014,552,0,1449070222153,1449070222695,890,490,0,0,0,3,4,1,7,0002-00-0000-79.png,0001-00-0000-33.png
00000014,553,1,1449070228256,1449070228941,421,490,0,0,0,1,2,1,3,0004-00-0000-71.png,0003-00-0000-25.png
00000014,554,1,1449070230169,1449070230667,927,476,0,0,0,3,2,1,5,0002-00-0001-63.png,0003-00-0000-95.png
00000014,555,1,1449070231949,1449070232906,384,418,0,0,0,3,4,1,7,0002-00-0001-03.png,0001-00-0000-20.png
00000014,556,0,1449070234138,1449070235235,977,466,0,0,0,2,3,1,5,0003-00-0000-02.png,0002-00-0001-79.png
00000014,557,1,1449070239429,1449070239924,951,449,0,0,0,2,1,1,3,0003-00-0000-91.png,0004-00-0001-48.png
00000014,558,1,1449070241184,1449070241758,894,482,0,0,0,1,0,1,1,0004-00-0000-80.png,0005-00-0001-94.png
00000014,559,0,1449070242866,1449070243514,401,392,0,0,0,4,3,1,7,0001-00-0000-52.png,0002-00-0001-02.png
00000014,560,1,1449070247714,1449070248248,376,410,0,0,0,0,1,1,1,0005-00-0001-83.png,0004-00-0000-25.png
00000014,561,0,1449070249602,1449070250042,351,459,0,0,0,4,3,1,7,0001-00-0000-40.png,0002-00-0000-26.png
00000014,562,0,1449070253499,1449070254052,899,483,0,0,0,1,2,1,3,0004-00-0001-70.png,0003-00-0001-59.png
00000014,563,1,1449070257383,1449070257958,376,421,0,0,0,0,1,1,1,0005-00-0000-34.png,0004-00-0001-23.png
00000014,564,1,1449070259184,1449070259709,902,529,0,0,0,1,0,1,1,0004-00-0001-19.png,0005-00-0000-09.png
00000014,565,0,1449070261218,1449070261688,363,481,0,0,0,3,2,1,5,0002-00-0001-62.png,0003-00-0000-46.png
00000014,566,0,1449070266586,1449070267557,469,451,0,0,0,2,1,1,3,0003-00-0001-08.png,0004-00-0001-14.png
00000014,567,0,1449070271681,1449070272168,949,457,0,0,0,3,4,1,7,0002-00-0001-19.png,0001-00-0001-57.png
00000014,568,0,1449070276164,1449070276711,930,497,0,0,0,2,3,1,5,0003-00-0000-85.png,0002-00-0000-09.png
00000014,569,0,1449070280094,1449070280617,926,513,0,0,0,2,3,1,5,0003-00-0000-63.png,0002-00-0000-09.png
00000014,570,1,1449070284962,1449070285562,376,447,0,0,0,0,1,1,1,0005-00-0001-70.png,0004-00-0001-72.png
00000014,571,0,1449070287426,1449070288278,389,406,0,0,0,2,1,1,3,0003-00-0000-44.png,0004-00-0000-02.png
00000014,572,1,1449070291750,1449070292283,968,469,0,0,0,1,0,1,1,0004-00-0000-27.png,0005-00-0001-19.png
00000014,573,0,1449070293491,1449070293945,924,458,0,0,0,3,4,1,7,0002-00-0000-95.png,0001-00-0000-70.png
00000014,574,0,1449070297268,1449070297878,900,449,0,0,0,1,2,1,3,0004-00-0001-04.png,0003-00-0001-28.png
00000014,575,0,1449070301510,1449070301538,522,507,0,0,0,3,2,1,5,0002-00-0001-20.png,0003-00-0001-42.png
00000014,576,0,1449070305594,1449070306223,402,418,0,0,0,4,3,1,7,0001-00-0001-54.png,0002-00-0001-99.png
00000014,577,1,1449070310790,1449070311323,948,469,0,0,0,3,2,1,5,0002-00-0001-03.png,0003-00-0000-44.png
00000014,578,1,1449070312837,1449070313531,444,549,0,0,0,1,2,1,3,0004-00-0000-91.png,0003-00-0001-10.png
00000014,579,0,1449070314807,1449070315315,912,502,0,0,0,3,4,1,7,0002-00-0001-68.png,0001-00-0001-14.png
00000014,580,0,1449070318602,1449070319087,927,436,0,0,0,2,3,1,5,0003-00-0001-56.png,0002-00-0001-55.png
00000014,581,1,1449070323213,1449070323229,518,488,0,0,0,0,1,1,1,0005-00-0000-52.png,0004-00-0000-35.png
00000014,582,0,1449070324406,1449070325382,389,449,0,0,0,2,1,1,3,0003-00-0001-24.png,0004-00-0000-80.png
00000014,583,1,1449070329490,1449070329956,942,460,0,0,0,1,0,1,1,0004-00-0001-37.png,0005-00-0000-20.png
00000014,584,0,1449070331194,1449070331886,427,417,0,0,0,4,3,1,7,0001-00-0001-78.png,0002-00-0001-89.png
00000014,585,1,1449070336523,1449070337127,390,424,0,0,0,2,3,1,5,0003-00-0000-08.png,0002-00-0000-51.png
00000014,586,1,1449070338261,1449070338786,870,549,0,0,0,1,0,1,1,0004-00-0000-81.png,0005-00-0001-08.png
00000014,587,1,1449070339931,1449070340363,389,474,0,0,0,0,1,1,1,0005-00-0001-40.png,0004-00-0001-06.png
00000014,588,1,1449070342007,1449070342594,873,537,0,0,0,3,2,1,5,0002-00-0000-93.png,0003-00-0001-21.png
00000014,589,1,1449070343706,1449070344081,423,480,0,0,0,1,2,1,3,0004-00-0001-39.png,0003-00-0000-90.png
00000014,590,0,1449070345209,1449070345633,370,498,0,0,0,4,3,1,7,0001-00-0000-03.png,0002-00-0001-34.png
00000014,591,1,1449070349317,1449070349782,923,457,0,0,0,2,1,1,3,0003-00-0000-10.png,0004-00-0001-35.png
00000014,592,0,1449070350815,1449070351302,872,560,0,0,0,3,4,1,7,0002-00-0000-55.png,0001-00-0000-40.png
00000014,593,1,1449070356769,1449070356853,515,541,0,0,0,0,1,1,1,0005-00-0001-99.png,0004-00-0000-66.png
00000014,594,0,1449070358165,1449070358785,349,456,0,0,0,1,0,1,1,0004-00-0000-64.png,0005-00-0000-16.png
00000014,595,0,1449070362977,1449070363494,953,443,0,0,0,3,4,1,7,0002-00-0000-61.png,0001-00-0000-52.png
00000014,596,1,1449070368941,1449070369438,900,422,0,0,0,2,1,1,3,0003-00-0000-09.png,0004-00-0001-47.png
00000014,597,0,1449070371006,1449070371675,926,475,0,0,0,1,2,1,3,0004-00-0001-09.png,0003-00-0001-82.png
00000014,598,0,1449070375447,1449070375969,895,551,0,0,0,2,3,1,5,0003-00-0001-66.png,0002-00-0000-34.png
00000014,599,1,1449070379709,1449070380405,931,505,0,0,0,4,3,1,7,0001-00-0001-55.png,0002-00-0000-76.png
00000014,600,1,1449070381546,1449070382041,939,502,0,0,0,3,2,1,5,0002-00-0000-72.png,0003-00-0001-83.png
00000014,601,1,1449070383366,1449070383784,386,443,0,0,0,0,1,1,1,0005-00-0000-33.png,0004-00-0001-24.png
00000014,602,0,1449070384964,1449070385657,903,493,0,0,0,3,4,1,7,0002-00-0001-60.png,0001-00-0001-51.png
00000014,603,0,1449070390301,1449070390858,951,422,0,0,0,1,2,1,3,0004-00-0001-42.png,0003-00-0001-21.png
00000014,604,0,1449070394486,1449070395003,952,462,0,0,0,2,3,1,5,0003-00-0001-26.png,0002-00-0000-12.png
00000014,605,1,1449070399204,1449070399731,941,441,0,0,0,1,0,1,1,0004-00-0000-24.png,0005-00-0000-88.png
00000014,606,1,1449070400972,1449070401598,927,476,0,0,0,3,2,1,5,0002-00-0000-59.png,0003-00-0001-37.png
00000014,607,1,1449070402856,1449070403313,913,461,0,0,0,2,1,1,3,0003-00-0001-85.png,0004-00-0000-10.png
00000014,608,0,1449070404542,1449070404976,406,566,0,0,0,4,3,1,7,0001-00-0001-01.png,0002-00-0000-96.png
00000014,609,0,1449070408701,1449070409204,925,457,0,0,0,3,4,1,7,0002-00-0001-26.png,0001-00-0000-61.png
00000014,610,1,1449070413807,1449070414329,412,431,0,0,0,0,1,1,1,0005-00-0000-34.png,0004-00-0001-23.png
00000014,611,1,1449070415435,1449070415941,903,520,0,0,0,2,1,1,3,0003-00-0000-09.png,0004-00-0001-29.png
00000014,612,1,1449070417118,1449070417581,926,488,0,0,0,1,0,1,1,0004-00-0001-48.png,0005-00-0000-32.png
00000014,613,1,1449070418705,1449070419145,390,488,0,0,0,2,3,1,5,0003-00-0000-27.png,0002-00-0000-00.png
00000014,614,0,1449070420295,1449070420728,370,449,0,0,0,4,3,1,7,0001-00-0000-78.png,0002-00-0001-45.png
00000014,615,0,1449070424439,1449070425158,913,422,0,0,0,1,2,1,3,0004-00-0000-02.png,0003-00-0000-81.png
00000014,616,1,1449070434192,1449070434768,940,467,0,0,0,3,2,1,5,0002-00-0001-54.png,0003-00-0000-53.png
00000014,617,0,1449070435896,1449070436638,889,563,0,0,0,1,2,1,3,0004-00-0001-94.png,0003-00-0000-81.png
00000014,618,0,1449070439565,1449070440049,978,398,0,0,0,3,4,1,7,0002-00-0001-02.png,0001-00-0000-36.png
00000014,619,1,1449070444143,1449070444691,958,473,0,0,0,1,0,1,1,0004-00-0000-70.png,0005-00-0001-47.png
00000014,620,1,1449070445863,1449070446505,897,456,0,0,0,3,2,1,5,0002-00-0000-88.png,0003-00-0001-65.png
00000014,621,1,1449070447646,1449070448235,878,480,0,0,0,4,3,1,7,0001-00-0001-14.png,0002-00-0001-92.png
00000014,622,0,1449070449362,1449070449907,899,490,0,0,0,2,3,1,5,0003-00-0001-62.png,0002-00-0000-85.png
00000014,623,1,1449070453306,1449070453891,940,475,0,0,0,2,1,1,3,0003-00-0000-73.png,0004-00-0001-21.png
00000014,624,1,1449070455057,1449070455463,418,507,0,0,0,0,1,1,1,0005-00-0001-07.png,0004-00-0000-05.png
00000014,625,1,1449070456619,1449070457221,931,479,0,0,0,3,2,1,5,0002-00-0001-70.png,0003-00-0000-49.png
00000014,626,1,1449070458363,1449070458895,877,436,0,0,0,1,0,1,1,0004-00-0001-01.png,0005-00-0000-18.png
00000014,627,0,1449070460056,1449070460531,874,508,0,0,0,2,3,1,5,0003-00-0001-17.png,0002-00-0001-92.png
00000014,628,0,1449070463738,1449070464263,948,490,0,0,0,3,4,1,7,0002-00-0000-34.png,0001-00-0000-65.png
00000014,629,1,1449070470644,1449070471105,964,450,0,0,0,2,1,1,3,0003-00-0001-21.png,0004-00-0001-44.png
00000014,630,1,1449070472294,1449070472916,919,507,0,0,0,4,3,1,7,0001-00-0000-84.png,0002-00-0001-81.png
00000014,631,0,1449070473995,1449070474510,895,472,0,0,0,1,2,1,3,0004-00-0000-23.png,0003-00-0000-70.png
00000014,632,0,1449070480172,1449070480700,924,507,0,0,0,0,1,1,1,0005-00-0001-25.png,0004-00-0000-35.png
00000014,633,0,1449070487525,1449070488046,881,515,0,0,0,1,2,1,3,0004-00-0001-91.png,0003-00-0000-01.png
00000014,634,0,1449070490936,1449070491465,965,423,0,0,0,3,4,1,7,0002-00-0000-88.png,0001-00-0001-76.png
00000014,635,0,1449070495350,1449070495937,387,409,0,0,0,4,3,1,7,0001-00-0001-25.png,0002-00-0001-44.png
00000014,636,1,1449070500310,1449070500985,921,419,0,0,0,2,1,1,3,0003-00-0000-14.png,0004-00-0000-04.png
00000014,637,1,1449070503076,1449070503587,952,475,0,0,0,1,0,1,1,0004-00-0001-19.png,0005-00-0000-20.png
00000014,638,1,1449070504854,1449070505447,446,531,0,0,0,0,1,1,1,0005-00-0000-86.png,0004-00-0000-39.png
00000014,639,0,1449070506581,1449070507047,387,452,0,0,0,3,2,1,5,0002-00-0000-35.png,0003-00-0000-99.png
00000014,640,0,1449070511499,1449070511999,918,469,0,0,0,2,3,1,5,0003-00-0001-52.png,0002-00-0001-89.png
00000014,641,0,1449070515844,1449070516374,952,462,0,0,0,0,1,1,1,0005-00-0001-66.png,0004-00-0001-25.png
00000014,642,0,1449070519650,1449070520152,965,449,0,0,0,3,4,1,7,0002-00-0000-21.png,0001-00-0001-44.png
00000014,643,1,1449070523197,1449070523780,975,436,0,0,0,3,2,1,5,0002-00-0001-29.png,0003-00-0000-52.png
00000014,644,1,1449070524895,1449070525360,926,476,0,0,0,2,1,1,3,0003-00-0000-18.png,0004-00-0000-59.png
00000014,645,0,1449070526572,1449070527112,925,517,0,0,0,1,2,1,3,0004-00-0000-67.png,0003-00-0001-21.png
00000014,646,0,1449070530721,1449070531258,451,439,0,0,0,4,3,1,7,0001-00-0000-58.png,0002-00-0001-03.png
00000014,647,1,1449070535048,1449070535694,887,508,0,0,0,1,0,1,1,0004-00-0001-46.png,0005-00-0001-40.png
00000014,648,0,1449070536784,1449070537307,888,501,0,0,0,2,3,1,5,0003-00-0000-42.png,0002-00-0000-62.png
00000014,649,1,1449070540729,1449070541260,338,402,0,0,0,0,1,1,1,0005-00-0000-17.png,0004-00-0000-50.png
00000014,650,0,1449070542588,1449070542996,350,436,0,0,0,4,3,1,7,0001-00-0000-69.png,0002-00-0000-86.png
00000014,651,0,1449070551900,1449070552399,908,479,0,0,0,2,3,1,5,0003-00-0001-88.png,0002-00-0001-01.png
00000014,652,0,1449070556801,1449070557715,428,420,0,0,0,2,1,1,3,0003-00-0001-52.png,0004-00-0000-30.png
00000014,653,1,1449070561689,1449070562183,929,494,0,0,0,1,0,1,1,0004-00-0001-40.png,0005-00-0000-18.png
00000014,654,1,1449070563293,1449070563745,376,455,0,0,0,1,2,1,3,0004-00-0000-32.png,0003-00-0000-02.png
00000014,655,1,1449070564965,1449070565461,913,502,0,0,0,3,2,1,5,0002-00-0001-07.png,0003-00-0001-18.png
00000014,656,0,1449070566633,1449070567592,938,476,0,0,0,3,4,1,7,0002-00-0001-74.png,0001-00-0000-09.png
00000014,657,0,1449070571286,1449070571767,391,445,0,0,0,4,3,1,7,0001-00-0001-57.png,0002-00-0001-66.png
00000014,658,0,1449070574750,1449070575231,903,521,0,0,0,0,1,1,1,0005-00-0001-90.png,0004-00-0001-73.png
00000014,659,1,1449070578897,1449070579773,927,424,0,0,0,1,0,1,1,0004-00-0001-89.png,0005-00-0001-23.png
00000014,660,1,1449070580875,1449070581440,900,497,0,0,0,3,2,1,5,0002-00-0000-86.png,0003-00-0001-56.png
00000014,661,0,1449070582668,1449070583186,879,506,0,0,0,2,3,1,5,0003-00-0001-33.png,0002-00-0000-48.png
00000014,662,0,1449070586149,1449070586571,971,430,0,0,0,1,2,1,3,0004-00-0001-18.png,0003-00-0000-58.png
00000014,663,1,1449070590385,1449070590860,939,475,0,0,0,2,1,1,3,0003-00-0001-00.png,0004-00-0001-87.png
00000014,664,0,1449070591928,1449070592387,908,500,0,0,0,3,4,1,7,0002-00-0000-52.png,0001-00-0001-96.png
00000014,665,0,1449070596806,1449070597405,466,443,0,0,0,4,3,1,7,0001-00-0001-75.png,0002-00-0001-39.png
00000014,666,0,1449070601396,1449070601965,953,443,0,0,0,2,3,1,5,0003-00-0001-19.png,0002-00-0001-81.png
00000014,667,1,1449070605731,1449070606291,395,399,0,0,0,0,1,1,1,0005-00-0000-63.png,0004-00-0000-80.png
00000014,668,0,1449070607798,1449070608352,372,454,0,0,0,3,2,1,5,0002-00-0000-56.png,0003-00-0000-09.png
00000014,669,0,1449070611365,1449070611794,936,447,0,0,0,1,2,1,3,0004-00-0000-88.png,0003-00-0000-73.png
00000014,670,0,1449070616971,1449070617687,908,447,0,0,0,3,4,1,7,0002-00-0000-42.png,0001-00-0001-11.png
00000014,671,1,1449070621513,1449070622093,940,445,0,0,0,1,0,1,1,0004-00-0000-39.png,0005-00-0000-19.png
00000014,672,1,1449070623320,1449070623917,925,493,0,0,0,2,1,1,3,0003-00-0001-94.png,0004-00-0000-11.png
00000014,673,1,1449070625556,1449070626146,938,450,0,0,0,2,1,1,3,0003-00-0000-00.png,0004-00-0001-95.png
00000014,674,0,1449070627894,1449070628517,466,554,0,0,0,3,2,1,5,0002-00-0001-70.png,0003-00-0001-62.png
00000014,675,1,1449070632605,1449070632767,519,557,0,0,0,0,1,1,1,0005-00-0000-99.png,0004-00-0000-67.png
00000014,676,0,1449070634050,1449070634479,903,495,0,0,0,2,3,1,5,0003-00-0000-78.png,0002-00-0001-97.png
00000014,677,1,1449070640099,1449070640588,925,449,0,0,0,1,0,1,1,0004-00-0001-90.png,0005-00-0001-92.png
00000014,678,1,1449070641713,1449070642239,900,463,0,0,0,4,3,1,7,0001-00-0000-37.png,0002-00-0000-61.png
00000014,679,0,1449070643548,1449070644089,891,519,0,0,0,1,2,1,3,0004-00-0000-87.png,0003-00-0000-13.png
00000014,680,0,1449070647265,1449070647804,901,546,0,0,0,3,4,1,7,0002-00-0001-09.png,0001-00-0000-59.png
00000014,681,0,1449070651399,1449070651943,951,506,0,0,0,3,4,1,7,0002-00-0001-21.png,0001-00-0001-86.png
00000014,682,1,1449070655315,1449070655928,925,448,0,0,0,4,3,1,7,0001-00-0001-64.png,0002-00-0000-65.png
00000014,683,0,1449070657005,1449070657542,875,500,0,0,0,1,2,1,3,0004-00-0001-73.png,0003-00-0001-42.png
00000014,684,0,1449070660773,1449070661367,394,423,0,0,0,3,2,1,5,0002-00-0001-59.png,0003-00-0001-39.png
00000014,685,1,1449070664728,1449070665357,442,467,0,0,0,0,1,1,1,0005-00-0001-81.png,0004-00-0001-85.png
00000014,686,1,1449070666569,1449070667102,906,520,0,0,0,2,1,1,3,0003-00-0001-26.png,0004-00-0001-63.png
00000014,687,0,1449070668208,1449070668706,897,482,0,0,0,2,3,1,5,0003-00-0001-08.png,0002-00-0001-53.png
00000014,688,1,1449070673169,1449070673649,951,475,0,0,0,1,0,1,1,0004-00-0000-42.png,0005-00-0001-43.png
00000014,689,1,1449070674816,1449070675331,921,513,0,0,0,2,1,1,3,0003-00-0000-95.png,0004-00-0001-63.png
00000014,690,0,1449070676565,1449070677007,913,451,0,0,0,1,2,1,3,0004-00-0001-95.png,0003-00-0000-89.png
00000014,691,0,1449070680511,1449070680971,934,498,0,0,0,3,4,1,7,0002-00-0001-10.png,0001-00-0000-25.png
00000014,692,1,1449070684218,1449070684675,913,410,0,0,0,3,2,1,5,0002-00-0000-74.png,0003-00-0001-31.png
00000014,693,0,1449070685927,1449070686432,902,541,0,0,0,2,3,1,5,0003-00-0000-57.png,0002-00-0000-32.png
00000014,694,0,1449070689656,1449070690134,465,424,0,0,0,4,3,1,7,0001-00-0000-66.png,0002-00-0000-63.png
00000014,695,1,1449070693510,1449070694022,953,442,0,0,0,1,0,1,1,0004-00-0001-14.png,0005-00-0001-99.png
00000014,696,0,1449070695240,1449070695729,903,494,0,0,0,0,1,1,1,0005-00-0000-05.png,0004-00-0000-90.png
00000014,697,1,1449070699223,1449070699729,952,502,0,0,0,3,2,1,5,0002-00-0000-45.png,0003-00-0000-44.png
00000014,698,1,1449070701310,1449070701797,907,541,0,0,0,1,0,1,1,0004-00-0000-10.png,0005-00-0001-71.png
00000014,699,0,1449070703044,1449070703497,901,476,0,0,0,1,2,1,3,0004-00-0001-83.png,0003-00-0001-72.png
00000014,700,1,1449070706912,1449070707436,383,401,0,0,0,0,1,1,1,0005-00-0001-77.png,0004-00-0000-01.png
00000014,701,1,1449070708538,1449070709030,903,518,0,0,0,2,1,1,3,0003-00-0001-15.png,0004-00-0000-80.png
00000014,702,0,1449070710287,1449070710688,394,494,0,0,0,4,3,1,7,0001-00-0001-40.png,0002-00-0000-96.png
00000014,703,0,1449070715189,1449070715618,951,464,0,0,0,3,4,1,7,0002-00-0000-47.png,0001-00-0000-98.png
00000014,704,0,1449070719060,1449070719507,921,524,0,0,0,2,3,1,5,0003-00-0000-34.png,0002-00-0001-21.png
00000014,705,0,1449070722539,1449070723022,948,528,0,0,0,2,3,1,5,0003-00-0000-48.png,0002-00-0001-33.png
00000014,706,1,1449070726042,1449070726580,902,547,0,0,0,1,0,1,1,0004-00-0001-62.png,0005-00-0001-38.png
00000014,707,1,1449070727791,1449070728421,926,501,0,0,0,4,3,1,7,0001-00-0000-95.png,0002-00-0001-46.png
00000014,708,1,1449070729887,1449070730367,407,481,0,0,0,1,2,1,3,0004-00-0000-34.png,0003-00-0001-22.png
00000014,709,0,1449070731532,1449070731949,396,465,0,0,0,3,2,1,5,0002-00-0000-89.png,0003-00-0001-80.png
00000014,710,1,1449070734936,1449070734956,515,427,0,0,0,3,4,1,7,0002-00-0001-72.png,0001-00-0000-52.png
00000014,711,1,1449070736146,1449070736686,867,565,0,0,0,2,1,1,3,0003-00-0001-43.png,0004-00-0000-19.png
00000014,712,1,1449070737825,1449070738229,390,479,0,0,0,0,1,1,1,0005-00-0000-33.png,0004-00-0001-16.png
00000014,713,0,1449070739447,1449070739934,434,449,0,0,0,3,2,1,5,0002-00-0001-33.png,0003-00-0001-93.png
00000014,714,1,1449070743214,1449070743739,454,443,0,0,0,1,2,1,3,0004-00-0001-63.png,0003-00-0001-02.png
00000014,715,1,1449070744904,1449070745354,895,498,0,0,0,2,1,1,3,0003-00-0000-60.png,0004-00-0000-45.png
00000014,716,0,1449070746582,1449070747018,410,459,0,0,0,4,3,1,7,0001-00-0001-93.png,0002-00-0000-16.png
00000014,717,1,1449070750662,1449070751152,376,412,0,0,0,0,1,1,1,0005-00-0001-92.png,0004-00-0001-44.png
00000014,718,0,1449070752195,1449070752642,897,484,0,0,0,2,3,1,5,0003-00-0000-60.png,0002-00-0001-12.png
00000014,719,1,1449070755708,1449070756178,931,453,0,0,0,1,0,1,1,0004-00-0000-13.png,0005-00-0000-43.png
00000014,720,0,1449070758095,1449070758617,929,494,0,0,0,3,4,1,7,0002-00-0000-73.png,0001-00-0001-68.png
00000014,721,0,1449070761842,1449070762291,427,448,0,0,0,4,3,1,7,0001-00-0000-51.png,0002-00-0000-95.png
00000014,722,0,1449070766100,1449070766574,938,472,0,0,0,2,3,1,5,0003-00-0001-71.png,0002-00-0001-46.png
00000014,723,1,1449070769830,1449070770264,976,410,0,0,0,2,1,1,3,0003-00-0000-29.png,0004-00-0001-49.png
00000014,724,0,1449070771815,1449070772234,925,489,0,0,0,0,1,1,1,0005-00-0000-92.png,0004-00-0000-63.png
00000014,725,0,1449070775145,1449070775577,949,429,0,0,0,1,2,1,3,0004-00-0000-01.png,0003-00-0001-62.png
00000014,726,1,1449070783451,1449070783895,979,442,0,0,0,1,0,1,1,0004-00-0001-09.png,0005-00-0000-30.png
00000014,727,1,1449070784866,1449070785369,895,551,0,0,0,3,2,1,5,0002-00-0000-81.png,0003-00-0001-78.png
00000014,728,0,1449070786407,1449070786902,907,528,0,0,0,3,4,1,7,0002-00-0000-48.png,0001-00-0000-49.png
00000014,729,1,1449070789755,1449070790155,950,432,0,0,0,1,0,1,1,0004-00-0001-01.png,0005-00-0000-16.png
00000014,730,1,1449070791160,1449070791591,453,488,0,0,0,1,2,1,3,0004-00-0000-36.png,0003-00-0001-58.png
00000014,731,1,1449070792628,1449070793079,871,459,0,0,0,3,2,1,5,0002-00-0001-01.png,0003-00-0001-05.png
00000014,732,1,1449070794152,1449070794610,875,487,0,0,0,2,1,1,3,0003-00-0001-66.png,0004-00-0001-95.png
00000014,733,0,1449070795713,1449070796148,883,484,0,0,0,2,3,1,5,0003-00-0000-94.png,0002-00-0001-85.png
00000014,734,1,1449070799102,1449070799632,440,436,0,0,0,3,4,1,7,0002-00-0001-24.png,0001-00-0000-21.png
00000014,735,1,1449070800652,1449070801121,382,476,0,0,0,0,1,1,1,0005-00-0001-32.png,0004-00-0001-64.png
00000014,736,1,1449070802184,1449070802671,898,484,0,0,0,4,3,1,7,0001-00-0001-56.png,0002-00-0001-65.png
00000014,737,1,1449070803753,1449070804208,902,492,0,0,0,3,2,1,5,0002-00-0001-90.png,0003-00-0001-79.png
00000014,738,1,1449070805374,1449070805754,453,514,0,0,0,0,1,1,1,0005-00-0001-99.png,0004-00-0001-35.png
00000014,739,0,1449070806928,1449070807418,895,498,0,0,0,1,2,1,3,0004-00-0001-15.png,0003-00-0000-78.png
00000014,740,1,1449070810392,1449070810958,930,428,0,0,0,2,1,1,3,0003-00-0001-02.png,0004-00-0001-44.png
00000014,741,1,1449070812006,1449070812446,888,502,0,0,0,1,0,1,1,0004-00-0000-92.png,0005-00-0000-70.png
00000014,742,0,1449070813494,1449070813882,453,488,0,0,0,4,3,1,7,0001-00-0000-59.png,0002-00-0000-20.png
00000014,743,0,1449070817460,1449070817940,928,466,0,0,0,2,3,1,5,0003-00-0001-33.png,0002-00-0000-78.png
00000014,744,0,1449070821535,1449070821990,954,418,0,0,0,3,4,1,7,0002-00-0001-46.png,0001-00-0000-93.png
00000014,745,1,1449070824952,1449070825409,395,453,0,0,0,1,2,1,3,0004-00-0000-76.png,0003-00-0000-19.png
00000014,746,1,1449070826424,1449070826867,339,423,0,0,0,0,1,1,1,0005-00-0000-27.png,0004-00-0001-60.png
00000014,747,0,1449070827867,1449070828318,870,472,0,0,0,2,3,1,5,0003-00-0001-03.png,0002-00-0000-68.png
00000014,748,1,1449070831494,1449070831926,874,396,0,0,0,1,0,1,1,0004-00-0000-55.png,0005-00-0000-26.png
00000014,749,0,1449070832945,1449070833355,374,501,0,0,0,3,2,1,5,0002-00-0001-16.png,0003-00-0000-97.png
00000014,750,0,1449070836992,1449070837518,463,535,0,0,0,2,1,1,3,0003-00-0000-11.png,0004-00-0000-68.png
00000014,751,0,1449070841025,1449070841689,944,468,0,0,0,3,4,1,7,0002-00-0001-41.png,0001-00-0000-67.png
00000014,752,1,1449070848671,1449070849064,921,341,0,0,0,4,3,1,7,0001-00-0001-89.png,0002-00-0000-52.png
00000014,753,1,1449070850064,1449070850460,367,435,0,0,0,0,1,1,1,0005-00-0001-70.png,0004-00-0000-22.png
00000014,754,0,1449070851553,1449070852026,908,456,0,0,0,1,2,1,3,0004-00-0000-70.png,0003-00-0000-74.png
00000014,755,1,1449070855263,1449070855732,897,464,0,0,0,1,0,1,1,0004-00-0001-82.png,0005-00-0001-75.png
00000014,756,0,1449070857200,1449070857697,427,488,0,0,0,4,3,1,7,0001-00-0000-86.png,0002-00-0001-75.png
00000014,757,1,1449070864566,1449070865003,946,397,0,0,0,2,1,1,3,0003-00-0000-93.png,0004-00-0001-77.png
00000014,758,0,1449070866796,1449070867386,449,552,0,0,0,3,2,1,5,0002-00-0001-06.png,0003-00-0001-24.png
00000014,759,0,1449070872561,1449070873034,954,442,0,0,0,3,4,1,7,0002-00-0001-44.png,0001-00-0001-67.png
00000014,760,0,1449070877690,1449070878152,946,445,0,0,0,2,3,1,5,0003-00-0001-17.png,0002-00-0000-52.png
00000014,761,1,1449070882182,1449070882618,972,471,0,0,0,3,2,1,5,0002-00-0001-49.png,0003-00-0001-94.png
00000014,762,0,1449070883746,1449070884206,925,516,0,0,0,0,1,1,1,0005-00-0000-01.png,0004-00-0000-73.png
00000014,763,1,1449070888176,1449070888621,908,552,0,0,0,1,0,1,1,0004-00-0001-82.png,0005-00-0000-27.png
00000014,764,1,1449070890829,1449070891280,945,466,0,0,0,2,1,1,3,0003-00-0001-22.png,0004-00-0000-34.png
00000014,765,0,1449070892393,1449070892911,349,421,0,0,0,4,3,1,7,0001-00-0000-05.png,0002-00-0001-93.png
00000014,766,0,1449070896183,1449070896739,939,528,0,0,0,1,2,1,3,0004-00-0000-49.png,0003-00-0000-97.png
00000014,767,0,1449070905320,1449070905791,907,531,0,0,0,2,3,1,5,0003-00-0000-03.png,0002-00-0001-81.png
00000014,768,0,1449070909818,1449070910274,888,395,0,0,0,3,4,1,7,0002-00-0001-55.png,0001-00-0001-09.png
00000014,769,0,1449070914062,1449070914572,423,447,0,0,0,4,3,1,7,0001-00-0001-49.png,0002-00-0001-16.png
00000014,770,0,1449070917965,1449070918396,952,462,0,0,0,2,3,1,5,0003-00-0001-62.png,0002-00-0000-37.png
00000014,771,0,1449070922021,1449070922603,490,464,0,0,0,3,2,1,5,0002-00-0000-00.png,0003-00-0000-53.png
00000014,772,0,1449070927008,1449070927587,956,493,0,0,0,0,1,1,1,0005-00-0000-48.png,0004-00-0000-23.png
00000014,773,0,1449070930763,1449070931266,976,412,0,0,0,1,2,1,3,0004-00-0001-24.png,0003-00-0000-64.png
00000014,774,1,1449070934800,1449070935355,996,415,0,0,0,2,1,1,3,0003-00-0000-47.png,0004-00-0000-24.png
00000014,775,1,1449070936458,1449070937014,933,514,0,0,0,1,0,1,1,0004-00-0001-79.png,0005-00-0001-71.png
00000014,776,0,1449070938140,1449070938637,872,459,0,0,0,3,4,1,7,0002-00-0000-55.png,0001-00-0001-82.png
00000014,777,0,1449070941956,1449070942407,963,450,0,0,0,2,3,1,5,0003-00-0001-65.png,0002-00-0000-97.png
00000014,778,1,1449070945282,1449070945723,939,375,0,0,0,1,0,1,1,0004-00-0001-30.png,0005-00-0001-32.png
00000014,779,0,1449070946742,1449070947197,922,498,0,0,0,1,2,1,3,0004-00-0001-10.png,0003-00-0001-27.png
00000014,780,1,1449070953769,1449070954337,961,547,0,0,0,3,2,1,5,0002-00-0000-44.png,0003-00-0001-69.png
00000014,781,1,1449070955434,1449070955895,939,500,0,0,0,4,3,1,7,0001-00-0001-71.png,0002-00-0000-84.png
00000014,782,0,1449070956895,1449070957369,926,477,0,0,0,3,4,1,7,0002-00-0001-27.png,0001-00-0000-23.png
00000014,783,0,1449070961287,1449070961982,960,479,0,0,0,0,1,1,1,0005-00-0001-81.png,0004-00-0001-96.png
00000014,784,1,1449070969302,1449070969712,976,422,0,0,0,2,1,1,3,0003-00-0000-81.png,0004-00-0001-54.png
00000014,785,1,1449070970763,1449070971235,952,496,0,0,0,1,0,1,1,0004-00-0000-66.png,0005-00-0000-86.png
00000014,786,0,1449070972331,1449070972790,394,522,0,0,0,4,3,1,7,0001-00-0000-46.png,0002-00-0001-37.png
00000014,787,0,1449070976851,1449070977309,931,479,0,0,0,0,1,1,1,0005-00-0001-26.png,0004-00-0001-19.png
00000014,788,0,1449070981553,1449070982067,939,476,0,0,0,2,3,1,5,0003-00-0000-74.png,0002-00-0000-73.png
00000014,789,1,1449070986111,1449070986659,949,456,0,0,0,3,2,1,5,0002-00-0000-30.png,0003-00-0000-33.png
00000014,790,1,1449070988133,1449070988601,961,497,0,0,0,2,1,1,3,0003-00-0000-19.png,0004-00-0000-67.png
00000014,791,0,1449070989625,1449070990033,927,501,0,0,0,3,4,1,7,0002-00-0001-92.png,0001-00-0001-60.png
00000014,792,0,1449070994454,1449070994967,953,462,0,0,0,1,2,1,3,0004-00-0001-99.png,0003-00-0000-90.png
00000014,793,1,1449070998139,1449070998753,932,488,0,0,0,1,0,1,1,0004-00-0000-79.png,0005-00-0000-20.png
00000014,794,0,1449070999654,1449071000061,929,453,0,0,0,2,3,1,5,0003-00-0000-46.png,0002-00-0000-13.png
00000014,795,0,1449071003915,1449071004385,951,462,0,0,0,3,4,1,7,0002-00-0001-90.png,0001-00-0000-36.png
00000014,796,0,1449071011200,1449071011235,459,382,0,0,0,3,2,1,5,0002-00-0001-27.png,0003-00-0001-71.png
00000014,797,0,1449071014715,1449071015239,440,463,0,0,0,4,3,1,7,0001-00-0001-79.png,0002-00-0001-36.png
00000014,798,0,1449071018959,1449071019453,939,450,0,0,0,1,2,1,3,0004-00-0001-84.png,0003-00-0001-04.png
00000014,799,1,1449071026238,1449071026646,997,397,0,0,0,2,1,1,3,0003-00-0000-56.png,0004-00-0001-82.png
00000014,800,0,1449071027742,1449071028544,912,463,0,0,0,0,1,1,1,0005-00-0001-89.png,0004-00-0000-23.png
00000014,801,0,1449071032141,1449071032569,993,455,0,0,0,1,2,1,3,0004-00-0001-70.png,0003-00-0001-35.png
00000014,802,0,1449071036098,1449071036539,394,424,0,0,0,3,2,1,5,0002-00-0001-19.png,0003-00-0001-53.png
00000014,803,1,1449071041286,1449071041810,981,402,0,0,0,4,3,1,7,0001-00-0000-61.png,0002-00-0001-84.png
00000014,804,1,1449071042935,1449071043379,903,496,0,0,0,1,0,1,1,0004-00-0001-90.png,0005-00-0000-65.png
00000014,805,0,1449071044391,1449071044879,898,459,0,0,0,0,1,1,1,0005-00-0000-33.png,0004-00-0001-75.png
00000014,806,0,1449071049102,1449071049601,922,514,0,0,0,2,3,1,5,0003-00-0001-13.png,0002-00-0000-03.png
00000014,807,0,1449071055945,1449071056528,436,426,0,0,0,2,1,1,3,0003-00-0001-07.png,0004-00-0000-71.png
00000014,808,1,1449071063150,1449071064221,453,358,0,0,0,3,4,1,7,0002-00-0001-12.png,0001-00-0001-89.png
00000014,809,0,1449071065390,1449071065979,424,419,0,0,0,4,3,1,7,0001-00-0001-87.png,0002-00-0000-69.png
00000014,810,0,1449071072769,1449071073256,929,472,0,0,0,2,3,1,5,0003-00-0000-38.png,0002-00-0001-14.png
00000014,811,0,1449071077544,1449071078033,400,458,0,0,0,3,2,1,5,0002-00-0001-50.png,0003-00-0000-06.png
00000014,812,0,1449071081242,1449071081928,981,453,0,0,0,0,1,1,1,0005-00-0001-62.png,0004-00-0000-04.png
00000014,813,1,1449071085674,1449071086195,952,470,0,0,0,2,1,1,3,0003-00-0000-49.png,0004-00-0001-31.png
00000014,814,0,1449071087262,1449071087732,900,501,0,0,0,1,2,1,3,0004-00-0001-96.png,0003-00-0001-48.png
00000014,815,0,1449071094341,1449071094729,971,451,0,0,0,3,4,1,7,0002-00-0001-16.png,0001-00-0001-36.png
00000014,816,1,1449071097920,1449071098405,975,456,0,0,0,1,0,1,1,0004-00-0000-26.png,0005-00-0000-40.png
00000014,817,1,1449071099568,1449071100111,949,484,0,0,0,4,3,1,7,0001-00-0001-91.png,0002-00-0001-83.png
00000014,818,0,1449071101170,1449071101692,903,481,0,0,0,1,2,1,3,0004-00-0001-12.png,0003-00-0001-24.png
00000014,819,0,1449071105790,1449071106247,953,442,0,0,0,0,1,1,1,0005-00-0001-66.png,0004-00-0000-38.png
00000014,820,1,1449071110931,1449071111383,940,474,0,0,0,2,1,1,3,0003-00-0001-45.png,0004-00-0000-16.png
00000014,821,1,1449071112466,1449071112897,939,476,0,0,0,1,0,1,1,0004-00-0000-04.png,0005-00-0001-08.png
00000014,822,0,1449071113969,1449071114383,898,483,0,0,0,2,3,1,5,0003-00-0000-56.png,0002-00-0000-81.png
00000014,823,1,1449071117738,1449071118276,925,462,0,0,0,3,2,1,5,0002-00-0000-05.png,0003-00-0000-03.png
00000014,824,0,1449071119314,1449071119779,913,488,0,0,0,3,4,1,7,0002-00-0000-17.png,0001-00-0000-60.png
00000014,825,0,1449071125259,1449071125742,949,481,0,0,0,1,2,1,3,0004-00-0001-00.png,0003-00-0001-16.png
00000014,826,0,1449071129591,1449071130035,943,478,0,0,0,0,1,1,1,0005-00-0001-59.png,0004-00-0000-05.png
00000014,827,0,1449071133561,1449071134052,1015,423,0,0,0,2,3,1,5,0003-00-0001-26.png,0002-00-0000-65.png
00000014,828,0,1449071137804,1449071138340,987,465,0,0,0,3,4,1,7,0002-00-0000-32.png,0001-00-0000-73.png
00000014,829,1,1449071141968,1449071142400,950,458,0,0,0,3,2,1,5,0002-00-0001-55.png,0003-00-0000-92.png
00000014,830,1,1449071143469,1449071143945,900,490,0,0,0,4,3,1,7,0001-00-0000-30.png,0002-00-0001-21.png
00000014,831,1,1449071145539,1449071145989,889,553,0,0,0,2,1,1,3,0003-00-0001-30.png,0004-00-0001-97.png
00000014,832,1,1449071147067,1449071147573,947,497,0,0,0,1,0,1,1,0004-00-0001-07.png,0005-00-0001-97.png
00000014,833,0,1449071148648,1449071149099,926,475,0,0,0,0,1,1,1,0005-00-0000-91.png,0004-00-0000-56.png
00000014,834,0,1449071158971,1449071159340,1003,449,0,0,0,2,3,1,5,0003-00-0001-34.png,0002-00-0001-49.png
00000014,835,1,1449071163015,1449071163562,951,448,0,0,0,3,2,1,5,0002-00-0000-74.png,0003-00-0001-97.png
00000014,836,0,1449071164681,1449071165119,411,483,0,0,0,4,3,1,7,0001-00-0001-13.png,0002-00-0001-46.png
00000014,837,0,1449071168557,1449071168989,947,471,0,0,0,1,2,1,3,0004-00-0001-75.png,0003-00-0000-73.png
00000014,838,1,1449071172441,1449071172924,975,478,0,0,0,2,1,1,3,0003-00-0000-63.png,0004-00-0001-54.png
00000014,839,0,1449071174665,1449071175134,950,512,0,0,0,3,4,1,7,0002-00-0000-21.png,0001-00-0000-04.png
00000014,840,1,1449071180024,1449071180415,952,502,0,0,0,1,0,1,1,0004-00-0001-61.png,0005-00-0001-14.png
00000014,841,0,1449071181465,1449071181872,914,485,0,0,0,0,1,1,1,0005-00-0000-01.png,0004-00-0001-22.png
00000014,842,1,1449071185880,1449071186387,953,494,0,0,0,2,1,1,3,0003-00-0001-10.png,0004-00-0000-04.png
00000014,843,0,1449071187459,1449071187933,915,501,0,0,0,1,2,1,3,0004-00-0001-26.png,0003-00-0000-66.png
00000014,844,0,1449071196774,1449071197296,445,524,0,0,0,4,3,1,7,0001-00-0000-64.png,0002-00-0001-23.png
00000014,845,0,1449071200576,1449071201019,974,456,0,0,0,2,3,1,5,0003-00-0001-49.png,0002-00-0000-63.png
00000014,846,0,1449071212823,1449071213890,417,398,0,0,0,1,0,1,1,0004-00-0001-99.png,0005-00-0001-39.png
00000014,847,0,1449071217316,1449071217834,394,447,0,0,0,3,2,1,5,0002-00-0000-00.png,0003-00-0000-10.png
00000014,848,0,1449071221293,1449071221744,961,500,0,0,0,3,4,1,7,0002-00-0001-62.png,0001-00-0001-02.png
00000014,849,0,1449071225309,1449071225782,928,493,0,0,0,2,3,1,5,0003-00-0000-44.png,0002-00-0001-93.png
00000014,850,1,1449071229150,1449071229601,952,449,0,0,0,2,1,1,3,0003-00-0000-33.png,0004-00-0001-74.png
00000014,851,1,1449071230763,1449071231435,951,489,0,0,0,3,2,1,5,0002-00-0000-89.png,0003-00-0001-35.png
00000014,852,0,1449071232582,1449071232958,393,461,0,0,0,4,3,1,7,0001-00-0000-40.png,0002-00-0000-61.png
00000014,853,1,1449071236178,1449071236882,480,387,0,0,0,0,1,1,1,0005-00-0000-00.png,0004-00-0000-61.png
00000014,854,0,1449071237988,1449071238446,924,485,0,0,0,1,2,1,3,0004-00-0000-86.png,0003-00-0001-44.png
00000014,855,1,1449071241720,1449071241836,518,499,0,0,0,3,4,1,7,0002-00-0000-47.png,0001-00-0000-73.png
00000014,856,1,1449071243361,1449071243828,925,463,0,0,0,1,0,1,1,0004-00-0000-93.png,0005-00-0001-64.png
00000014,857,0,1449071244915,1449071245349,376,480,0,0,0,3,2,1,5,0002-00-0000-67.png,0003-00-0001-51.png
00000014,858,0,1449071248500,1449071249052,949,462,0,0,0,1,2,1,3,0004-00-0000-44.png,0003-00-0001-97.png
00000014,859,0,1449071252554,1449071252993,952,450,0,0,0,3,4,1,7,0002-00-0000-01.png,0001-00-0001-76.png
00000014,860,1,1449071256109,1449071256620,940,527,0,0,0,2,1,1,3,0003-00-0000-57.png,0004-00-0001-59.png
00000014,861,0,1449071257657,1449071258069,900,488,0,0,0,2,3,1,5,0003-00-0001-82.png,0002-00-0001-87.png
00000014,862,0,1449071261360,1449071261798,927,475,0,0,0,0,1,1,1,0005-00-0001-74.png,0004-00-0001-95.png
00000014,863,1,1449071264934,1449071265421,964,450,0,0,0,1,0,1,1,0004-00-0001-30.png,0005-00-0001-64.png
00000014,864,0,1449071266568,1449071266992,405,548,0,0,0,4,3,1,7,0001-00-0000-72.png,0002-00-0001-30.png
00000014,865,1,1449071270121,1449071270586,927,462,0,0,0,2,1,1,3,0003-00-0001-13.png,0004-00-0001-97.png
00000014,866,0,1449071272041,1449071272566,907,474,0,0,0,1,2,1,3,0004-00-0000-48.png,0003-00-0000-94.png
00000014,867,1,1449071275930,1449071276408,939,475,0,0,0,1,0,1,1,0004-00-0001-84.png,0005-00-0001-69.png
00000014,868,1,1449071277441,1449071277962,901,488,0,0,0,4,3,1,7,0001-00-0000-24.png,0002-00-0001-40.png
00000014,869,0,1449071279120,1449071279636,891,490,0,0,0,2,3,1,5,0003-00-0000-10.png,0002-00-0001-61.png
00000014,870,0,1449071282886,1449071283419,944,477,0,0,0,3,4,1,7,0002-00-0001-57.png,0001-00-0000-90.png
00000014,871,1,1449071286721,1449071287357,931,442,0,0,0,3,2,1,5,0002-00-0000-59.png,0003-00-0000-32.png
00000014,872,1,1449071288373,1449071288932,400,393,0,0,0,0,1,1,1,0005-00-0001-12.png,0004-00-0000-18.png
00000014,873,0,1449071290062,1449071290539,914,501,0,0,0,3,4,1,7,0002-00-0000-41.png,0001-00-0001-90.png
00000014,874,1,1449071293873,1449071294423,950,487,0,0,0,1,0,1,1,0004-00-0000-54.png,0005-00-0000-28.png
00000014,875,0,1449071295527,1449071295962,899,484,0,0,0,2,3,1,5,0003-00-0001-39.png,0002-00-0000-33.png
00000014,876,0,1449071299635,1449071300257,391,383,0,0,0,4,3,1,7,0001-00-0001-15.png,0002-00-0000-34.png
00000014,877,1,1449071303591,1449071304092,896,524,0,0,0,2,1,1,3,0003-00-0000-63.png,0004-00-0000-46.png
00000014,878,1,1449071305124,1449071305652,376,436,0,0,0,0,1,1,1,0005-00-0000-37.png,0004-00-0001-51.png
00000014,879,0,1449071306899,1449071307864,388,396,0,0,0,3,2,1,5,0002-00-0001-70.png,0003-00-0000-74.png
00000014,880,0,1449071311224,1449071311806,938,476,0,0,0,1,2,1,3,0004-00-0001-07.png,0003-00-0001-82.png
00000014,881,0,1449071315338,1449071315796,944,451,0,0,0,3,4,1,7,0002-00-0001-00.png,0001-00-0001-42.png
00000014,882,1,1449071319178,1449071319696,893,451,0,0,0,4,3,1,7,0001-00-0001-87.png,0002-00-0001-48.png
00000014,883,0,1449071320793,1449071321298,906,458,0,0,0,1,2,1,3,0004-00-0001-26.png,0003-00-0001-04.png
00000014,884,1,1449071325017,1449071325530,928,410,0,0,0,2,1,1,3,0003-00-0000-78.png,0004-00-0001-60.png
00000014,885,1,1449071326731,1449071327271,927,476,0,0,0,1,0,1,1,0004-00-0001-52.png,0005-00-0000-29.png
00000014,886,0,1449071328371,1449071328753,435,486,0,0,0,3,2,1,5,0002-00-0000-52.png,0003-00-0000-07.png
00000014,887,1,1449071332040,1449071332610,415,401,0,0,0,0,1,1,1,0005-00-0001-58.png,0004-00-0000-60.png
00000014,888,0,1449071333694,1449071334171,899,483,0,0,0,2,3,1,5,0003-00-0001-20.png,0002-00-0000-87.png
00000014,889,0,1449071337325,1449071337944,449,417,0,0,0,4,3,1,7,0001-00-0000-83.png,0002-00-0000-75.png
00000014,890,0,1449071341247,1449071341730,953,468,0,0,0,3,4,1,7,0002-00-0001-28.png,0001-00-0001-93.png
00000014,891,1,1449071345135,1449071345585,902,548,0,0,0,1,0,1,1,0004-00-0000-65.png,0005-00-0001-57.png
00000014,892,1,1449071346783,1449071347314,427,488,0,0,0,0,1,1,1,0005-00-0000-63.png,0004-00-0001-93.png
00000014,893,1,1449071348389,1449071348814,895,497,0,0,0,3,2,1,5,0002-00-0001-14.png,0003-00-0000-08.png
00000014,894,0,1449071350274,1449071350724,893,496,0,0,0,2,3,1,5,0003-00-0001-79.png,0002-00-0001-63.png
00000014,895,1,1449071354048,1449071354663,413,422,0,0,0,1,2,1,3,0004-00-0000-79.png,0003-00-0000-59.png
00000014,896,1,1449071355848,1449071356302,900,488,0,0,0,2,1,1,3,0003-00-0001-96.png,0004-00-0001-92.png
00000014,897,1,1449071357894,1449071358336,899,483,0,0,0,1,0,1,1,0004-00-0001-83.png,0005-00-0000-17.png
00000014,898,0,1449071359505,1449071359930,899,488,0,0,0,3,4,1,7,0002-00-0001-65.png,0001-00-0001-99.png
00000014,899,0,1449071363754,1449071364344,422,399,0,0,0,3,2,1,5,0002-00-0000-14.png,0003-00-0000-06.png
00000014,900,1,1449071367704,1449071368284,415,422,0,0,0,0,1,1,1,0005-00-0000-42.png,0004-00-0000-17.png
00000014,901,1,1449071369468,1449071369948,895,498,0,0,0,2,1,1,3,0003-00-0001-93.png,0004-00-0001-93.png
00000014,902,0,1449071371105,1449071372137,921,449,0,0,0,2,3,1,5,0003-00-0000-70.png,0002-00-0000-39.png
00000014,903,0,1449071375394,1449071375890,442,418,0,0,0,4,3,1,7,0001-00-0000-64.png,0002-00-0001-32.png
00000014,904,0,1449071379036,1449071379740,952,449,0,0,0,1,2,1,3,0004-00-0001-92.png,0003-00-0001-22.png
00000014,905,1,1449071383361,1449071383895,444,402,0,0,0,0,1,1,1,0005-00-0000-83.png,0004-00-0001-76.png
00000014,906,1,1449071385152,1449071385674,900,501,0,0,0,1,0,1,1,0004-00-0001-23.png,0005-00-0001-63.png
00000014,907,0,1449071386827,1449071387218,367,455,0,0,0,4,3,1,7,0001-00-0001-06.png,0002-00-0001-41.png
00000014,908,0,1449071390396,1449071390996,363,449,0,0,0,2,1,1,3,0003-00-0000-01.png,0004-00-0001-89.png
00000014,909,0,1449071394404,1449071394842,972,445,0,0,0,3,4,1,7,0002-00-0001-13.png,0001-00-0001-55.png
00000014,910,0,1449071398250,1449071398771,951,476,0,0,0,1,2,1,3,0004-00-0000-26.png,0003-00-0001-54.png
00000014,911,1,1449071402306,1449071402412,521,522,0,0,0,2,3,1,5,0003-00-0000-08.png,0002-00-0001-78.png
00000014,912,1,1449071404177,1449071404675,926,463,0,0,0,3,2,1,5,0002-00-0000-66.png,0003-00-0000-85.png
00000014,913,0,1449071406623,1449071407177,390,463,0,0,0,3,2,1,5,0002-00-0001-54.png,0003-00-0000-38.png
00000014,914,0,1449071410462,1449071410893,948,470,0,0,0,2,3,1,5,0003-00-0000-60.png,0002-00-0000-50.png
00000014,915,0,1449071413990,1449071414448,977,423,0,0,0,1,2,1,3,0004-00-0000-61.png,0003-00-0001-74.png
00000014,916,0,1449071417902,1449071418452,382,411,0,0,0,4,3,1,7,0001-00-0001-76.png,0002-00-0001-80.png
00000014,917,1,1449071421743,1449071422479,1004,417,0,0,0,2,1,1,3,0003-00-0001-26.png,0004-00-0001-86.png
00000014,918,0,1449071423693,1449071424167,944,472,0,0,0,3,4,1,7,0002-00-0001-34.png,0001-00-0001-56.png
00000014,919,1,1449071427744,1449071428229,951,463,0,0,0,1,0,1,1,0004-00-0001-93.png,0005-00-0000-23.png
00000014,920,1,1449071429412,1449071429927,449,560,0,0,0,0,1,1,1,0005-00-0000-05.png,0004-00-0001-15.png
00000014,921,0,1449071431066,1449071431526,927,501,0,0,0,3,4,1,7,0002-00-0001-92.png,0001-00-0001-25.png
00000014,922,1,1449071434681,1449071435217,893,440,0,0,0,1,0,1,1,0004-00-0001-91.png,0005-00-0000-25.png
00000014,923,0,1449071436333,1449071436882,903,492,0,0,0,0,1,1,1,0005-00-0000-68.png,0004-00-0000-73.png
00000014,924,0,1449071440149,1449071440805,895,555,0,0,0,1,2,1,3,0004-00-0000-29.png,0003-00-0000-04.png
00000014,925,0,1449071444320,1449071445023,390,361,0,0,0,4,3,1,7,0001-00-0001-73.png,0002-00-0000-72.png
00000014,926,0,1449071448388,1449071448904,969,451,0,0,0,2,3,1,5,0003-00-0000-64.png,0002-00-0000-82.png
00000014,927,1,1449071452076,1449071452567,972,468,0,0,0,2,1,1,3,0003-00-0000-03.png,0004-00-0001-96.png
00000014,928,1,1449071453727,1449071454301,925,501,0,0,0,3,2,1,5,0002-00-0001-33.png,0003-00-0000-03.png
00000014,929,0,1449071455435,1449071455939,908,496,0,0,0,3,4,1,7,0002-00-0001-45.png,0001-00-0001-41.png
00000014,930,0,1449071459299,1449071459790,952,475,0,0,0,0,1,1,1,0005-00-0000-79.png,0004-00-0001-73.png
00000014,931,1,1449071462699,1449071463358,421,442,0,0,0,2,3,1,5,0003-00-0001-72.png,0002-00-0001-40.png
00000014,932,1,1449071464487,1449071464973,874,516,0,0,0,1,0,1,1,0004-00-0000-81.png,0005-00-0001-09.png
00000014,933,1,1449071466277,1449071466761,866,526,0,0,0,2,1,1,3,0003-00-0000-21.png,0004-00-0000-81.png
00000014,934,1,1449071467948,1449071468474,902,495,0,0,0,4,3,1,7,0001-00-0001-72.png,0002-00-0000-82.png
00000014,935,0,1449071470143,1449071470636,446,442,0,0,0,3,2,1,5,0002-00-0001-50.png,0003-00-0001-02.png
00000014,936,0,1449071476368,1449071476792,965,449,0,0,0,1,2,1,3,0004-00-0001-23.png,0003-00-0001-19.png
00000014,937,1,1449071480488,1449071482333,478,410,0,0,0,2,3,1,5,0003-00-0000-63.png,0002-00-0001-48.png
00000014,938,0,1449071483654,1449071484715,376,422,0,0,0,3,2,1,5,0002-00-0000-72.png,0003-00-0000-70.png
00000014,939,1,1449071487828,1449071488388,420,430,0,0,0,3,4,1,7,0002-00-0000-22.png,0001-00-0001-06.png
00000014,940,0,1449071489361,1449071489878,370,423,0,0,0,4,3,1,7,0001-00-0001-47.png,0002-00-0001-72.png
00000014,941,0,1449071492740,1449071493137,963,398,0,0,0,0,1,1,1,0005-00-0000-30.png,0004-00-0001-66.png
00000014,942,1,1449071496193,1449071496649,955,493,0,0,0,2,1,1,3,0003-00-0001-11.png,0004-00-0001-41.png
00000014,943,1,1449071497634,1449071498090,903,467,0,0,0,1,0,1,1,0004-00-0000-04.png,0005-00-0001-98.png
00000014,944,1,1449071499102,1449071499580,426,473,0,0,0,1,2,1,3,0004-00-0001-76.png,0003-00-0000-13.png
00000014,945,0,1449071500867,1449071501317,343,497,0,0,0,4,3,1,7,0001-00-0000-38.png,0002-00-0001-87.png
00000014,946,0,1449071504438,1449071504922,874,461,0,0,0,2,3,1,5,0003-00-0001-34.png,0002-00-0000-42.png
00000014,947,0,1449071507869,1449071508299,944,451,0,0,0,1,2,1,3,0004-00-0001-84.png,0003-00-0000-98.png
00000014,948,1,1449071512003,1449071512538,342,401,0,0,0,0,1,1,1,0005-00-0001-11.png,0004-00-0000-35.png
00000014,949,1,1449071513600,1449071514012,874,483,0,0,0,2,1,1,3,0003-00-0000-08.png,0004-00-0000-50.png
00000014,950,1,1449071515163,1449071515549,400,497,0,0,0,3,4,1,7,0002-00-0000-84.png,0001-00-0001-77.png
00000014,951,1,1449071516657,1449071517077,875,502,0,0,0,1,0,1,1,0004-00-0000-08.png,0005-00-0000-58.png
