subject_id,trial,correct_response,stim_time,response_time,x_coord,y_coord,trial_timeout,timeout_time,interTrial_timeout,left_rank,right_rank,distance,joint_rank,left_image,right_image
00000014,1,1,1449759499819,1449759500671,369,385,0,0,0,0,1,1,1,0005-00-0000-34.png,0004-00-0000-29.png
00000014,2,0,1449759501886,1449759503059,444,562,0,0,0,3,2,1,5,0002-00-0001-57.png,0003-00-0000-14.png
00000014,3,1,1449759506237,1449759506607,978,414,0,0,0,2,1,1,3,0003-00-0001-90.png,0004-00-0000-98.png
00000014,4,0,1449759507560,1449759508086,902,410,0,0,0,2,3,1,5,0003-00-0000-69.png,0002-00-0000-60.png
00000014,5,1,1449759511268,1449759511740,895,471,0,0,0,1,0,1,1,0004-00-0001-13.png,0005-00-0000-86.png
00000014,6,1,1449759512619,1449759513130,333,425,0,0,0,1,2,1,3,0004-00-0001-39.png,0003-00-0000-30.png
00000014,7,0,1449759514010,1449759514565,329,407,0,0,0,4,3,1,7,0001-00-0000-67.png,0002-00-0000-74.png
00000014,8,0,1449759517678,1449759518105,975,410,0,0,0,3,4,1,7,0002-00-0001-32.png,0001-00-0001-54.png
00000014,9,1,1449759521215,1449759521669,972,438,0,0,0,2,1,1,3,0003-00-0001-08.png,0004-00-0000-39.png
00000014,10,0,1449759522627,1449759523290,901,476,0,0,0,3,4,1,7,0002-00-0001-11.png,0001-00-0000-45.png
00000014,11,1,1449759526902,1449759527315,970,436,0,0,0,3,2,1,5,0002-00-0001-79.png,0003-00-0000-85.png
00000014,12,0,1449759528448,1449759528989,919,465,0,0,0,1,2,1,3,0004-00-0000-28.png,0003-00-0000-53.png
00000014,13,0,1449759532708,1449759533110,1002,449,0,0,0,2,3,1,5,0003-00-0001-17.png,0002-00-0000-92.png
00000014,14,1,1449759536581,1449759536996,947,525,0,0,0,1,0,1,1,0004-00-0000-49.png,0005-00-0000-06.png
00000014,15,1,1449759538039,1449759538552,384,427,0,0,0,0,1,1,1,0005-00-0001-60.png,0004-00-0000-77.png
00000014,16,0,1449759539741,1449759540163,354,440,0,0,0,4,3,1,7,0001-00-0000-25.png,0002-00-0001-03.png
00000014,17,1,1449759543510,1449759543900,950,404,0,0,0,1,0,1,1,0004-00-0001-40.png,0005-00-0001-85.png
00000014,18,0,1449759545022,1449759545485,407,473,0,0,0,4,3,1,7,0001-00-0001-30.png,0002-00-0001-58.png
00000014,19,0,1449759548488,1449759548932,927,435,0,0,0,3,4,1,7,0002-00-0001-67.png,0001-00-0001-82.png
00000014,20,0,1449759552006,1449759552460,958,420,0,0,0,1,2,1,3,0004-00-0001-78.png,0003-00-0001-68.png
00000014,21,1,1449759555475,1449759555900,969,415,0,0,0,2,1,1,3,0003-00-0000-12.png,0004-00-0001-50.png
00000014,22,1,1449759556876,1449759557434,348,438,0,0,0,0,1,1,1,0005-00-0000-59.png,0004-00-0000-08.png
00000014,23,1,1449759558507,1449759559230,888,463,0,0,0,3,2,1,5,0002-00-0000-28.png,0003-00-0000-70.png
00000014,24,0,1449759560336,1449759560954,878,467,0,0,0,2,3,1,5,0003-00-0001-07.png,0002-00-0001-19.png
00000014,25,0,1449759564031,1449759564431,900,397,0,0,0,0,1,1,1,0005-00-0001-61.png,0004-00-0000-03.png
00000014,26,0,1449759567303,1449759567704,982,344,0,0,0,1,2,1,3,0004-00-0000-85.png,0003-00-0001-13.png
00000014,27,1,1449759570871,1449759571334,974,405,0,0,0,2,1,1,3,0003-00-0000-56.png,0004-00-0001-88.png
00000014,28,1,1449759572939,1449759573937,413,529,0,0,0,3,4,1,7,0002-00-0001-04.png,0001-00-0000-16.png
00000014,29,0,1449759574972,1449759575600,878,480,0,0,0,2,3,1,5,0003-00-0000-08.png,0002-00-0000-88.png
00000014,30,1,1449759579220,1449759579641,925,527,0,0,0,3,2,1,5,0002-00-0000-80.png,0003-00-0000-28.png
00000014,31,1,1449759580677,1449759581290,897,456,0,0,0,1,0,1,1,0004-00-0000-80.png,0005-00-0001-87.png
00000014,32,1,1449759582279,1449759582934,894,473,0,0,0,4,3,1,7,0001-00-0001-27.png,0002-00-0001-93.png
00000014,33,0,1449759584020,1449759584611,892,438,0,0,0,2,3,1,5,0003-00-0000-98.png,0002-00-0000-91.png
00000014,34,0,1449759587718,1449759588101,954,390,0,0,0,3,4,1,7,0002-00-0001-26.png,0001-00-0000-41.png
00000014,35,1,1449759591305,1449759591737,969,412,0,0,0,1,0,1,1,0004-00-0001-55.png,0005-00-0000-79.png
00000014,36,1,1449759592825,1449759593391,400,470,0,0,0,1,2,1,3,0004-00-0001-25.png,0003-00-0001-26.png
00000014,37,0,1449759594576,1449759595148,386,460,0,0,0,4,3,1,7,0001-00-0000-17.png,0002-00-0000-07.png
00000014,38,1,1449759598213,1449759598639,982,428,0,0,0,3,2,1,5,0002-00-0000-30.png,0003-00-0000-74.png
00000014,39,1,1449759599624,1449759600087,420,453,0,0,0,0,1,1,1,0005-00-0001-85.png,0004-00-0001-72.png
00000014,40,0,1449759601266,1449759602257,376,422,0,0,0,2,1,1,3,0003-00-0001-89.png,0004-00-0001-20.png
00000014,41,1,1449759605498,1449759605899,895,524,0,0,0,1,0,1,1,0004-00-0000-30.png,0005-00-0001-34.png
00000014,42,1,1449759606880,1449759607770,326,430,0,0,0,1,2,1,3,0004-00-0001-06.png,0003-00-0001-57.png
00000014,43,0,1449759608895,1449759609529,912,450,0,0,0,2,3,1,5,0003-00-0001-48.png,0002-00-0001-41.png
00000014,44,0,1449759612625,1449759613057,951,438,0,0,0,3,4,1,7,0002-00-0000-66.png,0001-00-0001-06.png
00000014,45,0,1449759616072,1449759616511,900,528,0,0,0,0,1,1,1,0005-00-0000-11.png,0004-00-0000-35.png
00000014,46,1,1449759619861,1449759620328,899,501,0,0,0,3,2,1,5,0002-00-0000-61.png,0003-00-0001-11.png
00000014,47,0,1449759621743,1449759622282,337,410,0,0,0,4,3,1,7,0001-00-0001-08.png,0002-00-0001-23.png
00000014,48,1,1449759625146,1449759625589,926,436,0,0,0,2,1,1,3,0003-00-0000-04.png,0004-00-0000-49.png
00000014,49,0,1449759626629,1449759627173,877,441,0,0,0,2,3,1,5,0003-00-0000-04.png,0002-00-0000-70.png
00000014,50,1,1449759630589,1449759631011,880,403,0,0,0,2,1,1,3,0003-00-0000-73.png,0004-00-0001-57.png
00000014,51,1,1449759631973,1449759632459,385,453,0,0,0,0,1,1,1,0005-00-0001-22.png,0004-00-0001-53.png
00000014,52,0,1449759633612,1449759634051,357,450,0,0,0,4,3,1,7,0001-00-0001-55.png,0002-00-0000-50.png
00000014,53,0,1449759639013,1449759639412,925,422,0,0,0,1,2,1,3,0004-00-0000-03.png,0003-00-0001-36.png
00000014,54,0,1449759642560,1449759642937,914,496,0,0,0,3,4,1,7,0002-00-0001-72.png,0001-00-0000-17.png
00000014,55,1,1449759647152,1449759647577,897,392,0,0,0,1,0,1,1,0004-00-0001-28.png,0005-00-0001-50.png
00000014,56,1,1449759648542,1449759649115,874,437,0,0,0,3,2,1,5,0002-00-0001-38.png,0003-00-0001-99.png
00000014,57,0,1449759650163,1449759650788,868,550,0,0,0,2,3,1,5,0003-00-0001-16.png,0002-00-0000-69.png
00000014,58,1,1449759653671,1449759654093,977,423,0,0,0,2,1,1,3,0003-00-0000-88.png,0004-00-0001-20.png
00000014,59,1,1449759655137,1449759655732,878,468,0,0,0,3,2,1,5,0002-00-0001-19.png,0003-00-0000-88.png
00000014,60,0,1449759656852,1449759657286,390,476,0,0,0,4,3,1,7,0001-00-0000-10.png,0002-00-0001-25.png
00000014,61,1,1449759661155,1449759661171,504,475,0,0,0,1,2,1,3,0004-00-0001-02.png,0003-00-0000-61.png
00000014,62,1,1449759662170,1449759662653,376,436,0,0,0,0,1,1,1,0005-00-0000-08.png,0004-00-0000-28.png
00000014,63,1,1449759663649,1449759664292,900,462,0,0,0,1,0,1,1,0004-00-0000-24.png,0005-00-0000-13.png
00000014,64,1,1449759665379,1449759665825,377,448,0,0,0,3,4,1,7,0002-00-0000-39.png,0001-00-0000-92.png
00000014,65,1,1449759667438,1449759667926,338,420,0,0,0,0,1,1,1,0005-00-0001-23.png,0004-00-0000-73.png
00000014,66,0,1449759668967,1449759669410,359,465,0,0,0,4,3,1,7,0001-00-0000-06.png,0002-00-0000-83.png
00000014,67,1,1449759672326,1449759672814,890,543,0,0,0,1,0,1,1,0004-00-0000-37.png,0005-00-0000-59.png
00000014,68,0,1449759673827,1449759674467,867,455,0,0,0,2,3,1,5,0003-00-0000-75.png,0002-00-0001-49.png
00000014,69,1,1449759677852,1449759678351,951,463,0,0,0,3,2,1,5,0002-00-0000-55.png,0003-00-0000-96.png
00000014,70,1,1449759679334,1449759680402,937,450,0,0,0,2,1,1,3,0003-00-0000-49.png,0004-00-0001-79.png
00000014,71,1,1449759681388,1449759681829,401,462,0,0,0,1,2,1,3,0004-00-0001-82.png,0003-00-0001-49.png
00000014,72,0,1449759682891,1449759683609,882,468,0,0,0,3,4,1,7,0002-00-0001-97.png,0001-00-0001-51.png
00000014,73,1,1449759686478,1449759686961,424,380,0,0,0,1,2,1,3,0004-00-0001-21.png,0003-00-0000-22.png
00000014,74,1,1449759687951,1449759688483,914,449,0,0,0,1,0,1,1,0004-00-0001-64.png,0005-00-0001-33.png
00000014,75,0,1449759689581,1449759690664,901,462,0,0,0,2,3,1,5,0003-00-0000-69.png,0002-00-0001-37.png
00000014,76,1,1449759693893,1449759694270,928,467,0,0,0,4,3,1,7,0001-00-0001-22.png,0002-00-0000-09.png
00000014,77,1,1449759695222,1449759695700,299,449,0,0,0,0,1,1,1,0005-00-0000-93.png,0004-00-0001-85.png
00000014,78,0,1449759696836,1449759697330,325,449,0,0,0,3,2,1,5,0002-00-0000-76.png,0003-00-0001-10.png
00000014,79,1,1449759701069,1449759701510,952,424,0,0,0,2,1,1,3,0003-00-0001-89.png,0004-00-0000-24.png
00000014,80,0,1449759702448,1449759703016,880,479,0,0,0,3,4,1,7,0002-00-0000-20.png,0001-00-0001-23.png
00000014,81,0,1449759705940,1449759706365,873,507,0,0,0,3,4,1,7,0002-00-0001-82.png,0001-00-0000-23.png
00000014,82,0,1449759709213,1449759709512,478,384,0,0,0,4,3,1,7,0001-00-0000-34.png,0002-00-0001-87.png
00000014,83,0,1449759712447,1449759712883,951,436,0,0,0,1,2,1,3,0004-00-0000-32.png,0003-00-0001-74.png
00000014,84,0,1449759716005,1449759716856,392,387,0,0,0,2,1,1,3,0003-00-0000-66.png,0004-00-0001-43.png
00000014,85,1,1449759719892,1449759719908,461,448,0,0,0,0,1,1,1,0005-00-0001-27.png,0004-00-0000-24.png
00000014,86,0,1449759720866,1449759721470,888,450,0,0,0,2,3,1,5,0003-00-0000-93.png,0002-00-0000-85.png
00000014,87,1,1449759724562,1449759724976,939,423,0,0,0,1,0,1,1,0004-00-0001-12.png,0005-00-0000-51.png
00000014,88,1,1449759726004,1449759726587,862,398,0,0,0,3,2,1,5,0002-00-0000-41.png,0003-00-0001-68.png
00000014,89,0,1449759727724,1449759728144,427,448,0,0,0,4,3,1,7,0001-00-0001-08.png,0002-00-0001-14.png
00000014,90,1,1449759731044,1449759731688,924,429,0,0,0,2,1,1,3,0003-00-0001-45.png,0004-00-0001-36.png
00000014,91,0,1449759732674,1449759733308,887,449,0,0,0,2,3,1,5,0003-00-0001-19.png,0002-00-0001-08.png
00000014,92,0,1449759736700,1449759737153,901,538,0,0,0,3,4,1,7,0002-00-0000-99.png,0001-00-0001-01.png
00000014,93,1,1449759740317,1449759740846,888,529,0,0,0,1,0,1,1,0004-00-0001-44.png,0005-00-0000-16.png
00000014,94,0,1449759741887,1449759742438,384,440,0,0,0,3,2,1,5,0002-00-0001-00.png,0003-00-0001-32.png
00000014,95,1,1449759745434,1449759745474,504,472,0,0,0,1,2,1,3,0004-00-0000-04.png,0003-00-0001-49.png
00000014,96,1,1449759746509,1449759747501,411,532,0,0,0,0,1,1,1,0005-00-0000-29.png,0004-00-0000-16.png
00000014,97,1,1449759748575,1449759749045,369,451,0,0,0,0,1,1,1,0005-00-0000-73.png,0004-00-0000-89.png
00000014,98,0,1449759750196,1449759750760,878,466,0,0,0,3,4,1,7,0002-00-0001-14.png,0001-00-0001-88.png
00000014,99,1,1449759753715,1449759754191,869,445,0,0,0,2,1,1,3,0003-00-0001-33.png,0004-00-0001-52.png
00000014,100,1,1449759755125,1449759755743,898,456,0,0,0,1,0,1,1,0004-00-0000-31.png,0005-00-0000-74.png
00000014,101,1,1449759756796,1449759757471,886,471,0,0,0,4,3,1,7,0001-00-0000-08.png,0002-00-0000-62.png
00000014,102,1,1449759758570,1449759758955,420,478,0,0,0,2,3,1,5,0003-00-0000-58.png,0002-00-0001-17.png
00000014,103,1,1449759760110,1449759760790,914,475,0,0,0,3,2,1,5,0002-00-0000-88.png,0003-00-0000-33.png
00000014,104,0,1449759761823,1449759762370,873,465,0,0,0,1,2,1,3,0004-00-0000-54.png,0003-00-0000-45.png
00000014,105,1,1449759767054,1449759767478,961,526,0,0,0,4,3,1,7,0001-00-0000-19.png,0002-00-0001-30.png
00000014,106,1,1449759768401,1449759769002,880,453,0,0,0,2,1,1,3,0003-00-0001-17.png,0004-00-0001-61.png
00000014,107,1,1449759770095,1449759770519,387,475,0,0,0,0,1,1,1,0005-00-0001-57.png,0004-00-0001-18.png
00000014,108,0,1449759771637,1449759772181,875,463,0,0,0,3,4,1,7,0002-00-0001-07.png,0001-00-0000-36.png
00000014,109,1,1449759778500,1449759778865,973,445,0,0,0,3,2,1,5,0002-00-0000-14.png,0003-00-0001-29.png
00000014,110,0,1449759779825,1449759780323,366,486,0,0,0,1,0,1,1,0004-00-0001-36.png,0005-00-0000-95.png
00000014,111,0,1449759783495,1449759783929,937,424,0,0,0,2,3,1,5,0003-00-0000-94.png,0002-00-0000-33.png
00000014,112,1,1449759787371,1449759787983,401,423,0,0,0,1,2,1,3,0004-00-0000-20.png,0003-00-0001-66.png
00000014,113,0,1449759788950,1449759789522,899,489,0,0,0,1,2,1,3,0004-00-0001-49.png,0003-00-0001-98.png
00000014,114,1,1449759793045,1449759793462,950,448,0,0,0,3,2,1,5,0002-00-0000-26.png,0003-00-0000-89.png
00000014,115,1,1449759794407,1449759795002,897,482,0,0,0,1,0,1,1,0004-00-0000-43.png,0005-00-0000-63.png
00000014,116,0,1449759796057,1449759796601,875,462,0,0,0,2,3,1,5,0003-00-0000-59.png,0002-00-0000-82.png
00000014,117,1,1449759800288,1449759800717,951,424,0,0,0,4,3,1,7,0001-00-0001-40.png,0002-00-0001-30.png
00000014,118,0,1449759801713,1449759802356,938,475,0,0,0,3,4,1,7,0002-00-0001-79.png,0001-00-0000-73.png
00000014,119,1,1449759806255,1449759806741,396,416,0,0,0,0,1,1,1,0005-00-0001-43.png,0004-00-0000-86.png
00000014,120,1,1449759807886,1449759808469,923,459,0,0,0,2,1,1,3,0003-00-0001-14.png,0004-00-0000-66.png
00000014,121,1,1449759809525,1449759809959,312,449,0,0,0,0,1,1,1,0005-00-0000-64.png,0004-00-0000-29.png
00000014,122,0,1449759811126,1449759811710,889,487,0,0,0,3,4,1,7,0002-00-0000-31.png,0001-00-0000-82.png
00000014,123,1,1449759814802,1449759815288,936,438,0,0,0,1,0,1,1,0004-00-0000-58.png,0005-00-0000-84.png
00000014,124,1,1449759816303,1449759816863,890,466,0,0,0,2,1,1,3,0003-00-0000-83.png,0004-00-0001-22.png
00000014,125,1,1449759817987,1449759818549,886,477,0,0,0,3,2,1,5,0002-00-0000-82.png,0003-00-0000-02.png
00000014,126,0,1449759819702,1449759820317,860,500,0,0,0,2,3,1,5,0003-00-0001-91.png,0002-00-0000-56.png
00000014,127,0,1449759823795,1449759824220,926,449,0,0,0,1,2,1,3,0004-00-0001-24.png,0003-00-0000-62.png
00000014,128,1,1449759827233,1449759827770,953,443,0,0,0,4,3,1,7,0001-00-0000-13.png,0002-00-0000-17.png
00000014,129,0,1449759828745,1449759829373,873,500,0,0,0,2,3,1,5,0003-00-0001-25.png,0002-00-0001-43.png
00000014,130,1,1449759832443,1449759832866,924,458,0,0,0,3,2,1,5,0002-00-0001-26.png,0003-00-0001-64.png
00000014,131,0,1449759833875,1449759834437,875,476,0,0,0,1,2,1,3,0004-00-0001-93.png,0003-00-0000-50.png
00000014,132,1,1449759837799,1449759838252,958,431,0,0,0,1,0,1,1,0004-00-0001-81.png,0005-00-0000-45.png
00000014,133,1,1449759839308,1449759839873,914,449,0,0,0,2,1,1,3,0003-00-0001-81.png,0004-00-0000-24.png
00000014,134,1,1449759840950,1449759841504,875,488,0,0,0,4,3,1,7,0001-00-0000-74.png,0002-00-0000-06.png
00000014,135,0,1449759842640,1449759843275,880,480,0,0,0,3,4,1,7,0002-00-0001-64.png,0001-00-0001-80.png
00000014,136,1,1449759847212,1449759847756,350,410,0,0,0,0,1,1,1,0005-00-0000-60.png,0004-00-0001-62.png
00000014,137,1,1449759848792,1449759849334,900,462,0,0,0,1,0,1,1,0004-00-0000-87.png,0005-00-0000-75.png
00000014,138,1,1449759850419,1449759850851,381,462,0,0,0,1,2,1,3,0004-00-0001-10.png,0003-00-0000-83.png
00000014,139,0,1449759851993,1449759852628,877,466,0,0,0,2,3,1,5,0003-00-0000-85.png,0002-00-0001-63.png
00000014,140,1,1449759855660,1449759856076,945,431,0,0,0,4,3,1,7,0001-00-0001-06.png,0002-00-0001-00.png
00000014,141,1,1449759857091,1449759857613,888,476,0,0,0,2,1,1,3,0003-00-0000-34.png,0004-00-0001-14.png
00000014,142,0,1449759858766,1449759859307,877,441,0,0,0,3,4,1,7,0002-00-0000-61.png,0001-00-0001-66.png
00000014,143,1,1449759862639,1449759863121,376,436,0,0,0,0,1,1,1,0005-00-0000-03.png,0004-00-0001-52.png
00000014,144,1,1449759864257,1449759864889,892,464,0,0,0,3,2,1,5,0002-00-0001-36.png,0003-00-0000-92.png
00000014,145,0,1449759866144,1449759866712,901,462,0,0,0,3,4,1,7,0002-00-0000-52.png,0001-00-0000-11.png
00000014,146,1,1449759869653,1449759870109,952,424,0,0,0,1,0,1,1,0004-00-0001-58.png,0005-00-0000-95.png
00000014,147,0,1449759871175,1449759871825,875,447,0,0,0,1,2,1,3,0004-00-0001-78.png,0003-00-0000-55.png
00000014,148,0,1449759876543,1449759876994,952,429,0,0,0,2,3,1,5,0003-00-0001-45.png,0002-00-0000-97.png
00000014,149,1,1449759879889,1449759880305,976,411,0,0,0,3,2,1,5,0002-00-0001-26.png,0003-00-0001-58.png
00000014,150,1,1449759881452,1449759882001,900,469,0,0,0,4,3,1,7,0001-00-0000-57.png,0002-00-0001-30.png
00000014,151,1,1449759883101,1449759883711,873,543,0,0,0,2,1,1,3,0003-00-0001-99.png,0004-00-0000-16.png
00000014,152,1,1449759884812,1449759885859,389,410,0,0,0,0,1,1,1,0005-00-0001-62.png,0004-00-0000-96.png
00000014,153,0,1449759887337,1449759887808,461,497,0,0,0,2,1,1,3,0003-00-0001-38.png,0004-00-0001-55.png
00000014,154,0,1449759890813,1449759891220,939,449,0,0,0,2,3,1,5,0003-00-0000-30.png,0002-00-0000-91.png
00000014,155,0,1449759894631,1449759895075,953,441,0,0,0,1,2,1,3,0004-00-0001-15.png,0003-00-0000-49.png
00000014,156,1,1449759898796,1449759899284,952,449,0,0,0,3,2,1,5,0002-00-0001-17.png,0003-00-0000-51.png
00000014,157,0,1449759900336,1449759900923,377,474,0,0,0,4,3,1,7,0001-00-0001-87.png,0002-00-0001-38.png
00000014,158,0,1449759904179,1449759904657,925,528,0,0,0,0,1,1,1,0005-00-0001-64.png,0004-00-0000-21.png
00000014,159,1,1449759908009,1449759908465,952,436,0,0,0,1,0,1,1,0004-00-0001-73.png,0005-00-0001-22.png
00000014,160,0,1449759909505,1449759910096,880,469,0,0,0,3,4,1,7,0002-00-0000-46.png,0001-00-0001-02.png
00000014,161,1,1449759913079,1449759913513,901,410,0,0,0,2,1,1,3,0003-00-0001-53.png,0004-00-0000-59.png
00000014,162,1,1449759914578,1449759915318,918,468,0,0,0,3,2,1,5,0002-00-0001-41.png,0003-00-0001-67.png
00000014,163,0,1449759916359,1449759916976,875,423,0,0,0,2,3,1,5,0003-00-0001-87.png,0002-00-0001-71.png
00000014,164,1,1449759920155,1449759920637,453,437,0,0,0,0,1,1,1,0005-00-0001-43.png,0004-00-0001-22.png
00000014,165,1,1449759921634,1449759922164,874,542,0,0,0,1,0,1,1,0004-00-0001-53.png,0005-00-0000-97.png
00000014,166,1,1449759923277,1449759923811,363,445,0,0,0,1,2,1,3,0004-00-0000-76.png,0003-00-0000-31.png
00000014,167,0,1449759924866,1449759925437,880,453,0,0,0,3,4,1,7,0002-00-0000-86.png,0001-00-0001-96.png
00000014,168,1,1449759928449,1449759928929,903,517,0,0,0,4,3,1,7,0001-00-0000-83.png,0002-00-0001-24.png
00000014,169,0,1449759930050,1449759930631,885,451,0,0,0,3,4,1,7,0002-00-0001-65.png,0001-00-0001-16.png
00000014,170,0,1449759933780,1449759934251,948,401,0,0,0,1,2,1,3,0004-00-0000-76.png,0003-00-0000-35.png
00000014,171,1,1449759937238,1449759937755,905,546,0,0,0,4,3,1,7,0001-00-0001-57.png,0002-00-0001-41.png
00000014,172,1,1449759938770,1449759939343,876,461,0,0,0,2,1,1,3,0003-00-0000-49.png,0004-00-0000-02.png
00000014,173,1,1449759940462,1449759941238,878,453,0,0,0,3,2,1,5,0002-00-0000-01.png,0003-00-0001-24.png
00000014,174,0,1449759942360,1449759942920,880,453,0,0,0,2,3,1,5,0003-00-0000-00.png,0002-00-0001-85.png
00000014,175,0,1449759945755,1449759946309,951,411,0,0,0,0,1,1,1,0005-00-0001-38.png,0004-00-0000-45.png
00000014,176,1,1449759949574,1449759950222,939,449,0,0,0,1,0,1,1,0004-00-0000-59.png,0005-00-0001-24.png
00000014,177,1,1449759951215,1449759952321,464,449,0,0,0,3,4,1,7,0002-00-0001-34.png,0001-00-0000-44.png
00000014,178,1,1449759953550,1449759954118,878,439,0,0,0,2,1,1,3,0003-00-0001-70.png,0004-00-0001-50.png
00000014,179,1,1449759955270,1449759955809,880,454,0,0,0,1,0,1,1,0004-00-0000-51.png,0005-00-0001-43.png
00000014,180,0,1449759956948,1449759957565,879,461,0,0,0,2,3,1,5,0003-00-0001-97.png,0002-00-0001-92.png
00000014,181,0,1449759960762,1449759961125,949,457,0,0,0,0,1,1,1,0005-00-0000-23.png,0004-00-0001-44.png
00000014,182,1,1449759964244,1449759964687,899,543,0,0,0,3,2,1,5,0002-00-0001-87.png,0003-00-0000-11.png
00000014,183,1,1449759965715,1449759966447,905,453,0,0,0,4,3,1,7,0001-00-0000-35.png,0002-00-0001-22.png
00000014,184,0,1449759967644,1449759968187,874,464,0,0,0,1,2,1,3,0004-00-0000-21.png,0003-00-0001-19.png
00000014,185,0,1449759971241,1449759971721,981,402,0,0,0,0,1,1,1,0005-00-0000-15.png,0004-00-0000-31.png
00000014,186,1,1449759974751,1449759975266,919,535,0,0,0,1,0,1,1,0004-00-0000-92.png,0005-00-0001-98.png
00000014,187,0,1449759976390,1449759976953,902,443,0,0,0,3,4,1,7,0002-00-0001-98.png,0001-00-0001-84.png
00000014,188,1,1449759980127,1449759980668,374,456,0,0,0,1,2,1,3,0004-00-0000-77.png,0003-00-0001-34.png
00000014,189,1,1449759981866,1449759982371,899,465,0,0,0,2,1,1,3,0003-00-0000-24.png,0004-00-0000-57.png
00000014,190,1,1449759983497,1449759984113,876,460,0,0,0,3,2,1,5,0002-00-0001-78.png,0003-00-0000-63.png
00000014,191,1,1449759985624,1449759986206,879,454,0,0,0,4,3,1,7,0001-00-0000-28.png,0002-00-0001-91.png
00000014,192,0,1449759987428,1449759987974,876,436,0,0,0,2,3,1,5,0003-00-0000-42.png,0002-00-0000-14.png
00000014,193,0,1449759991049,1449759991558,376,435,0,0,0,4,3,1,7,0001-00-0001-20.png,0002-00-0001-99.png
00000014,194,0,1449759994424,1449759994915,949,405,0,0,0,2,3,1,5,0003-00-0000-28.png,0002-00-0000-05.png
00000014,195,0,1449759997988,1449759998501,878,384,0,0,0,0,1,1,1,0005-00-0001-70.png,0004-00-0000-16.png
00000014,196,0,1449760001785,1449760002213,925,437,0,0,0,1,2,1,3,0004-00-0001-19.png,0003-00-0001-05.png
00000014,197,1,1449760005423,1449760005911,939,422,0,0,0,2,1,1,3,0003-00-0001-56.png,0004-00-0001-99.png
00000014,198,1,1449760007045,1449760008143,876,491,0,0,0,3,2,1,5,0002-00-0000-82.png,0003-00-0001-66.png
00000014,199,1,1449760009249,1449760009792,889,449,0,0,0,1,0,1,1,0004-00-0001-74.png,0005-00-0001-79.png
00000014,200,0,1449760010998,1449760011611,888,463,0,0,0,3,4,1,7,0002-00-0000-19.png,0001-00-0000-20.png
00000014,201,0,1449760014584,1449760015315,885,435,0,0,0,3,4,1,7,0002-00-0001-71.png,0001-00-0000-16.png
00000014,202,1,1449760018291,1449760018689,927,469,0,0,0,3,2,1,5,0002-00-0000-50.png,0003-00-0001-19.png
00000014,203,1,1449760019743,1449760020355,892,442,0,0,0,4,3,1,7,0001-00-0001-13.png,0002-00-0001-60.png
00000014,204,1,1449760021434,1449760022065,904,453,0,0,0,2,1,1,3,0003-00-0000-07.png,0004-00-0001-41.png
00000014,205,1,1449760023252,1449760023856,900,475,0,0,0,1,0,1,1,0004-00-0001-76.png,0005-00-0000-98.png
00000014,206,0,1449760024972,1449760025496,877,452,0,0,0,0,1,1,1,0005-00-0001-62.png,0004-00-0000-75.png
00000014,207,0,1449760028729,1449760029202,926,410,0,0,0,2,3,1,5,0003-00-0001-72.png,0002-00-0001-57.png
00000014,208,0,1449760032147,1449760032657,959,420,0,0,0,1,2,1,3,0004-00-0000-81.png,0003-00-0000-13.png
00000014,209,1,1449760035725,1449760036170,964,399,0,0,0,2,1,1,3,0003-00-0001-62.png,0004-00-0000-98.png
00000014,210,0,1449760037178,1449760037603,407,449,0,0,0,4,3,1,7,0001-00-0000-87.png,0002-00-0000-76.png
00000014,211,0,1449760042524,1449760042931,899,561,0,0,0,1,2,1,3,0004-00-0001-81.png,0003-00-0000-12.png
00000014,212,1,1449760045943,1449760046397,947,463,0,0,0,3,2,1,5,0002-00-0000-51.png,0003-00-0001-35.png
00000014,213,0,1449760047383,1449760047936,870,550,0,0,0,2,3,1,5,0003-00-0000-49.png,0002-00-0000-82.png
00000014,214,0,1449760050799,1449760051268,900,528,0,0,0,0,1,1,1,0005-00-0001-22.png,0004-00-0001-45.png
00000014,215,1,1449760054759,1449760055224,921,550,0,0,0,1,0,1,1,0004-00-0001-66.png,0005-00-0001-52.png
00000014,216,0,1449760056219,1449760057439,964,423,0,0,0,3,4,1,7,0002-00-0001-74.png,0001-00-0001-21.png
00000014,217,0,1449760060289,1449760060736,949,430,0,0,0,2,3,1,5,0003-00-0001-82.png,0002-00-0000-38.png
00000014,218,1,1449760064985,1449760065494,901,514,0,0,0,4,3,1,7,0001-00-0001-65.png,0002-00-0000-48.png
00000014,219,1,1449760066530,1449760067068,358,472,0,0,0,1,2,1,3,0004-00-0001-23.png,0003-00-0001-92.png
00000014,220,1,1449760068156,1449760068698,871,460,0,0,0,3,2,1,5,0002-00-0001-86.png,0003-00-0001-48.png
00000014,221,0,1449760070332,1449760070942,881,468,0,0,0,0,1,1,1,0005-00-0000-43.png,0004-00-0001-98.png
00000014,222,1,1449760074129,1449760074536,952,423,0,0,0,2,1,1,3,0003-00-0001-94.png,0004-00-0001-97.png
00000014,223,0,1449760075568,1449760076163,901,488,0,0,0,3,4,1,7,0002-00-0001-61.png,0001-00-0000-30.png
00000014,224,1,1449760079217,1449760079671,894,546,0,0,0,1,0,1,1,0004-00-0000-35.png,0005-00-0001-44.png
00000014,225,1,1449760080698,1449760081174,350,501,0,0,0,2,3,1,5,0003-00-0001-38.png,0002-00-0001-44.png
00000014,226,1,1449760082368,1449760082891,386,463,0,0,0,3,4,1,7,0002-00-0001-91.png,0001-00-0001-89.png
00000014,227,1,1449760084063,1449760084633,887,469,0,0,0,1,0,1,1,0004-00-0000-25.png,0005-00-0000-33.png
00000014,228,1,1449760085803,1449760086188,419,454,0,0,0,0,1,1,1,0005-00-0000-06.png,0004-00-0000-13.png
00000014,229,1,1449760087497,1449760088036,880,454,0,0,0,2,1,1,3,0003-00-0001-84.png,0004-00-0000-57.png
00000014,230,1,1449760089222,1449760089885,883,506,0,0,0,4,3,1,7,0001-00-0001-34.png,0002-00-0000-35.png
00000014,231,1,1449760091045,1449760091487,411,456,0,0,0,1,2,1,3,0004-00-0001-55.png,0003-00-0000-59.png
00000014,232,0,1449760092715,1449760093812,459,447,0,0,0,3,2,1,5,0002-00-0001-13.png,0003-00-0001-25.png
00000014,233,1,1449760096760,1449760097265,948,469,0,0,0,3,2,1,5,0002-00-0001-40.png,0003-00-0001-74.png
00000014,234,1,1449760098355,1449760098904,862,449,0,0,0,2,1,1,3,0003-00-0000-89.png,0004-00-0000-94.png
00000014,235,1,1449760100061,1449760100502,365,474,0,0,0,0,1,1,1,0005-00-0001-03.png,0004-00-0001-49.png
00000014,236,0,1449760101800,1449760102391,875,437,0,0,0,1,2,1,3,0004-00-0000-36.png,0003-00-0000-01.png
00000014,237,1,1449760105467,1449760105897,925,463,0,0,0,1,0,1,1,0004-00-0001-24.png,0005-00-0001-12.png
00000014,238,1,1449760107002,1449760107583,867,443,0,0,0,4,3,1,7,0001-00-0001-63.png,0002-00-0001-30.png
00000014,239,0,1449760108751,1449760109278,870,471,0,0,0,2,3,1,5,0003-00-0001-41.png,0002-00-0000-31.png
00000014,240,0,1449760112320,1449760112814,917,464,0,0,0,3,4,1,7,0002-00-0001-06.png,0001-00-0000-30.png
00000014,241,0,1449760115804,1449760116236,916,515,0,0,0,2,3,1,5,0003-00-0000-00.png,0002-00-0001-84.png
00000014,242,1,1449760119233,1449760119704,870,419,0,0,0,4,3,1,7,0001-00-0000-51.png,0002-00-0001-10.png
00000014,243,1,1449760120784,1449760121326,875,462,0,0,0,3,2,1,5,0002-00-0000-99.png,0003-00-0000-41.png
00000014,244,1,1449760122507,1449760122969,350,465,0,0,0,0,1,1,1,0005-00-0001-10.png,0004-00-0000-66.png
00000014,245,1,1449760124064,1449760124580,873,482,0,0,0,2,1,1,3,0003-00-0000-70.png,0004-00-0001-78.png
00000014,246,0,1449760125674,1449760126789,902,414,0,0,0,1,2,1,3,0004-00-0000-75.png,0003-00-0000-65.png
00000014,247,1,1449760129708,1449760130137,926,437,0,0,0,1,0,1,1,0004-00-0001-63.png,0005-00-0000-57.png
00000014,248,0,1449760131161,1449760131680,900,462,0,0,0,3,4,1,7,0002-00-0000-52.png,0001-00-0000-36.png
00000014,249,1,1449760134783,1449760135405,376,488,0,0,0,0,1,1,1,0005-00-0000-53.png,0004-00-0001-52.png
00000014,250,1,1449760136517,1449760137114,891,466,0,0,0,1,0,1,1,0004-00-0001-94.png,0005-00-0000-20.png
00000014,251,1,1449760138325,1449760138907,380,451,0,0,0,3,4,1,7,0002-00-0001-69.png,0001-00-0000-61.png
00000014,252,1,1449760140671,1449760141313,900,461,0,0,0,4,3,1,7,0001-00-0001-59.png,0002-00-0000-89.png
00000014,253,0,1449760142332,1449760142904,878,469,0,0,0,2,3,1,5,0003-00-0000-41.png,0002-00-0000-82.png
00000014,254,1,1449760145920,1449760146364,899,559,0,0,0,3,2,1,5,0002-00-0001-83.png,0003-00-0001-71.png
00000014,255,1,1449760147353,1449760148355,921,445,0,0,0,2,1,1,3,0003-00-0000-74.png,0004-00-0000-09.png
00000014,256,1,1449760149490,1449760150161,412,390,0,0,0,1,2,1,3,0004-00-0001-29.png,0003-00-0000-80.png
00000014,257,0,1449760151288,1449760151743,427,476,0,0,0,4,3,1,7,0001-00-0001-10.png,0002-00-0001-17.png
00000014,258,0,1449760154707,1449760155129,887,543,0,0,0,2,3,1,5,0003-00-0001-92.png,0002-00-0001-53.png
00000014,259,1,1449760158165,1449760158763,325,425,0,0,0,0,1,1,1,0005-00-0000-28.png,0004-00-0000-06.png
00000014,260,0,1449760159774,1449760160377,877,469,0,0,0,3,4,1,7,0002-00-0001-82.png,0001-00-0000-16.png
00000014,261,1,1449760163290,1449760163923,932,421,0,0,0,1,0,1,1,0004-00-0001-45.png,0005-00-0000-47.png
00000014,262,1,1449760164964,1449760165517,880,453,0,0,0,3,2,1,5,0002-00-0001-74.png,0003-00-0000-26.png
00000014,263,1,1449760167043,1449760167564,394,549,0,0,0,1,2,1,3,0004-00-0001-37.png,0003-00-0001-81.png
00000014,264,1,1449760168660,1449760169183,861,476,0,0,0,2,1,1,3,0003-00-0001-26.png,0004-00-0001-96.png
00000014,265,1,1449760170327,1449760170886,872,456,0,0,0,3,2,1,5,0002-00-0001-30.png,0003-00-0001-53.png
00000014,266,0,1449760172076,1449760172694,374,480,0,0,0,4,3,1,7,0001-00-0001-16.png,0002-00-0001-42.png
00000014,267,1,1449760175756,1449760176234,951,463,0,0,0,1,0,1,1,0004-00-0000-22.png,0005-00-0000-68.png
00000014,268,1,1449760177299,1449760177978,380,456,0,0,0,2,3,1,5,0003-00-0001-43.png,0002-00-0001-29.png
00000014,269,1,1449760179133,1449760179583,427,488,0,0,0,0,1,1,1,0005-00-0001-67.png,0004-00-0000-14.png
00000014,270,1,1449760180749,1449760181329,875,488,0,0,0,2,1,1,3,0003-00-0001-54.png,0004-00-0001-17.png
00000014,271,1,1449760182453,1449760182874,325,450,0,0,0,1,2,1,3,0004-00-0001-95.png,0003-00-0000-51.png
00000014,272,0,1449760184099,1449760185119,925,490,0,0,0,3,4,1,7,0002-00-0000-77.png,0001-00-0000-05.png
00000014,273,1,1449760188033,1449760188057,504,414,0,0,0,2,3,1,5,0003-00-0001-91.png,0002-00-0001-31.png
00000014,274,1,1449760189098,1449760189532,369,453,0,0,0,0,1,1,1,0005-00-0000-07.png,0004-00-0000-87.png
00000014,275,1,1449760190658,1449760191491,899,448,0,0,0,2,1,1,3,0003-00-0001-96.png,0004-00-0000-31.png
00000014,276,1,1449760192680,1449760193066,350,463,0,0,0,1,2,1,3,0004-00-0000-57.png,0003-00-0000-69.png
00000014,277,1,1449760194312,1449760194773,390,475,0,0,0,3,4,1,7,0002-00-0000-25.png,0001-00-0001-68.png
00000014,278,1,1449760195974,1449760196609,876,462,0,0,0,3,2,1,5,0002-00-0000-77.png,0003-00-0001-11.png
00000014,279,0,1449760197844,1449760198258,361,488,0,0,0,4,3,1,7,0001-00-0001-19.png,0002-00-0001-92.png
00000014,280,1,1449760201374,1449760201809,927,467,0,0,0,1,0,1,1,0004-00-0000-72.png,0005-00-0000-19.png
00000014,281,0,1449760202844,1449760204014,901,461,0,0,0,2,3,1,5,0003-00-0000-64.png,0002-00-0001-45.png
00000014,282,0,1449760207027,1449760207035,514,403,0,0,0,1,0,1,1,0004-00-0000-97.png,0005-00-0001-56.png
00000014,283,1,1449760209929,1449760210368,885,529,0,0,0,2,1,1,3,0003-00-0000-66.png,0004-00-0001-08.png
00000014,284,0,1449760212187,1449760212655,900,476,0,0,0,0,1,1,1,0005-00-0001-40.png,0004-00-0000-28.png
00000014,285,0,1449760215804,1449760216155,950,438,0,0,0,3,4,1,7,0002-00-0000-43.png,0001-00-0000-19.png
00000014,286,1,1449760219799,1449760220235,934,455,0,0,0,4,3,1,7,0001-00-0001-50.png,0002-00-0001-47.png
00000014,287,1,1449760221229,1449760221793,894,468,0,0,0,3,2,1,5,0002-00-0001-63.png,0003-00-0000-34.png
00000014,288,0,1449760222921,1449760223486,872,485,0,0,0,1,2,1,3,0004-00-0001-70.png,0003-00-0000-99.png
00000014,289,0,1449760226458,1449760226927,951,463,0,0,0,1,2,1,3,0004-00-0000-08.png,0003-00-0000-15.png
00000014,290,0,1449760230016,1449760230430,944,442,0,0,0,2,3,1,5,0003-00-0000-63.png,0002-00-0001-13.png
00000014,291,0,1449760233504,1449760233977,929,437,0,0,0,3,4,1,7,0002-00-0001-66.png,0001-00-0001-90.png
00000014,292,1,1449760237269,1449760237719,939,468,0,0,0,4,3,1,7,0001-00-0000-70.png,0002-00-0001-84.png
00000014,293,1,1449760238733,1449760239262,875,436,0,0,0,2,1,1,3,0003-00-0001-35.png,0004-00-0001-03.png
00000014,294,1,1449760240374,1449760240932,875,462,0,0,0,3,2,1,5,0002-00-0001-26.png,0003-00-0001-45.png
00000014,295,1,1449760242050,1449760242498,407,465,0,0,0,0,1,1,1,0005-00-0001-79.png,0004-00-0001-22.png
00000014,296,1,1449760243633,1449760244305,900,438,0,0,0,1,0,1,1,0004-00-0001-91.png,0005-00-0001-09.png
00000014,297,1,1449760245434,1449760246206,386,413,0,0,0,3,4,1,7,0002-00-0001-88.png,0001-00-0001-58.png
00000014,298,1,1449760247777,1449760248279,888,474,0,0,0,1,0,1,1,0004-00-0000-01.png,0005-00-0000-23.png
00000014,299,0,1449760249577,1449760250036,350,476,0,0,0,4,3,1,7,0001-00-0000-54.png,0002-00-0001-58.png
00000014,300,1,1449760253092,1449760253540,927,424,0,0,0,3,2,1,5,0002-00-0000-86.png,0003-00-0000-19.png
00000014,301,0,1449760254627,1449760255237,873,456,0,0,0,2,3,1,5,0003-00-0001-57.png,0002-00-0000-97.png
00000014,302,1,1449760258384,1449760258817,893,538,0,0,0,2,1,1,3,0003-00-0000-51.png,0004-00-0000-75.png
00000014,303,1,1449760259793,1449760260294,341,466,0,0,0,0,1,1,1,0005-00-0000-23.png,0004-00-0001-93.png
00000014,304,1,1449760261475,1449760261957,358,498,0,0,0,1,2,1,3,0004-00-0001-07.png,0003-00-0001-09.png
00000014,305,1,1449760263224,1449760263840,878,467,0,0,0,2,1,1,3,0003-00-0000-77.png,0004-00-0001-13.png
00000014,306,0,1449760265020,1449760265863,403,444,0,0,0,3,2,1,5,0002-00-0000-96.png,0003-00-0001-87.png
00000014,307,0,1449760268768,1449760269233,925,464,0,0,0,0,1,1,1,0005-00-0001-74.png,0004-00-0000-23.png
00000014,308,0,1449760272227,1449760272235,488,391,0,0,0,1,0,1,1,0004-00-0000-66.png,0005-00-0000-21.png
00000014,309,0,1449760275339,1449760275735,953,439,0,0,0,2,3,1,5,0003-00-0000-90.png,0002-00-0001-61.png
00000014,310,0,1449760278666,1449760278686,516,502,0,0,0,4,3,1,7,0001-00-0000-60.png,0002-00-0001-92.png
00000014,311,1,1449760281628,1449760282184,431,448,0,0,0,1,2,1,3,0004-00-0001-74.png,0003-00-0001-91.png
00000014,312,0,1449760283308,1449760284157,925,489,0,0,0,3,4,1,7,0002-00-0001-00.png,0001-00-0000-23.png
00000014,313,0,1449760287246,1449760287672,926,528,0,0,0,2,3,1,5,0003-00-0000-96.png,0002-00-0001-12.png
00000014,314,0,1449760290734,1449760291124,927,410,0,0,0,1,2,1,3,0004-00-0001-20.png,0003-00-0001-21.png
00000014,315,1,1449760294043,1449760294518,902,433,0,0,0,1,0,1,1,0004-00-0001-12.png,0005-00-0000-71.png
00000014,316,0,1449760295564,1449760296015,332,472,0,0,0,4,3,1,7,0001-00-0000-68.png,0002-00-0001-60.png
00000014,317,0,1449760299490,1449760299913,953,468,0,0,0,0,1,1,1,0005-00-0001-13.png,0004-00-0001-24.png
00000014,318,1,1449760302798,1449760302842,505,425,0,0,0,3,4,1,7,0002-00-0000-21.png,0001-00-0001-68.png
00000014,319,1,1449760303864,1449760304923,951,437,0,0,0,2,1,1,3,0003-00-0001-22.png,0004-00-0000-33.png
00000014,320,1,1449760306010,1449760307071,913,423,0,0,0,3,2,1,5,0002-00-0000-18.png,0003-00-0000-44.png
00000014,321,0,1449760308117,1449760308791,913,450,0,0,0,0,1,1,1,0005-00-0000-69.png,0004-00-0000-22.png
00000014,322,1,1449760311714,1449760312122,913,410,0,0,0,1,0,1,1,0004-00-0000-73.png,0005-00-0001-91.png
00000014,323,1,1449760313303,1449760314074,901,477,0,0,0,3,2,1,5,0002-00-0001-61.png,0003-00-0001-51.png
00000014,324,0,1449760315053,1449760315693,876,468,0,0,0,2,3,1,5,0003-00-0000-37.png,0002-00-0001-01.png
00000014,325,0,1449760318692,1449760319155,933,474,0,0,0,1,2,1,3,0004-00-0000-24.png,0003-00-0000-19.png
00000014,326,0,1449760322351,1449760322819,961,464,0,0,0,3,4,1,7,0002-00-0001-77.png,0001-00-0001-60.png
00000014,327,1,1449760325706,1449760326121,974,415,0,0,0,2,1,1,3,0003-00-0001-29.png,0004-00-0000-60.png
00000014,328,0,1449760327116,1449760327630,401,462,0,0,0,4,3,1,7,0001-00-0001-56.png,0002-00-0000-18.png
00000014,329,0,1449760330675,1449760331105,948,463,0,0,0,3,4,1,7,0002-00-0000-09.png,0001-00-0001-24.png
00000014,330,1,1449760334066,1449760334557,927,424,0,0,0,2,1,1,3,0003-00-0001-82.png,0004-00-0000-99.png
00000014,331,1,1449760335677,1449760336305,899,475,0,0,0,1,0,1,1,0004-00-0000-15.png,0005-00-0001-40.png
00000014,332,0,1449760337442,1449760337940,878,470,0,0,0,2,3,1,5,0003-00-0001-04.png,0002-00-0001-13.png
00000014,333,0,1449760341420,1449760341956,348,418,0,0,0,4,3,1,7,0001-00-0000-91.png,0002-00-0000-38.png
00000014,334,1,1449760344920,1449760344928,504,419,0,0,0,1,2,1,3,0004-00-0001-43.png,0003-00-0001-63.png
00000014,335,1,1449760346044,1449760346517,381,464,0,0,0,0,1,1,1,0005-00-0000-99.png,0004-00-0000-40.png
00000014,336,1,1449760347993,1449760348551,899,463,0,0,0,3,2,1,5,0002-00-0001-52.png,0003-00-0001-58.png
00000014,337,0,1449760349821,1449760349837,504,479,0,0,0,4,3,1,7,0001-00-0000-09.png,0002-00-0001-62.png
00000014,338,0,1449760352912,1449760353383,899,462,0,0,0,3,4,1,7,0002-00-0000-52.png,0001-00-0001-69.png
00000014,339,1,1449760356519,1449760357134,959,448,0,0,0,2,1,1,3,0003-00-0001-46.png,0004-00-0000-11.png
00000014,340,0,1449760358259,1449760358786,907,475,0,0,0,0,1,1,1,0005-00-0000-48.png,0004-00-0001-16.png
00000014,341,0,1449760361958,1449760362383,894,535,0,0,0,1,2,1,3,0004-00-0000-94.png,0003-00-0001-67.png
00000014,342,1,1449760365263,1449760365291,504,423,0,0,0,2,3,1,5,0003-00-0001-00.png,0002-00-0001-94.png
00000014,343,0,1449760366438,1449760367216,440,565,0,0,0,3,2,1,5,0002-00-0001-78.png,0003-00-0001-92.png
00000014,344,1,1449760370213,1449760370671,975,430,0,0,0,1,0,1,1,0004-00-0001-94.png,0005-00-0000-76.png
00000014,345,1,1449760371645,1449760372131,373,469,0,0,0,1,2,1,3,0004-00-0000-01.png,0003-00-0000-71.png
00000014,346,0,1449760373196,1449760373678,867,457,0,0,0,2,3,1,5,0003-00-0001-49.png,0002-00-0001-02.png
00000014,347,0,1449760376574,1449760377195,951,436,0,0,0,0,1,1,1,0005-00-0001-81.png,0004-00-0000-66.png
00000014,348,0,1449760380027,1449760380043,504,436,0,0,0,2,1,1,3,0003-00-0001-61.png,0004-00-0000-60.png
00000014,349,1,1449760383151,1449760383573,975,405,0,0,0,4,3,1,7,0001-00-0001-57.png,0002-00-0001-28.png
00000014,350,1,1449760384525,1449760385130,902,461,0,0,0,1,0,1,1,0004-00-0001-76.png,0005-00-0001-42.png
00000014,351,0,1449760386281,1449760386907,879,454,0,0,0,3,4,1,7,0002-00-0000-14.png,0001-00-0001-03.png
00000014,352,1,1449760389812,1449760390467,901,424,0,0,0,3,2,1,5,0002-00-0001-67.png,0003-00-0000-82.png
00000014,353,1,1449760391542,1449760391984,300,443,0,0,0,0,1,1,1,0005-00-0001-33.png,0004-00-0001-28.png
00000014,354,1,1449760393171,1449760393789,901,460,0,0,0,4,3,1,7,0001-00-0001-32.png,0002-00-0001-35.png
00000014,355,0,1449760394902,1449760395332,341,470,0,0,0,1,0,1,1,0004-00-0000-05.png,0005-00-0000-18.png
00000014,356,0,1449760398342,1449760398833,905,453,0,0,0,2,3,1,5,0003-00-0001-04.png,0002-00-0001-97.png
00000014,357,1,1449760401800,1449760402267,953,440,0,0,0,3,2,1,5,0002-00-0000-89.png,0003-00-0000-72.png
00000014,358,0,1449760403369,1449760403944,902,461,0,0,0,3,4,1,7,0002-00-0000-14.png,0001-00-0001-56.png
00000014,359,0,1449760407025,1449760407456,914,423,0,0,0,1,2,1,3,0004-00-0000-64.png,0003-00-0001-13.png
00000014,360,1,1449760410302,1449760410702,901,503,0,0,0,2,1,1,3,0003-00-0001-32.png,0004-00-0000-04.png
00000014,361,1,1449760411689,1449760412133,411,444,0,0,0,0,1,1,1,0005-00-0001-17.png,0004-00-0000-28.png
00000014,362,1,1449760413389,1449760414049,899,438,0,0,0,1,0,1,1,0004-00-0000-53.png,0005-00-0000-47.png
00000014,363,1,1449760415148,1449760415728,877,442,0,0,0,4,3,1,7,0001-00-0000-57.png,0002-00-0001-44.png
00000014,364,1,1449760416916,1449760418009,903,415,0,0,0,3,2,1,5,0002-00-0000-24.png,0003-00-0000-37.png
00000014,365,0,1449760419194,1449760420224,376,414,0,0,0,2,1,1,3,0003-00-0000-23.png,0004-00-0001-43.png
00000014,366,0,1449760423116,1449760423714,901,493,0,0,0,3,4,1,7,0002-00-0000-55.png,0001-00-0000-48.png
00000014,367,0,1449760426635,1449760427093,927,415,0,0,0,2,3,1,5,0003-00-0001-09.png,0002-00-0000-37.png
00000014,368,0,1449760430445,1449760430880,900,436,0,0,0,1,2,1,3,0004-00-0001-94.png,0003-00-0000-35.png
00000014,369,0,1449760433742,1449760434218,964,423,0,0,0,0,1,1,1,0005-00-0000-72.png,0004-00-0001-20.png
00000014,370,0,1449760437231,1449760437667,939,423,0,0,0,3,4,1,7,0002-00-0000-20.png,0001-00-0001-57.png
00000014,371,1,1449760440949,1449760441383,927,436,0,0,0,4,3,1,7,0001-00-0000-54.png,0002-00-0000-40.png
00000014,372,0,1449760442420,1449760442982,875,475,0,0,0,2,3,1,5,0003-00-0001-51.png,0002-00-0000-55.png
00000014,373,1,1449760446037,1449760446477,950,431,0,0,0,1,0,1,1,0004-00-0000-66.png,0005-00-0001-61.png
00000014,374,1,1449760447440,1449760448081,886,450,0,0,0,3,2,1,5,0002-00-0001-90.png,0003-00-0001-47.png
00000014,375,1,1449760449259,1449760449710,352,467,0,0,0,1,2,1,3,0004-00-0001-89.png,0003-00-0000-63.png
00000014,376,1,1449760450828,1449760451465,881,472,0,0,0,2,1,1,3,0003-00-0000-12.png,0004-00-0000-25.png
00000014,377,1,1449760452691,1449760453381,873,458,0,0,0,2,1,1,3,0003-00-0000-98.png,0004-00-0001-49.png
00000014,378,0,1449760454495,1449760455675,875,410,0,0,0,3,4,1,7,0002-00-0000-41.png,0001-00-0001-39.png
00000014,379,0,1449760458690,1449760459137,950,412,0,0,0,1,2,1,3,0004-00-0000-15.png,0003-00-0000-17.png
00000014,380,0,1449760462177,1449760462740,357,401,0,0,0,4,3,1,7,0001-00-0001-01.png,0002-00-0001-11.png
00000014,381,0,1449760465686,1449760466200,952,435,0,0,0,2,3,1,5,0003-00-0000-87.png,0002-00-0001-09.png
00000014,382,1,1449760469144,1449760469779,403,404,0,0,0,0,1,1,1,0005-00-0001-71.png,0004-00-0000-28.png
00000014,383,1,1449760471281,1449760471891,923,471,0,0,0,3,2,1,5,0002-00-0000-62.png,0003-00-0001-31.png
00000014,384,0,1449760472930,1449760473323,453,488,0,0,0,1,0,1,1,0004-00-0000-36.png,0005-00-0000-27.png
00000014,385,0,1449760477027,1449760477428,878,401,0,0,0,3,4,1,7,0002-00-0000-03.png,0001-00-0001-53.png
00000014,386,0,1449760480432,1449760480849,874,410,0,0,0,1,2,1,3,0004-00-0000-46.png,0003-00-0000-15.png
00000014,387,1,1449760483840,1449760484267,926,463,0,0,0,1,0,1,1,0004-00-0000-77.png,0005-00-0001-21.png
00000014,388,1,1449760485267,1449760485851,878,548,0,0,0,2,1,1,3,0003-00-0001-99.png,0004-00-0000-03.png
00000014,389,1,1449760486886,1449760487452,858,451,0,0,0,3,2,1,5,0002-00-0000-81.png,0003-00-0000-68.png
00000014,390,0,1449760488477,1449760489040,862,498,0,0,0,2,3,1,5,0003-00-0001-24.png,0002-00-0001-31.png
00000014,391,0,1449760492297,1449760492717,932,473,0,0,0,0,1,1,1,0005-00-0000-69.png,0004-00-0000-49.png
00000014,392,1,1449760495549,1449760495945,965,423,0,0,0,4,3,1,7,0001-00-0000-48.png,0002-00-0001-76.png
00000014,393,0,1449760497389,1449760497833,877,467,0,0,0,2,3,1,5,0003-00-0000-14.png,0002-00-0001-67.png
00000014,394,1,1449760500943,1449760501391,938,424,0,0,0,2,1,1,3,0003-00-0001-15.png,0004-00-0001-87.png
00000014,395,1,1449760502457,1449760502985,867,537,0,0,0,3,2,1,5,0002-00-0001-47.png,0003-00-0001-37.png
00000014,396,0,1449760504017,1449760504434,427,501,0,0,0,4,3,1,7,0001-00-0000-37.png,0002-00-0001-30.png
00000014,397,0,1449760507620,1449760508050,950,491,0,0,0,3,4,1,7,0002-00-0001-19.png,0001-00-0000-37.png
00000014,398,0,1449760511206,1449760511591,925,423,0,0,0,0,1,1,1,0005-00-0000-47.png,0004-00-0001-06.png
00000014,399,1,1449760515391,1449760515829,900,463,0,0,0,1,0,1,1,0004-00-0000-50.png,0005-00-0000-13.png
00000014,400,1,1449760516772,1449760517231,376,462,0,0,0,1,2,1,3,0004-00-0000-55.png,0003-00-0001-44.png
00000014,401,0,1449760518210,1449760518716,298,482,0,0,0,4,3,1,7,0001-00-0000-21.png,0002-00-0001-16.png
00000014,402,0,1449760521946,1449760522415,898,537,0,0,0,2,3,1,5,0003-00-0001-20.png,0002-00-0000-58.png
00000014,403,1,1449760525727,1449760526216,358,444,0,0,0,0,1,1,1,0005-00-0000-18.png,0004-00-0001-34.png
00000014,404,0,1449760527204,1449760528041,887,543,0,0,0,3,4,1,7,0002-00-0001-51.png,0001-00-0001-47.png
00000014,405,1,1449760531691,1449760532159,959,479,0,0,0,1,0,1,1,0004-00-0000-32.png,0005-00-0000-90.png
00000014,406,0,1449760533132,1449760533899,899,553,0,0,0,1,2,1,3,0004-00-0001-59.png,0003-00-0000-07.png
00000014,407,1,1449760538820,1449760539249,914,465,0,0,0,2,1,1,3,0003-00-0000-98.png,0004-00-0000-91.png
00000014,408,1,1449760540262,1449760540854,875,461,0,0,0,3,2,1,5,0002-00-0000-59.png,0003-00-0000-18.png
00000014,409,1,1449760542161,1449760542708,888,451,0,0,0,3,2,1,5,0002-00-0000-43.png,0003-00-0001-48.png
00000014,410,0,1449760543880,1449760544324,399,493,0,0,0,1,0,1,1,0004-00-0000-57.png,0005-00-0001-40.png
00000014,411,0,1449760547859,1449760548277,923,482,0,0,0,0,1,1,1,0005-00-0001-76.png,0004-00-0000-04.png
00000014,412,1,1449760551413,1449760551894,935,456,0,0,0,2,1,1,3,0003-00-0000-03.png,0004-00-0001-86.png
00000014,413,1,1449760552890,1449760553551,893,456,0,0,0,4,3,1,7,0001-00-0001-14.png,0002-00-0000-65.png
00000014,414,1,1449760554730,1449760555212,374,457,0,0,0,1,2,1,3,0004-00-0000-44.png,0003-00-0001-07.png
00000014,415,0,1449760556360,1449760557295,877,441,0,0,0,3,4,1,7,0002-00-0000-14.png,0001-00-0000-48.png
00000014,416,0,1449760560503,1449760560959,888,554,0,0,0,2,3,1,5,0003-00-0000-26.png,0002-00-0001-99.png
00000014,417,0,1449760564171,1449760564604,868,564,0,0,0,2,3,1,5,0003-00-0000-14.png,0002-00-0000-20.png
00000014,418,0,1449760567614,1449760568060,931,440,0,0,0,3,4,1,7,0002-00-0001-03.png,0001-00-0001-64.png
00000014,419,1,1449760570956,1449760571376,974,429,0,0,0,2,1,1,3,0003-00-0001-81.png,0004-00-0001-97.png
00000014,420,1,1449760572380,1449760573216,901,476,0,0,0,3,2,1,5,0002-00-0001-77.png,0003-00-0001-03.png
00000014,421,1,1449760574249,1449760574664,334,456,0,0,0,1,2,1,3,0004-00-0000-57.png,0003-00-0001-94.png
00000014,422,1,1449760575745,1449760576135,384,471,0,0,0,0,1,1,1,0005-00-0001-85.png,0004-00-0000-73.png
00000014,423,1,1449760577240,1449760577883,901,461,0,0,0,1,0,1,1,0004-00-0001-50.png,0005-00-0001-85.png
00000014,424,0,1449760578953,1449760579312,318,470,0,0,0,4,3,1,7,0001-00-0000-68.png,0002-00-0001-74.png
00000014,425,0,1449760582351,1449760582751,903,468,0,0,0,2,3,1,5,0003-00-0001-08.png,0002-00-0000-95.png
00000014,426,0,1449760585896,1449760585912,519,488,0,0,0,4,3,1,7,0001-00-0001-08.png,0002-00-0001-57.png
00000014,427,0,1449760588818,1449760589285,392,460,0,0,0,3,2,1,5,0002-00-0000-83.png,0003-00-0000-62.png
00000014,428,1,1449760592215,1449760592717,413,459,0,0,0,0,1,1,1,0005-00-0000-87.png,0004-00-0001-51.png
00000014,429,1,1449760593758,1449760594459,921,471,0,0,0,1,0,1,1,0004-00-0001-22.png,0005-00-0001-44.png
00000014,430,1,1449760595468,1449760596078,875,461,0,0,0,2,1,1,3,0003-00-0000-52.png,0004-00-0000-88.png
00000014,431,1,1449760597179,1449760597612,338,475,0,0,0,1,2,1,3,0004-00-0000-77.png,0003-00-0001-57.png
00000014,432,1,1449760598749,1449760599098,388,464,0,0,0,3,4,1,7,0002-00-0001-14.png,0001-00-0000-17.png
00000014,433,1,1449760600240,1449760600712,377,474,0,0,0,0,1,1,1,0005-00-0000-28.png,0004-00-0001-13.png
00000014,434,1,1449760601851,1449760602515,882,470,0,0,0,3,2,1,5,0002-00-0001-88.png,0003-00-0000-60.png
00000014,435,0,1449760603630,1449760604301,902,466,0,0,0,1,2,1,3,0004-00-0000-14.png,0003-00-0000-24.png
00000014,436,0,1449760607396,1449760607810,893,562,0,0,0,2,3,1,5,0003-00-0001-81.png,0002-00-0000-80.png
00000014,437,1,1449760610874,1449760611393,978,410,0,0,0,4,3,1,7,0001-00-0000-41.png,0002-00-0001-82.png
00000014,438,0,1449760612417,1449760612982,876,460,0,0,0,3,4,1,7,0002-00-0000-02.png,0001-00-0001-25.png
00000014,439,1,1449760616193,1449760616671,924,456,0,0,0,1,0,1,1,0004-00-0000-83.png,0005-00-0000-73.png
00000014,440,1,1449760617774,1449760618387,887,450,0,0,0,2,1,1,3,0003-00-0001-69.png,0004-00-0000-29.png
00000014,441,1,1449760619503,1449760620159,902,469,0,0,0,2,1,1,3,0003-00-0000-07.png,0004-00-0000-09.png
00000014,442,1,1449760621312,1449760621776,374,475,0,0,0,1,2,1,3,0004-00-0000-00.png,0003-00-0001-34.png
00000014,443,0,1449760622971,1449760623517,868,483,0,0,0,3,4,1,7,0002-00-0000-96.png,0001-00-0000-85.png
00000014,444,0,1449760626500,1449760626962,904,545,0,0,0,2,3,1,5,0003-00-0000-27.png,0002-00-0001-69.png
00000014,445,1,1449760629957,1449760630485,942,508,0,0,0,3,2,1,5,0002-00-0001-11.png,0003-00-0001-59.png
00000014,446,1,1449760631499,1449760632023,921,446,0,0,0,1,0,1,1,0004-00-0000-30.png,0005-00-0000-24.png
00000014,447,1,1449760633489,1449760633899,363,497,0,0,0,0,1,1,1,0005-00-0000-82.png,0004-00-0000-99.png
00000014,448,0,1449760635096,1449760635522,427,462,0,0,0,4,3,1,7,0001-00-0000-56.png,0002-00-0001-30.png
00000014,449,0,1449760638498,1449760638930,939,449,0,0,0,2,3,1,5,0003-00-0001-17.png,0002-00-0001-92.png
00000014,450,0,1449760641954,1449760642412,964,410,0,0,0,3,4,1,7,0002-00-0001-34.png,0001-00-0001-34.png
00000014,451,1,1449760645586,1449760646007,958,462,0,0,0,3,2,1,5,0002-00-0001-52.png,0003-00-0001-16.png
00000014,452,1,1449760647034,1449760647735,905,470,0,0,0,2,1,1,3,0003-00-0001-20.png,0004-00-0000-81.png
00000014,453,0,1449760648810,1449760649324,391,454,0,0,0,1,0,1,1,0004-00-0001-16.png,0005-00-0000-65.png
00000014,454,0,1449760652243,1449760652766,370,413,0,0,0,4,3,1,7,0001-00-0001-29.png,0002-00-0001-96.png
00000014,455,0,1449760655760,1449760656325,951,438,0,0,0,0,1,1,1,0005-00-0000-55.png,0004-00-0001-09.png
00000014,456,0,1449760660053,1449760660604,925,449,0,0,0,1,2,1,3,0004-00-0001-11.png,0003-00-0000-86.png
00000014,457,0,1449760663600,1449760664131,961,473,0,0,0,0,1,1,1,0005-00-0001-72.png,0004-00-0001-90.png
00000014,458,1,1449760667467,1449760667893,896,524,0,0,0,3,2,1,5,0002-00-0001-89.png,0003-00-0001-22.png
00000014,459,1,1449760669373,1449760669918,905,453,0,0,0,2,1,1,3,0003-00-0000-47.png,0004-00-0000-78.png
00000014,460,0,1449760671016,1449760671564,901,462,0,0,0,3,4,1,7,0002-00-0000-94.png,0001-00-0001-04.png
00000014,461,1,1449760674602,1449760675072,943,444,0,0,0,4,3,1,7,0001-00-0000-24.png,0002-00-0000-15.png
00000014,462,0,1449760676146,1449760676538,401,462,0,0,0,1,0,1,1,0004-00-0000-57.png,0005-00-0000-53.png
00000014,463,1,1449760679431,1449760679990,401,469,0,0,0,1,2,1,3,0004-00-0001-22.png,0003-00-0001-87.png
00000014,464,0,1449760681024,1449760682141,904,441,0,0,0,2,3,1,5,0003-00-0001-46.png,0002-00-0000-38.png
00000014,465,0,1449760685295,1449760685671,900,411,0,0,0,2,3,1,5,0003-00-0000-06.png,0002-00-0000-59.png
00000014,466,1,1449760688995,1449760689382,946,414,0,0,0,2,1,1,3,0003-00-0000-67.png,0004-00-0000-24.png
00000014,467,1,1449760690396,1449760690776,401,463,0,0,0,1,2,1,3,0004-00-0001-66.png,0003-00-0000-70.png
00000014,468,1,1449760691857,1449760692358,427,563,0,0,0,0,1,1,1,0005-00-0000-10.png,0004-00-0000-63.png
00000014,469,0,1449760693443,1449760694059,896,446,0,0,0,3,4,1,7,0002-00-0000-93.png,0001-00-0001-35.png
00000014,470,0,1449760697015,1449760697598,444,480,0,0,0,4,3,1,7,0001-00-0001-76.png,0002-00-0000-02.png
00000014,471,0,1449760700568,1449760700592,516,462,0,0,0,3,2,1,5,0002-00-0000-18.png,0003-00-0000-22.png
00000014,472,1,1449760703722,1449760704156,952,436,0,0,0,1,0,1,1,0004-00-0001-75.png,0005-00-0000-54.png
00000014,473,1,1449760705182,1449760705646,331,472,0,0,0,0,1,1,1,0005-00-0001-13.png,0004-00-0000-48.png
00000014,474,1,1449760706715,1449760707258,897,458,0,0,0,1,0,1,1,0004-00-0000-38.png,0005-00-0001-48.png
00000014,475,1,1449760708382,1449760709172,872,445,0,0,0,3,2,1,5,0002-00-0000-13.png,0003-00-0000-63.png
00000014,476,1,1449760710364,1449760710870,899,465,0,0,0,2,1,1,3,0003-00-0001-21.png,0004-00-0001-20.png
00000014,477,0,1449760712141,1449760712532,409,480,0,0,0,4,3,1,7,0001-00-0001-55.png,0002-00-0000-16.png
00000014,478,0,1449760715401,1449760715835,874,516,0,0,0,2,3,1,5,0003-00-0001-39.png,0002-00-0000-87.png
00000014,479,0,1449760718820,1449760719356,953,477,0,0,0,1,2,1,3,0004-00-0001-20.png,0003-00-0000-77.png
00000014,480,0,1449760722298,1449760722784,928,472,0,0,0,3,4,1,7,0002-00-0000-30.png,0001-00-0001-81.png
00000014,481,0,1449760725656,1449760726155,899,489,0,0,0,1,2,1,3,0004-00-0000-38.png,0003-00-0000-21.png
00000014,482,0,1449760729227,1449760729669,951,436,0,0,0,0,1,1,1,0005-00-0000-75.png,0004-00-0000-69.png
00000014,483,1,1449760732584,1449760732980,951,436,0,0,0,3,2,1,5,0002-00-0001-72.png,0003-00-0001-69.png
00000014,484,0,1449760733985,1449760734547,868,455,0,0,0,2,3,1,5,0003-00-0000-19.png,0002-00-0000-14.png
00000014,485,0,1449760737681,1449760738085,952,409,0,0,0,3,4,1,7,0002-00-0000-79.png,0001-00-0000-11.png
00000014,486,1,1449760741669,1449760742088,917,414,0,0,0,2,1,1,3,0003-00-0000-17.png,0004-00-0001-56.png
00000014,487,1,1449760743089,1449760743632,878,443,0,0,0,4,3,1,7,0001-00-0000-52.png,0002-00-0000-97.png
00000014,488,0,1449760744779,1449760745262,376,492,0,0,0,1,0,1,1,0004-00-0001-27.png,0005-00-0001-18.png
00000014,489,1,1449760748487,1449760748912,939,423,0,0,0,2,1,1,3,0003-00-0000-70.png,0004-00-0000-10.png
00000014,490,0,1449760750059,1449760750594,881,457,0,0,0,3,4,1,7,0002-00-0000-40.png,0001-00-0000-28.png
00000014,491,1,1449760753636,1449760754114,389,462,0,0,0,0,1,1,1,0005-00-0000-03.png,0004-00-0000-44.png
00000014,492,0,1449760755214,1449760755890,895,463,0,0,0,2,3,1,5,0003-00-0001-37.png,0002-00-0000-92.png
00000014,493,1,1449760758773,1449760759270,954,441,0,0,0,3,2,1,5,0002-00-0001-18.png,0003-00-0000-82.png
00000014,494,1,1449760760325,1449760760997,925,448,0,0,0,1,0,1,1,0004-00-0001-59.png,0005-00-0000-62.png
00000014,495,0,1449760762342,1449760763384,411,446,0,0,0,4,3,1,7,0001-00-0001-04.png,0002-00-0001-26.png
00000014,496,0,1449760766506,1449760766926,935,447,0,0,0,1,2,1,3,0004-00-0001-52.png,0003-00-0000-50.png
00000014,497,0,1449760769864,1449760770269,899,543,0,0,0,2,3,1,5,0003-00-0001-17.png,0002-00-0000-45.png
00000014,498,1,1449760773634,1449760774137,371,465,0,0,0,0,1,1,1,0005-00-0001-78.png,0004-00-0001-80.png
00000014,499,0,1449760775202,1449760775776,879,480,0,0,0,3,4,1,7,0002-00-0001-38.png,0001-00-0001-78.png
00000014,500,1,1449760779764,1449760780175,936,470,0,0,0,3,2,1,5,0002-00-0000-45.png,0003-00-0001-81.png
00000014,501,1,1449760781215,1449760781867,904,453,0,0,0,4,3,1,7,0001-00-0000-47.png,0002-00-0000-89.png
00000014,502,1,1449760782895,1449760783274,427,501,0,0,0,1,2,1,3,0004-00-0000-08.png,0003-00-0001-91.png
00000014,503,1,1449760784535,1449760785113,879,454,0,0,0,2,1,1,3,0003-00-0001-40.png,0004-00-0000-45.png
00000014,504,1,1449760786402,1449760786961,903,468,0,0,0,1,0,1,1,0004-00-0001-52.png,0005-00-0001-44.png
00000014,505,0,1449760788134,1449760788711,868,458,0,0,0,3,4,1,7,0002-00-0000-32.png,0001-00-0001-62.png
00000014,506,1,1449760791761,1449760792196,951,437,0,0,0,4,3,1,7,0001-00-0000-36.png,0002-00-0000-88.png
00000014,507,1,1449760793272,1449760793729,379,453,0,0,0,1,2,1,3,0004-00-0000-72.png,0003-00-0000-70.png
00000014,508,1,1449760794872,1449760795448,883,471,0,0,0,2,1,1,3,0003-00-0000-10.png,0004-00-0000-90.png
00000014,509,1,1449760796659,1449760797202,878,468,0,0,0,3,2,1,5,0002-00-0000-63.png,0003-00-0001-37.png
00000014,510,0,1449760798321,1449760798857,862,488,0,0,0,2,3,1,5,0003-00-0001-67.png,0002-00-0000-64.png
00000014,511,1,1449760801717,1449760802144,926,423,0,0,0,1,0,1,1,0004-00-0001-15.png,0005-00-0001-45.png
00000014,512,1,1449760803216,1449760803742,407,565,0,0,0,0,1,1,1,0005-00-0000-76.png,0004-00-0001-83.png
00000014,513,0,1449760804857,1449760805401,900,488,0,0,0,3,4,1,7,0002-00-0001-14.png,0001-00-0001-48.png
00000014,514,1,1449760808519,1449760808992,368,436,0,0,0,0,1,1,1,0005-00-0001-96.png,0004-00-0000-45.png
00000014,515,0,1449760810622,1449760811086,427,477,0,0,0,4,3,1,7,0001-00-0001-42.png,0002-00-0000-12.png
00000014,516,0,1449760813975,1449760814442,912,500,0,0,0,2,3,1,5,0003-00-0001-53.png,0002-00-0000-88.png
00000014,517,1,1449760817413,1449760818018,923,435,0,0,0,1,0,1,1,0004-00-0001-96.png,0005-00-0000-67.png
00000014,518,1,1449760819133,1449760819657,874,449,0,0,0,3,2,1,5,0002-00-0000-14.png,0003-00-0001-06.png
00000014,519,1,1449760820744,1449760821306,872,456,0,0,0,2,1,1,3,0003-00-0001-80.png,0004-00-0000-98.png
00000014,520,0,1449760822553,1449760823117,887,450,0,0,0,1,2,1,3,0004-00-0001-05.png,0003-00-0000-31.png
00000014,521,0,1449760826236,1449760826605,926,436,0,0,0,2,3,1,5,0003-00-0000-89.png,0002-00-0000-26.png
00000014,522,1,1449760829799,1449760830250,942,467,0,0,0,1,0,1,1,0004-00-0001-30.png,0005-00-0000-51.png
00000014,523,1,1449760831307,1449760831728,332,472,0,0,0,0,1,1,1,0005-00-0000-96.png,0004-00-0001-58.png
00000014,524,0,1449760832968,1449760833916,873,509,0,0,0,3,4,1,7,0002-00-0001-66.png,0001-00-0000-26.png
00000014,525,1,1449760836757,1449760837186,925,409,0,0,0,4,3,1,7,0001-00-0000-28.png,0002-00-0000-02.png
00000014,526,0,1449760838125,1449760838141,515,462,0,0,0,2,1,1,3,0003-00-0001-68.png,0004-00-0000-20.png
00000014,527,0,1449760841267,1449760841745,956,427,0,0,0,1,2,1,3,0004-00-0000-12.png,0003-00-0001-98.png
00000014,528,1,1449760844837,1449760845280,954,442,0,0,0,3,2,1,5,0002-00-0001-92.png,0003-00-0000-56.png
00000014,529,1,1449760846346,1449760846901,902,469,0,0,0,1,0,1,1,0004-00-0000-86.png,0005-00-0001-43.png
00000014,530,1,1449760848008,1449760848594,878,467,0,0,0,2,1,1,3,0003-00-0000-25.png,0004-00-0001-40.png
00000014,531,0,1449760849696,1449760850319,876,461,0,0,0,2,3,1,5,0003-00-0001-10.png,0002-00-0001-62.png
00000014,532,1,1449760853227,1449760853259,519,518,0,0,0,1,2,1,3,0004-00-0001-43.png,0003-00-0000-63.png
00000014,533,1,1449760854318,1449760854902,888,463,0,0,0,4,3,1,7,0001-00-0000-88.png,0002-00-0000-16.png
00000014,534,1,1449760856038,1449760856644,862,501,0,0,0,3,2,1,5,0002-00-0000-15.png,0003-00-0000-46.png
00000014,535,0,1449760857846,1449760858558,872,483,0,0,0,3,4,1,7,0002-00-0000-80.png,0001-00-0001-12.png
00000014,536,0,1449760861980,1449760862726,927,397,0,0,0,0,1,1,1,0005-00-0000-93.png,0004-00-0000-12.png
00000014,537,1,1449760866080,1449760866540,932,444,0,0,0,4,3,1,7,0001-00-0001-46.png,0002-00-0001-34.png
00000014,538,1,1449760867546,1449760868127,880,454,0,0,0,2,1,1,3,0003-00-0000-74.png,0004-00-0000-21.png
00000014,539,0,1449760869237,1449760870203,376,397,0,0,0,3,2,1,5,0002-00-0001-82.png,0003-00-0001-83.png
00000014,540,0,1449760873135,1449760873586,915,467,0,0,0,3,4,1,7,0002-00-0001-84.png,0001-00-0000-67.png
00000014,541,0,1449760876821,1449760877297,956,453,0,0,0,0,1,1,1,0005-00-0001-36.png,0004-00-0000-48.png
00000014,542,0,1449760880127,1449760880544,873,416,0,0,0,1,2,1,3,0004-00-0001-52.png,0003-00-0000-43.png
00000014,543,1,1449760883777,1449760884217,937,437,0,0,0,1,0,1,1,0004-00-0001-19.png,0005-00-0000-73.png
00000014,544,1,1449760885335,1449760886090,408,453,0,0,0,2,3,1,5,0003-00-0001-66.png,0002-00-0000-44.png
00000014,545,1,1449760887243,1449760887807,870,473,0,0,0,2,1,1,3,0003-00-0001-79.png,0004-00-0001-70.png
00000014,546,0,1449760889031,1449760889417,401,466,0,0,0,4,3,1,7,0001-00-0000-09.png,0002-00-0001-26.png
00000014,547,1,1449760892406,1449760892974,372,412,0,0,0,1,2,1,3,0004-00-0000-65.png,0003-00-0000-14.png
00000014,548,1,1449760894024,1449760894769,401,424,0,0,0,2,3,1,5,0003-00-0001-43.png,0002-00-0001-98.png
00000014,549,1,1449760895884,1449760896328,340,455,0,0,0,3,4,1,7,0002-00-0000-33.png,0001-00-0000-65.png
00000014,550,1,1449760897495,1449760897940,402,477,0,0,0,0,1,1,1,0005-00-0001-92.png,0004-00-0000-34.png
00000014,551,1,1449760899639,1449760900120,878,467,0,0,0,1,0,1,1,0004-00-0001-39.png,0005-00-0000-52.png
00000014,552,1,1449760901258,1449760901834,874,463,0,0,0,3,2,1,5,0002-00-0001-04.png,0003-00-0001-66.png
00000014,553,1,1449760903031,1449760903452,383,496,0,0,0,2,3,1,5,0003-00-0000-05.png,0002-00-0000-59.png
00000014,554,0,1449760904590,1449760905113,375,495,0,0,0,4,3,1,7,0001-00-0001-07.png,0002-00-0001-95.png
00000014,555,1,1449760908039,1449760908524,933,471,0,0,0,3,2,1,5,0002-00-0000-35.png,0003-00-0001-52.png
00000014,556,1,1449760909571,1449760910142,881,505,0,0,0,2,1,1,3,0003-00-0000-86.png,0004-00-0001-37.png
00000014,557,1,1449760911240,1449760911900,894,463,0,0,0,1,0,1,1,0004-00-0001-26.png,0005-00-0001-60.png
00000014,558,1,1449760913047,1449760913451,330,488,0,0,0,0,1,1,1,0005-00-0001-83.png,0004-00-0001-97.png
00000014,559,1,1449760914678,1449760915789,416,443,0,0,0,1,2,1,3,0004-00-0000-49.png,0003-00-0000-86.png
00000014,560,1,1449760916961,1449760917423,401,436,0,0,0,3,4,1,7,0002-00-0001-42.png,0001-00-0000-60.png
00000014,561,1,1449760918627,1449760919209,876,460,0,0,0,2,1,1,3,0003-00-0000-81.png,0004-00-0001-51.png
00000014,562,0,1449760920382,1449760920951,883,461,0,0,0,3,4,1,7,0002-00-0001-38.png,0001-00-0000-84.png
00000014,563,1,1449760924040,1449760924509,949,459,0,0,0,1,0,1,1,0004-00-0001-04.png,0005-00-0000-29.png
00000014,564,0,1449760925613,1449760926240,878,469,0,0,0,1,2,1,3,0004-00-0001-46.png,0003-00-0000-55.png
00000014,565,1,1449760929120,1449760929703,902,546,0,0,0,4,3,1,7,0001-00-0000-92.png,0002-00-0000-20.png
00000014,566,0,1449760930778,1449760931383,870,471,0,0,0,2,3,1,5,0003-00-0001-35.png,0002-00-0000-77.png
00000014,567,1,1449760934348,1449760934836,910,501,0,0,0,3,2,1,5,0002-00-0000-86.png,0003-00-0000-01.png
00000014,568,1,1449760935890,1449760936300,376,436,0,0,0,0,1,1,1,0005-00-0000-18.png,0004-00-0000-16.png
00000014,569,0,1449760937411,1449760937953,875,464,0,0,0,2,3,1,5,0003-00-0001-53.png,0002-00-0001-42.png
00000014,570,1,1449760940958,1449760941473,942,467,0,0,0,4,3,1,7,0001-00-0000-82.png,0002-00-0001-30.png
00000014,571,1,1449760942599,1449760943174,860,562,0,0,0,1,0,1,1,0004-00-0001-05.png,0005-00-0000-45.png
00000014,572,1,1449760944358,1449760944852,894,455,0,0,0,3,2,1,5,0002-00-0001-07.png,0003-00-0000-28.png
00000014,573,1,1449760946178,1449760946914,896,472,0,0,0,2,1,1,3,0003-00-0001-08.png,0004-00-0000-31.png
00000014,574,0,1449760948125,1449760948647,880,480,0,0,0,3,4,1,7,0002-00-0000-08.png,0001-00-0001-97.png
00000014,575,0,1449760951743,1449760952249,936,471,0,0,0,1,2,1,3,0004-00-0000-79.png,0003-00-0001-87.png
00000014,576,1,1449760955271,1449760955291,504,514,0,0,0,0,1,1,1,0005-00-0000-43.png,0004-00-0001-31.png
00000014,577,1,1449760956485,1449760957068,895,467,0,0,0,3,2,1,5,0002-00-0000-11.png,0003-00-0000-73.png
00000014,578,1,1449760958830,1449760959297,421,470,0,0,0,0,1,1,1,0005-00-0000-77.png,0004-00-0001-96.png
00000014,579,0,1449760960458,1449760961435,446,442,0,0,0,1,0,1,1,0004-00-0001-93.png,0005-00-0000-02.png
00000014,580,0,1449760964295,1449760964720,888,514,0,0,0,3,4,1,7,0002-00-0000-92.png,0001-00-0001-38.png
00000014,581,0,1449760967654,1449760968059,925,464,0,0,0,2,3,1,5,0003-00-0001-10.png,0002-00-0000-55.png
00000014,582,1,1449760971432,1449760971814,936,467,0,0,0,4,3,1,7,0001-00-0001-86.png,0002-00-0001-47.png
00000014,583,1,1449760972838,1449760973279,325,449,0,0,0,1,2,1,3,0004-00-0001-16.png,0003-00-0000-75.png
00000014,584,1,1449760974373,1449760974909,904,453,0,0,0,2,1,1,3,0003-00-0000-88.png,0004-00-0000-98.png
00000014,585,1,1449760976041,1449760976483,366,562,0,0,0,1,2,1,3,0004-00-0001-72.png,0003-00-0000-03.png
00000014,586,1,1449760977614,1449760978021,381,557,0,0,0,0,1,1,1,0005-00-0000-63.png,0004-00-0001-60.png
00000014,587,1,1449760979194,1449760979801,903,440,0,0,0,2,1,1,3,0003-00-0001-38.png,0004-00-0000-59.png
00000014,588,0,1449760981011,1449760981530,376,410,0,0,0,1,0,1,1,0004-00-0000-68.png,0005-00-0001-19.png
00000014,589,0,1449760984389,1449760984846,926,410,0,0,0,3,4,1,7,0002-00-0001-63.png,0001-00-0000-44.png
00000014,590,1,1449760988219,1449760988621,952,436,0,0,0,3,2,1,5,0002-00-0001-76.png,0003-00-0001-20.png
00000014,591,1,1449760989675,1449760990444,906,471,0,0,0,4,3,1,7,0001-00-0000-37.png,0002-00-0001-59.png
00000014,592,1,1449760991486,1449760992512,376,424,0,0,0,2,3,1,5,0003-00-0000-52.png,0002-00-0000-60.png
00000014,593,1,1449760994072,1449760994648,871,458,0,0,0,3,2,1,5,0002-00-0001-99.png,0003-00-0000-15.png
00000014,594,0,1449760995713,1449760996252,885,471,0,0,0,2,3,1,5,0003-00-0000-22.png,0002-00-0001-41.png
00000014,595,0,1449760999239,1449760999718,931,481,0,0,0,1,2,1,3,0004-00-0000-50.png,0003-00-0000-83.png
00000014,596,1,1449761002569,1449761003009,939,423,0,0,0,2,1,1,3,0003-00-0001-29.png,0004-00-0001-74.png
00000014,597,1,1449761004022,1449761004468,383,462,0,0,0,0,1,1,1,0005-00-0001-32.png,0004-00-0001-18.png
00000014,598,1,1449761005710,1449761006304,900,490,0,0,0,4,3,1,7,0001-00-0000-41.png,0002-00-0000-26.png
00000014,599,1,1449761007447,1449761008092,895,471,0,0,0,1,0,1,1,0004-00-0000-38.png,0005-00-0001-29.png
00000014,600,0,1449761009259,1449761009842,874,448,0,0,0,3,4,1,7,0002-00-0001-16.png,0001-00-0000-66.png
00000014,601,1,1449761012767,1449761013463,899,412,0,0,0,3,2,1,5,0002-00-0000-53.png,0003-00-0001-59.png
00000014,602,1,1449761014578,1449761015225,877,460,0,0,0,4,3,1,7,0001-00-0000-21.png,0002-00-0001-72.png
00000014,603,0,1449761016286,1449761017401,925,423,0,0,0,2,3,1,5,0003-00-0000-68.png,0002-00-0001-88.png
00000014,604,0,1449761020341,1449761020748,930,488,0,0,0,3,4,1,7,0002-00-0001-94.png,0001-00-0001-03.png
00000014,605,1,1449761024028,1449761024521,344,437,0,0,0,0,1,1,1,0005-00-0000-88.png,0004-00-0000-74.png
00000014,606,0,1449761025798,1449761026452,905,480,0,0,0,1,2,1,3,0004-00-0000-42.png,0003-00-0001-91.png
00000014,607,1,1449761029413,1449761029850,945,451,0,0,0,1,0,1,1,0004-00-0001-18.png,0005-00-0001-74.png
00000014,608,1,1449761031014,1449761031545,913,475,0,0,0,2,1,1,3,0003-00-0001-24.png,0004-00-0001-12.png
00000014,609,0,1449761032613,1449761033112,383,514,0,0,0,3,2,1,5,0002-00-0001-77.png,0003-00-0000-98.png
00000014,610,0,1449761036064,1449761036581,935,472,0,0,0,2,3,1,5,0003-00-0000-20.png,0002-00-0001-80.png
00000014,611,0,1449761039420,1449761040475,883,501,0,0,0,3,4,1,7,0002-00-0000-44.png,0001-00-0001-90.png
00000014,612,0,1449761043847,1449761044275,858,553,0,0,0,1,2,1,3,0004-00-0001-30.png,0003-00-0000-88.png
00000014,613,1,1449761047136,1449761047591,904,455,0,0,0,4,3,1,7,0001-00-0001-90.png,0002-00-0000-66.png
00000014,614,1,1449761048536,1449761049077,893,469,0,0,0,2,1,1,3,0003-00-0000-88.png,0004-00-0000-96.png
00000014,615,0,1449761050169,1449761050636,338,476,0,0,0,1,0,1,1,0004-00-0000-55.png,0005-00-0001-52.png
00000014,616,1,1449761053538,1449761054058,406,454,0,0,0,0,1,1,1,0005-00-0001-18.png,0004-00-0000-38.png
00000014,617,1,1449761055079,1449761055974,396,520,0,0,0,0,1,1,1,0005-00-0001-54.png,0004-00-0000-69.png
00000014,618,1,1449761057065,1449761057836,893,457,0,0,0,3,2,1,5,0002-00-0000-08.png,0003-00-0000-87.png
00000014,619,1,1449761058955,1449761059467,858,457,0,0,0,2,1,1,3,0003-00-0000-21.png,0004-00-0001-27.png
00000014,620,1,1449761060553,1449761060957,389,498,0,0,0,2,3,1,5,0003-00-0000-38.png,0002-00-0001-52.png
00000014,621,0,1449761062005,1449761062421,401,493,0,0,0,4,3,1,7,0001-00-0001-69.png,0002-00-0000-46.png
00000014,622,1,1449761065294,1449761065798,944,466,0,0,0,1,0,1,1,0004-00-0001-77.png,0005-00-0001-55.png
00000014,623,0,1449761066817,1449761067448,876,468,0,0,0,3,4,1,7,0002-00-0001-61.png,0001-00-0001-30.png
00000014,624,0,1449761070564,1449761071175,927,467,0,0,0,1,2,1,3,0004-00-0000-50.png,0003-00-0000-12.png
00000014,625,1,1449761074152,1449761074618,949,479,0,0,0,2,1,1,3,0003-00-0001-21.png,0004-00-0000-66.png
00000014,626,1,1449761075620,1449761076254,866,563,0,0,0,1,0,1,1,0004-00-0000-29.png,0005-00-0001-32.png
00000014,627,1,1449761077251,1449761077275,504,488,0,0,0,0,1,1,1,0005-00-0001-52.png,0004-00-0001-50.png
00000014,628,0,1449761078534,1449761079066,875,489,0,0,0,2,3,1,5,0003-00-0000-58.png,0002-00-0000-15.png
00000014,629,1,1449761082480,1449761082993,928,492,0,0,0,3,2,1,5,0002-00-0001-37.png,0003-00-0000-45.png
00000014,630,0,1449761084089,1449761084849,869,493,0,0,0,3,4,1,7,0002-00-0001-43.png,0001-00-0000-79.png
00000014,631,1,1449761087807,1449761088216,939,449,0,0,0,4,3,1,7,0001-00-0001-88.png,0002-00-0001-92.png
00000014,632,1,1449761089210,1449761089665,432,488,0,0,0,1,2,1,3,0004-00-0001-55.png,0003-00-0000-62.png
00000014,633,1,1449761090874,1449761091448,898,484,0,0,0,4,3,1,7,0001-00-0001-39.png,0002-00-0001-71.png
00000014,634,1,1449761092535,1449761093192,876,488,0,0,0,2,1,1,3,0003-00-0000-68.png,0004-00-0000-41.png
00000014,635,1,1449761094258,1449761094789,339,466,0,0,0,0,1,1,1,0005-00-0000-22.png,0004-00-0001-63.png
00000014,636,1,1449761095958,1449761097030,420,523,0,0,0,3,4,1,7,0002-00-0001-04.png,0001-00-0000-46.png
00000014,637,1,1449761098145,1449761099223,868,450,0,0,0,3,2,1,5,0002-00-0001-74.png,0003-00-0001-68.png
00000014,638,1,1449761100312,1449761100824,901,477,0,0,0,1,0,1,1,0004-00-0001-47.png,0005-00-0000-64.png
00000014,639,0,1449761102000,1449761102566,890,484,0,0,0,2,3,1,5,0003-00-0000-33.png,0002-00-0000-54.png
00000014,640,1,1449761105567,1449761106023,432,566,0,0,0,1,2,1,3,0004-00-0000-64.png,0003-00-0000-60.png
00000014,641,1,1449761107077,1449761107481,397,488,0,0,0,0,1,1,1,0005-00-0001-37.png,0004-00-0000-79.png
00000014,642,0,1449761108682,1449761109081,356,488,0,0,0,4,3,1,7,0001-00-0001-85.png,0002-00-0000-24.png
00000014,643,0,1449761111959,1449761112663,888,449,0,0,0,2,3,1,5,0003-00-0000-14.png,0002-00-0000-06.png
00000014,644,0,1449761115706,1449761116133,939,471,0,0,0,3,4,1,7,0002-00-0000-83.png,0001-00-0000-57.png
00000014,645,1,1449761119099,1449761119541,952,462,0,0,0,2,1,1,3,0003-00-0000-04.png,0004-00-0001-39.png
00000014,646,1,1449761120546,1449761121144,874,462,0,0,0,1,0,1,1,0004-00-0001-96.png,0005-00-0001-05.png
00000014,647,1,1449761122734,1449761123200,356,438,0,0,0,1,2,1,3,0004-00-0000-00.png,0003-00-0000-59.png
00000014,648,0,1449761124268,1449761125194,463,410,0,0,0,3,2,1,5,0002-00-0000-00.png,0003-00-0001-35.png
00000014,649,1,1449761128038,1449761128710,404,518,0,0,0,0,1,1,1,0005-00-0001-81.png,0004-00-0001-00.png
00000014,650,0,1449761129820,1449761130852,404,406,0,0,0,4,3,1,7,0001-00-0001-83.png,0002-00-0001-97.png
00000014,651,0,1449761133763,1449761134235,870,418,0,0,0,3,4,1,7,0002-00-0001-58.png,0001-00-0000-09.png
00000014,652,0,1449761137778,1449761138235,395,403,0,0,0,3,2,1,5,0002-00-0000-67.png,0003-00-0001-95.png
00000014,653,1,1449761141345,1449761141753,954,470,0,0,0,1,0,1,1,0004-00-0001-35.png,0005-00-0000-60.png
00000014,654,0,1449761142740,1449761143321,881,470,0,0,0,2,3,1,5,0003-00-0000-73.png,0002-00-0000-08.png
00000014,655,0,1449761146345,1449761146782,972,461,0,0,0,1,2,1,3,0004-00-0001-46.png,0003-00-0000-11.png
00000014,656,1,1449761150332,1449761150819,930,480,0,0,0,2,1,1,3,0003-00-0001-92.png,0004-00-0000-50.png
00000014,657,1,1449761152258,1449761152916,900,462,0,0,0,4,3,1,7,0001-00-0001-44.png,0002-00-0001-11.png
00000014,658,1,1449761154001,1449761154536,869,446,0,0,0,2,1,1,3,0003-00-0000-54.png,0004-00-0001-24.png
00000014,659,0,1449761155709,1449761156079,377,481,0,0,0,3,2,1,5,0002-00-0000-29.png,0003-00-0001-08.png
00000014,660,0,1449761159419,1449761159861,950,439,0,0,0,0,1,1,1,0005-00-0000-19.png,0004-00-0000-98.png
00000014,661,1,1449761162837,1449761162865,507,481,0,0,0,2,3,1,5,0003-00-0000-90.png,0002-00-0001-00.png
00000014,662,1,1449761163941,1449761164501,911,470,0,0,0,1,0,1,1,0004-00-0000-70.png,0005-00-0001-20.png
00000014,663,0,1449761165831,1449761166363,901,440,0,0,0,3,4,1,7,0002-00-0000-44.png,0001-00-0000-36.png
00000014,664,0,1449761169317,1449761169965,976,449,0,0,0,1,2,1,3,0004-00-0001-04.png,0003-00-0000-06.png
00000014,665,1,1449761172974,1449761173376,919,477,0,0,0,3,2,1,5,0002-00-0001-18.png,0003-00-0000-52.png
00000014,666,0,1449761174345,1449761174843,903,466,0,0,0,3,4,1,7,0002-00-0000-69.png,0001-00-0001-03.png
00000014,667,0,1449761178282,1449761178764,922,490,0,0,0,1,2,1,3,0004-00-0001-88.png,0003-00-0001-93.png
00000014,668,0,1449761181839,1449761182452,963,404,0,0,0,0,1,1,1,0005-00-0000-84.png,0004-00-0000-76.png
00000014,669,1,1449761185528,1449761185956,952,450,0,0,0,4,3,1,7,0001-00-0001-96.png,0002-00-0001-58.png
00000014,670,1,1449761186919,1449761187452,902,460,0,0,0,2,1,1,3,0003-00-0000-56.png,0004-00-0001-45.png
00000014,671,1,1449761188688,1449761189208,892,469,0,0,0,1,0,1,1,0004-00-0001-64.png,0005-00-0000-58.png
00000014,672,0,1449761190278,1449761190820,867,443,0,0,0,2,3,1,5,0003-00-0000-62.png,0002-00-0000-58.png
00000014,673,1,1449761193718,1449761194202,924,483,0,0,0,4,3,1,7,0001-00-0000-86.png,0002-00-0001-35.png
00000014,674,1,1449761195214,1449761195808,878,478,0,0,0,2,1,1,3,0003-00-0000-80.png,0004-00-0000-68.png
00000014,675,1,1449761196897,1449761197368,360,460,0,0,0,1,2,1,3,0004-00-0001-21.png,0003-00-0000-06.png
00000014,676,1,1449761198458,1449761198867,401,436,0,0,0,0,1,1,1,0005-00-0000-96.png,0004-00-0001-05.png
00000014,677,0,1449761199970,1449761200689,874,491,0,0,0,2,3,1,5,0003-00-0001-67.png,0002-00-0001-75.png
00000014,678,1,1449761203725,1449761204139,931,462,0,0,0,3,2,1,5,0002-00-0001-09.png,0003-00-0000-07.png
00000014,679,0,1449761205136,1449761205724,877,468,0,0,0,3,4,1,7,0002-00-0000-32.png,0001-00-0001-08.png
00000014,680,1,1449761208765,1449761209229,939,475,0,0,0,1,0,1,1,0004-00-0001-14.png,0005-00-0001-59.png
00000014,681,0,1449761210236,1449761211495,922,444,0,0,0,1,2,1,3,0004-00-0000-51.png,0003-00-0001-78.png
00000014,682,0,1449761214461,1449761214525,522,486,0,0,0,1,0,1,1,0004-00-0001-95.png,0005-00-0000-61.png
00000014,683,0,1449761217611,1449761218024,900,541,0,0,0,3,4,1,7,0002-00-0000-44.png,0001-00-0001-38.png
00000014,684,1,1449761221070,1449761221567,960,500,0,0,0,3,2,1,5,0002-00-0000-97.png,0003-00-0001-89.png
00000014,685,1,1449761222492,1449761223110,875,476,0,0,0,4,3,1,7,0001-00-0001-78.png,0002-00-0001-92.png
00000014,686,1,1449761224607,1449761225100,873,456,0,0,0,2,1,1,3,0003-00-0000-38.png,0004-00-0000-28.png
00000014,687,1,1449761226195,1449761226565,364,475,0,0,0,0,1,1,1,0005-00-0001-13.png,0004-00-0001-72.png
00000014,688,0,1449761227790,1449761228836,925,462,0,0,0,2,3,1,5,0003-00-0000-73.png,0002-00-0001-96.png
00000014,689,1,1449761231982,1449761232369,887,449,0,0,0,2,1,1,3,0003-00-0001-94.png,0004-00-0000-56.png
00000014,690,1,1449761233366,1449761233998,923,481,0,0,0,3,2,1,5,0002-00-0000-26.png,0003-00-0001-55.png
00000014,691,0,1449761235033,1449761235676,904,455,0,0,0,1,2,1,3,0004-00-0001-42.png,0003-00-0000-84.png
00000014,692,0,1449761238859,1449761239346,928,469,0,0,0,2,3,1,5,0003-00-0001-11.png,0002-00-0001-01.png
00000014,693,1,1449761242269,1449761242742,414,463,0,0,0,0,1,1,1,0005-00-0000-88.png,0004-00-0000-69.png
00000014,694,0,1449761243777,1449761244323,901,462,0,0,0,3,4,1,7,0002-00-0000-56.png,0001-00-0001-08.png
00000014,695,0,1449761247295,1449761247307,497,452,0,0,0,4,3,1,7,0001-00-0001-00.png,0002-00-0001-35.png
00000014,696,1,1449761250149,1449761250607,932,476,0,0,0,1,0,1,1,0004-00-0000-83.png,0005-00-0000-55.png
00000014,697,1,1449761251573,1449761252361,876,461,0,0,0,2,1,1,3,0003-00-0001-63.png,0004-00-0000-06.png
00000014,698,0,1449761253510,1449761254063,900,489,0,0,0,3,4,1,7,0002-00-0001-73.png,0001-00-0000-37.png
00000014,699,1,1449761257332,1449761257871,364,446,0,0,0,0,1,1,1,0005-00-0000-12.png,0004-00-0001-00.png
00000014,700,0,1449761258997,1449761259452,875,462,0,0,0,2,3,1,5,0003-00-0000-12.png,0002-00-0000-51.png
00000014,701,1,1449761262459,1449761263031,901,443,0,0,0,3,2,1,5,0002-00-0001-56.png,0003-00-0000-34.png
00000014,702,0,1449761264006,1449761264467,413,476,0,0,0,1,0,1,1,0004-00-0001-24.png,0005-00-0000-11.png
00000014,703,1,1449761267344,1449761268019,896,465,0,0,0,4,3,1,7,0001-00-0000-10.png,0002-00-0000-11.png
00000014,704,1,1449761269480,1449761269934,376,463,0,0,0,1,2,1,3,0004-00-0001-52.png,0003-00-0001-90.png
00000014,705,0,1449761271020,1449761271566,901,502,0,0,0,3,4,1,7,0002-00-0000-60.png,0001-00-0001-76.png
00000014,706,1,1449761274530,1449761274976,950,432,0,0,0,3,2,1,5,0002-00-0000-96.png,0003-00-0001-97.png
00000014,707,1,1449761276068,1449761276549,389,489,0,0,0,0,1,1,1,0005-00-0001-67.png,0004-00-0000-18.png
00000014,708,1,1449761277613,1449761278577,901,462,0,0,0,2,1,1,3,0003-00-0001-84.png,0004-00-0000-91.png
00000014,709,1,1449761279888,1449761280412,379,430,0,0,0,2,3,1,5,0003-00-0000-33.png,0002-00-0001-07.png
00000014,710,0,1449761281961,1449761282581,886,450,0,0,0,1,2,1,3,0004-00-0001-08.png,0003-00-0001-28.png
00000014,711,1,1449761285638,1449761286071,925,437,0,0,0,4,3,1,7,0001-00-0000-95.png,0002-00-0001-32.png
00000014,712,1,1449761287157,1449761287706,865,562,0,0,0,1,0,1,1,0004-00-0001-76.png,0005-00-0001-30.png
00000014,713,0,1449761288855,1449761289414,877,469,0,0,0,3,4,1,7,0002-00-0001-95.png,0001-00-0000-13.png
00000014,714,0,1449761292401,1449761292864,941,468,0,0,0,1,2,1,3,0004-00-0000-63.png,0003-00-0001-48.png
00000014,715,1,1449761296039,1449761296473,939,475,0,0,0,2,1,1,3,0003-00-0001-36.png,0004-00-0001-16.png
00000014,716,1,1449761297530,1449761298047,897,485,0,0,0,3,2,1,5,0002-00-0001-75.png,0003-00-0001-91.png
00000014,717,1,1449761299182,1449761299550,345,457,0,0,0,0,1,1,1,0005-00-0001-30.png,0004-00-0001-95.png
00000014,718,1,1449761301137,1449761301602,892,465,0,0,0,1,0,1,1,0004-00-0000-66.png,0005-00-0000-63.png
00000014,719,1,1449761302615,1449761303597,880,479,0,0,0,4,3,1,7,0001-00-0001-50.png,0002-00-0001-06.png
00000014,720,0,1449761304663,1449761305215,861,476,0,0,0,2,3,1,5,0003-00-0001-90.png,0002-00-0000-17.png
00000014,721,1,1449761308059,1449761308807,927,409,0,0,0,1,0,1,1,0004-00-0000-18.png,0005-00-0000-59.png
00000014,722,0,1449761309817,1449761310253,407,489,0,0,0,4,3,1,7,0001-00-0000-08.png,0002-00-0000-94.png
00000014,723,0,1449761313132,1449761313618,932,469,0,0,0,3,4,1,7,0002-00-0001-78.png,0001-00-0000-27.png
00000014,724,0,1449761316603,1449761317286,913,507,0,0,0,0,1,1,1,0005-00-0000-26.png,0004-00-0001-32.png
00000014,725,1,1449761320116,1449761320148,520,541,0,0,0,2,3,1,5,0003-00-0001-37.png,0002-00-0000-36.png
00000014,726,1,1449761321205,1449761321688,898,483,0,0,0,2,1,1,3,0003-00-0001-84.png,0004-00-0001-03.png
00000014,727,1,1449761322765,1449761322789,504,514,0,0,0,1,2,1,3,0004-00-0001-26.png,0003-00-0001-45.png
00000014,728,1,1449761324048,1449761325107,930,455,0,0,0,3,2,1,5,0002-00-0001-03.png,0003-00-0000-09.png
00000014,729,0,1449761326145,1449761326673,877,494,0,0,0,1,2,1,3,0004-00-0001-81.png,0003-00-0000-58.png
00000014,730,1,1449761329612,1449761330182,952,501,0,0,0,1,0,1,1,0004-00-0000-57.png,0005-00-0001-38.png
00000014,731,1,1449761331195,1449761332220,937,450,0,0,0,2,1,1,3,0003-00-0000-23.png,0004-00-0001-42.png
00000014,732,0,1449761333358,1449761334319,929,405,0,0,0,2,3,1,5,0003-00-0001-68.png,0002-00-0001-74.png
00000014,733,0,1449761337282,1449761337718,940,475,0,0,0,3,4,1,7,0002-00-0001-49.png,0001-00-0001-55.png
00000014,734,0,1449761340741,1449761341259,349,468,0,0,0,4,3,1,7,0001-00-0001-36.png,0002-00-0000-41.png
00000014,735,0,1449761344253,1449761344273,516,413,0,0,0,3,2,1,5,0002-00-0001-66.png,0003-00-0000-15.png
00000014,736,1,1449761347223,1449761347749,390,430,0,0,0,0,1,1,1,0005-00-0000-31.png,0004-00-0001-14.png
00000014,737,1,1449761348742,1449761349181,363,471,0,0,0,0,1,1,1,0005-00-0001-45.png,0004-00-0001-30.png
00000014,738,0,1449761350681,1449761351158,900,463,0,0,0,2,3,1,5,0003-00-0000-53.png,0002-00-0000-49.png
00000014,739,0,1449761354649,1449761355112,363,423,0,0,0,4,3,1,7,0001-00-0000-68.png,0002-00-0000-42.png
00000014,740,1,1449761358686,1449761359137,931,478,0,0,0,1,0,1,1,0004-00-0000-51.png,0005-00-0000-37.png
00000014,741,0,1449761360095,1449761360596,899,467,0,0,0,1,2,1,3,0004-00-0000-87.png,0003-00-0001-72.png
00000014,742,1,1449761363573,1449761363991,894,510,0,0,0,3,2,1,5,0002-00-0000-76.png,0003-00-0000-33.png
00000014,743,1,1449761365500,1449761366834,342,417,0,0,0,3,4,1,7,0002-00-0000-41.png,0001-00-0000-28.png
00000014,744,1,1449761368006,1449761368562,862,488,0,0,0,2,1,1,3,0003-00-0001-04.png,0004-00-0000-59.png
00000014,745,0,1449761370014,1449761370506,364,475,0,0,0,1,0,1,1,0004-00-0000-84.png,0005-00-0001-87.png
00000014,746,0,1449761373582,1449761374006,952,452,0,0,0,1,2,1,3,0004-00-0001-50.png,0003-00-0001-50.png
00000014,747,1,1449761377033,1449761377475,949,458,0,0,0,2,1,1,3,0003-00-0000-24.png,0004-00-0001-18.png
00000014,748,0,1449761378482,1449761379757,413,524,0,0,0,4,3,1,7,0001-00-0001-68.png,0002-00-0001-85.png
00000014,749,0,1449761382716,1449761383187,927,440,0,0,0,3,4,1,7,0002-00-0000-81.png,0001-00-0000-33.png
00000014,750,0,1449761386702,1449761387106,907,473,0,0,0,0,1,1,1,0005-00-0000-87.png,0004-00-0001-75.png
00000014,751,0,1449761390239,1449761390660,956,494,0,0,0,2,3,1,5,0003-00-0001-36.png,0002-00-0000-26.png
00000014,752,1,1449761393728,1449761394273,974,434,0,0,0,3,2,1,5,0002-00-0001-14.png,0003-00-0001-21.png
00000014,753,1,1449761395246,1449761395851,904,480,0,0,0,1,0,1,1,0004-00-0000-20.png,0005-00-0000-82.png
00000014,754,0,1449761396878,1449761397419,900,489,0,0,0,2,3,1,5,0003-00-0001-34.png,0002-00-0001-83.png
00000014,755,0,1449761400467,1449761400952,965,449,0,0,0,3,4,1,7,0002-00-0000-49.png,0001-00-0001-56.png
00000014,756,1,1449761404092,1449761404523,953,440,0,0,0,2,1,1,3,0003-00-0000-45.png,0004-00-0000-86.png
00000014,757,0,1449761405889,1449761406325,407,465,0,0,0,4,3,1,7,0001-00-0000-47.png,0002-00-0000-47.png
00000014,758,0,1449761409411,1449761409873,952,462,0,0,0,1,2,1,3,0004-00-0000-76.png,0003-00-0000-90.png
00000014,759,1,1449761415057,1449761415476,929,497,0,0,0,3,2,1,5,0002-00-0001-09.png,0003-00-0000-17.png
00000014,760,1,1449761416458,1449761416885,363,492,0,0,0,0,1,1,1,0005-00-0000-28.png,0004-00-0001-73.png
00000014,761,0,1449761417818,1449761418462,872,483,0,0,0,3,4,1,7,0002-00-0001-69.png,0001-00-0001-79.png
00000014,762,0,1449761422078,1449761422458,913,554,0,0,0,0,1,1,1,0005-00-0001-61.png,0004-00-0000-92.png
00000014,763,0,1449761425513,1449761425942,931,473,0,0,0,2,3,1,5,0003-00-0000-70.png,0002-00-0001-56.png
00000014,764,0,1449761428857,1449761429308,950,437,0,0,0,1,2,1,3,0004-00-0001-31.png,0003-00-0000-53.png
00000014,765,1,1449761432407,1449761432794,939,423,0,0,0,4,3,1,7,0001-00-0000-84.png,0002-00-0000-53.png
00000014,766,0,1449761433719,1449761434127,432,462,0,0,0,1,0,1,1,0004-00-0000-99.png,0005-00-0001-99.png
00000014,767,1,1449761437007,1449761437435,882,546,0,0,0,2,1,1,3,0003-00-0000-35.png,0004-00-0000-18.png
00000014,768,1,1449761438330,1449761438858,873,485,0,0,0,3,2,1,5,0002-00-0000-10.png,0003-00-0001-35.png
00000014,769,1,1449761439781,1449761440254,382,461,0,0,0,1,2,1,3,0004-00-0000-03.png,0003-00-0001-76.png
00000014,770,1,1449761441175,1449761441645,872,469,0,0,0,1,0,1,1,0004-00-0000-35.png,0005-00-0000-58.png
00000014,771,1,1449761442605,1449761442997,444,454,0,0,0,0,1,1,1,0005-00-0001-15.png,0004-00-0000-46.png
00000014,772,1,1449761452016,1449761452462,901,450,0,0,0,4,3,1,7,0001-00-0001-81.png,0002-00-0001-66.png
00000014,773,0,1449761453356,1449761453384,504,462,0,0,0,2,1,1,3,0003-00-0001-39.png,0004-00-0000-46.png
00000014,774,0,1449761456815,1449761457250,919,469,0,0,0,3,4,1,7,0002-00-0000-96.png,0001-00-0001-53.png
00000014,775,0,1449761460194,1449761460667,951,462,0,0,0,2,3,1,5,0003-00-0000-88.png,0002-00-0000-07.png
00000014,776,1,1449761463659,1449761464112,951,449,0,0,0,3,2,1,5,0002-00-0001-34.png,0003-00-0000-02.png
00000014,777,0,1449761465106,1449761465674,888,476,0,0,0,1,2,1,3,0004-00-0001-85.png,0003-00-0001-83.png
00000014,778,0,1449761469329,1449761469762,914,423,0,0,0,3,4,1,7,0002-00-0000-45.png,0001-00-0000-95.png
00000014,779,0,1449761472777,1449761473247,880,553,0,0,0,2,3,1,5,0003-00-0001-65.png,0002-00-0000-07.png
00000014,780,1,1449761476753,1449761477134,878,548,0,0,0,1,0,1,1,0004-00-0001-32.png,0005-00-0001-53.png
00000014,781,1,1449761477984,1449761478578,875,488,0,0,0,3,2,1,5,0002-00-0000-52.png,0003-00-0001-25.png
00000014,782,1,1449761491539,1449761492001,937,424,0,0,0,4,3,1,7,0001-00-0000-38.png,0002-00-0001-97.png
00000014,783,1,1449761493167,1449761493636,874,438,0,0,0,2,1,1,3,0003-00-0000-02.png,0004-00-0000-07.png
00000014,784,1,1449761494667,1449761495099,312,472,0,0,0,0,1,1,1,0005-00-0000-08.png,0004-00-0001-02.png
00000014,785,1,1449761496322,1449761496771,340,476,0,0,0,0,1,1,1,0005-00-0001-83.png,0004-00-0000-15.png
00000014,786,0,1449761497797,1449761498521,862,493,0,0,0,2,3,1,5,0003-00-0000-15.png,0002-00-0000-80.png
00000014,787,0,1449761501592,1449761502227,414,473,0,0,0,4,3,1,7,0001-00-0001-20.png,0002-00-0000-19.png
00000014,788,1,1449761505301,1449761505710,964,410,0,0,0,3,2,1,5,0002-00-0000-62.png,0003-00-0001-71.png
00000014,789,0,1449761506698,1449761507365,880,480,0,0,0,3,4,1,7,0002-00-0000-46.png,0001-00-0001-46.png
00000014,790,0,1449761510321,1449761510826,979,427,0,0,0,1,2,1,3,0004-00-0000-50.png,0003-00-0001-75.png
00000014,791,1,1449761513764,1449761514210,930,444,0,0,0,2,1,1,3,0003-00-0001-29.png,0004-00-0001-42.png
00000014,792,1,1449761515159,1449761515768,901,462,0,0,0,1,0,1,1,0004-00-0001-44.png,0005-00-0000-79.png
00000014,793,0,1449761516856,1449761517275,350,488,0,0,0,4,3,1,7,0001-00-0001-85.png,0002-00-0001-77.png
00000014,794,0,1449761520189,1449761520651,945,440,0,0,0,2,3,1,5,0003-00-0001-62.png,0002-00-0001-17.png
00000014,795,0,1449761523628,1449761524073,965,449,0,0,0,3,4,1,7,0002-00-0001-70.png,0001-00-0001-31.png
00000014,796,1,1449761527584,1449761528039,876,413,0,0,0,2,1,1,3,0003-00-0000-10.png,0004-00-0001-24.png
00000014,797,0,1449761529011,1449761529035,504,488,0,0,0,1,0,1,1,0004-00-0001-56.png,0005-00-0001-95.png
00000014,798,1,1449761532046,1449761532066,520,482,0,0,0,0,1,1,1,0005-00-0001-17.png,0004-00-0000-47.png
00000014,799,0,1449761533100,1449761533691,898,458,0,0,0,1,2,1,3,0004-00-0000-80.png,0003-00-0000-87.png
00000014,800,1,1449761538010,1449761538425,920,480,0,0,0,3,2,1,5,0002-00-0000-47.png,0003-00-0001-12.png
00000014,801,1,1449761539347,1449761539885,875,463,0,0,0,1,0,1,1,0004-00-0001-80.png,0005-00-0001-61.png
00000014,802,0,1449761540918,1449761541313,377,498,0,0,0,4,3,1,7,0001-00-0001-89.png,0002-00-0001-98.png
00000014,803,0,1449761544638,1449761545008,930,454,0,0,0,2,3,1,5,0003-00-0001-72.png,0002-00-0001-51.png
00000014,804,0,1449761548185,1449761548648,949,457,0,0,0,3,4,1,7,0002-00-0001-92.png,0001-00-0000-93.png
00000014,805,0,1449761551861,1449761552345,408,445,0,0,0,3,2,1,5,0002-00-0000-25.png,0003-00-0000-58.png
00000014,806,0,1449761555242,1449761555668,935,447,0,0,0,0,1,1,1,0005-00-0001-94.png,0004-00-0001-40.png
00000014,807,0,1449761558629,1449761559074,879,401,0,0,0,1,2,1,3,0004-00-0000-63.png,0003-00-0000-36.png
00000014,808,1,1449761562105,1449761562553,961,465,0,0,0,2,1,1,3,0003-00-0001-02.png,0004-00-0001-69.png
00000014,809,0,1449761563469,1449761564031,913,476,0,0,0,3,4,1,7,0002-00-0001-49.png,0001-00-0001-18.png
00000014,810,0,1449761567047,1449761567485,928,468,0,0,0,0,1,1,1,0005-00-0001-52.png,0004-00-0001-12.png
00000014,811,1,1449761572234,1449761572660,876,547,0,0,0,4,3,1,7,0001-00-0000-20.png,0002-00-0001-37.png
00000014,812,0,1449761573586,1449761574273,871,484,0,0,0,2,3,1,5,0003-00-0001-81.png,0002-00-0000-56.png
00000014,813,1,1449761577304,1449761577762,932,498,0,0,0,3,2,1,5,0002-00-0001-63.png,0003-00-0000-82.png
00000014,814,1,1449761578733,1449761579167,387,486,0,0,0,1,2,1,3,0004-00-0001-82.png,0003-00-0001-34.png
00000014,815,0,1449761580254,1449761580707,349,492,0,0,0,1,0,1,1,0004-00-0001-75.png,0005-00-0000-18.png
00000014,816,1,1449761584012,1449761584411,927,440,0,0,0,2,1,1,3,0003-00-0001-62.png,0004-00-0001-44.png
00000014,817,0,1449761585444,1449761586171,893,469,0,0,0,1,2,1,3,0004-00-0001-67.png,0003-00-0000-57.png
00000014,818,0,1449761589567,1449761589977,952,435,0,0,0,0,1,1,1,0005-00-0001-77.png,0004-00-0000-72.png
00000014,819,0,1449761593246,1449761593820,447,416,0,0,0,1,0,1,1,0004-00-0001-16.png,0005-00-0000-49.png
00000014,820,1,1449761597012,1449761597538,949,452,0,0,0,3,2,1,5,0002-00-0000-36.png,0003-00-0000-48.png
00000014,821,0,1449761598986,1449761599410,403,463,0,0,0,4,3,1,7,0001-00-0001-99.png,0002-00-0000-25.png
00000014,822,1,1449761602487,1449761602957,931,467,0,0,0,2,1,1,3,0003-00-0001-40.png,0004-00-0000-36.png
00000014,823,0,1449761604028,1449761604610,887,502,0,0,0,3,4,1,7,0002-00-0001-22.png,0001-00-0000-54.png
00000014,824,0,1449761607724,1449761608206,953,442,0,0,0,2,3,1,5,0003-00-0001-24.png,0002-00-0001-54.png
00000014,825,1,1449761611480,1449761611876,871,393,0,0,0,3,2,1,5,0002-00-0000-10.png,0003-00-0000-07.png
00000014,826,1,1449761612834,1449761613507,902,468,0,0,0,1,0,1,1,0004-00-0000-43.png,0005-00-0001-81.png
00000014,827,1,1449761614584,1449761615200,943,470,0,0,0,2,1,1,3,0003-00-0000-76.png,0004-00-0000-37.png
00000014,828,1,1449761616324,1449761616723,410,472,0,0,0,0,1,1,1,0005-00-0000-86.png,0004-00-0000-01.png
00000014,829,1,1449761617794,1449761618427,880,479,0,0,0,4,3,1,7,0001-00-0001-27.png,0002-00-0000-81.png
00000014,830,1,1449761619534,1449761620609,363,423,0,0,0,2,3,1,5,0003-00-0001-17.png,0002-00-0000-34.png
00000014,831,1,1449761621650,1449761622113,437,509,0,0,0,1,2,1,3,0004-00-0000-41.png,0003-00-0000-73.png
00000014,832,1,1449761623151,1449761624783,425,387,0,0,0,3,4,1,7,0002-00-0000-44.png,0001-00-0001-56.png
00000014,833,1,1449761625773,1449761626236,419,475,0,0,0,3,4,1,7,0002-00-0001-86.png,0001-00-0000-23.png
00000014,834,1,1449761627206,1449761627547,376,449,0,0,0,2,3,1,5,0003-00-0001-89.png,0002-00-0001-92.png
00000014,835,1,1449761628625,1449761629060,412,499,0,0,0,0,1,1,1,0005-00-0000-70.png,0004-00-0000-28.png
00000014,836,1,1449761630143,1449761630565,376,506,0,0,0,1,2,1,3,0004-00-0000-44.png,0003-00-0001-61.png
00000014,837,1,1449761631697,1449761632330,885,477,0,0,0,1,0,1,1,0004-00-0001-25.png,0005-00-0000-88.png
00000014,838,1,1449761633350,1449761633903,905,453,0,0,0,3,2,1,5,0002-00-0001-18.png,0003-00-0000-89.png
00000014,839,0,1449761634940,1449761635280,453,478,0,0,0,4,3,1,7,0001-00-0000-72.png,0002-00-0000-94.png
00000014,840,0,1449761638320,1449761638336,503,456,0,0,0,2,1,1,3,0003-00-0001-67.png,0004-00-0000-06.png
00000014,841,1,1449761641220,1449761641651,952,436,0,0,0,1,0,1,1,0004-00-0000-92.png,0005-00-0000-51.png
00000014,842,0,1449761643096,1449761643532,401,488,0,0,0,4,3,1,7,0001-00-0000-41.png,0002-00-0001-86.png
00000014,843,1,1449761646399,1449761646782,926,436,0,0,0,2,1,1,3,0003-00-0000-19.png,0004-00-0000-34.png
00000014,844,0,1449761648271,1449761648747,417,455,0,0,0,3,2,1,5,0002-00-0000-07.png,0003-00-0001-35.png
00000014,845,0,1449761651796,1449761652321,966,449,0,0,0,2,3,1,5,0003-00-0000-87.png,0002-00-0000-90.png
00000014,846,0,1449761655447,1449761655843,909,505,0,0,0,0,1,1,1,0005-00-0001-28.png,0004-00-0000-35.png
00000014,847,0,1449761658889,1449761659292,921,445,0,0,0,1,2,1,3,0004-00-0000-55.png,0003-00-0000-17.png
00000014,848,0,1449761662583,1449761662965,939,449,0,0,0,3,4,1,7,0002-00-0001-09.png,0001-00-0001-52.png
00000014,849,0,1449761667109,1449761667521,924,458,0,0,0,1,2,1,3,0004-00-0001-94.png,0003-00-0001-00.png
00000014,850,1,1449761670545,1449761671012,949,460,0,0,0,3,2,1,5,0002-00-0001-65.png,0003-00-0001-83.png
00000014,851,0,1449761672021,1449761672577,878,470,0,0,0,2,3,1,5,0003-00-0001-04.png,0002-00-0001-32.png
00000014,852,0,1449761676194,1449761676619,920,468,0,0,0,3,4,1,7,0002-00-0000-34.png,0001-00-0001-63.png
00000014,853,1,1449761679717,1449761680121,925,463,0,0,0,2,1,1,3,0003-00-0000-27.png,0004-00-0000-19.png
00000014,854,1,1449761681051,1449761681567,899,465,0,0,0,4,3,1,7,0001-00-0001-35.png,0002-00-0001-33.png
00000014,855,1,1449761682712,1449761683134,363,497,0,0,0,0,1,1,1,0005-00-0000-68.png,0004-00-0000-57.png
00000014,856,1,1449761684314,1449761685076,900,476,0,0,0,1,0,1,1,0004-00-0001-64.png,0005-00-0001-25.png
00000014,857,0,1449761686053,1449761686879,490,553,0,0,0,3,2,1,5,0002-00-0000-22.png,0003-00-0000-58.png
00000014,858,1,1449761689778,1449761689814,470,412,0,0,0,0,1,1,1,0005-00-0000-68.png,0004-00-0001-51.png
00000014,859,1,1449761690844,1449761691479,873,468,0,0,0,2,1,1,3,0003-00-0001-52.png,0004-00-0001-87.png
00000014,860,0,1449761692472,1449761692831,380,506,0,0,0,4,3,1,7,0001-00-0000-93.png,0002-00-0000-78.png
00000014,861,1,1449761695891,1449761696345,958,447,0,0,0,1,0,1,1,0004-00-0001-27.png,0005-00-0001-11.png
00000014,862,0,1449761697353,1449761697979,895,497,0,0,0,3,4,1,7,0002-00-0000-32.png,0001-00-0000-06.png
00000014,863,0,1449761700973,1449761701441,929,495,0,0,0,1,2,1,3,0004-00-0001-76.png,0003-00-0001-01.png
00000014,864,0,1449761704986,1449761705395,944,462,0,0,0,2,3,1,5,0003-00-0001-31.png,0002-00-0001-81.png
00000014,865,1,1449761708303,1449761708749,902,522,0,0,0,1,0,1,1,0004-00-0001-70.png,0005-00-0000-56.png
00000014,866,0,1449761709673,1449761710254,926,491,0,0,0,3,4,1,7,0002-00-0001-60.png,0001-00-0001-20.png
00000014,867,0,1449761713185,1449761713622,924,432,0,0,0,2,3,1,5,0003-00-0000-65.png,0002-00-0001-21.png
00000014,868,1,1449761716608,1449761717058,938,424,0,0,0,2,1,1,3,0003-00-0000-10.png,0004-00-0000-89.png
00000014,869,1,1449761717997,1449761718400,408,471,0,0,0,0,1,1,1,0005-00-0000-64.png,0004-00-0000-27.png
00000014,870,1,1449761719498,1449761720089,899,482,0,0,0,4,3,1,7,0001-00-0001-84.png,0002-00-0001-69.png
00000014,871,1,1449761721126,1449761721799,896,482,0,0,0,3,2,1,5,0002-00-0001-45.png,0003-00-0000-53.png
00000014,872,1,1449761722777,1449761723153,392,467,0,0,0,1,2,1,3,0004-00-0000-53.png,0003-00-0001-66.png
00000014,873,1,1449761724228,1449761724771,906,489,0,0,0,1,0,1,1,0004-00-0001-25.png,0005-00-0000-37.png
00000014,874,1,1449761725807,1449761726230,392,495,0,0,0,1,2,1,3,0004-00-0001-12.png,0003-00-0000-51.png
00000014,875,1,1449761727349,1449761727696,401,476,0,0,0,0,1,1,1,0005-00-0001-19.png,0004-00-0000-22.png
00000014,876,0,1449761728801,1449761728869,479,539,0,0,0,4,3,1,7,0001-00-0000-83.png,0002-00-0000-17.png
00000014,877,1,1449761731706,1449761732207,863,501,0,0,0,3,2,1,5,0002-00-0001-34.png,0003-00-0001-48.png
00000014,878,0,1449761733247,1449761733827,874,516,0,0,0,2,3,1,5,0003-00-0001-12.png,0002-00-0001-61.png
00000014,879,0,1449761736900,1449761737345,862,424,0,0,0,3,4,1,7,0002-00-0000-35.png,0001-00-0001-43.png
00000014,880,1,1449761740236,1449761740707,936,473,0,0,0,2,1,1,3,0003-00-0001-05.png,0004-00-0000-36.png
00000014,881,0,1449761741671,1449761742396,882,494,0,0,0,1,2,1,3,0004-00-0000-92.png,0003-00-0001-88.png
00000014,882,1,1449761745475,1449761745879,948,419,0,0,0,1,0,1,1,0004-00-0001-39.png,0005-00-0001-25.png
00000014,883,0,1449761746842,1449761748094,432,430,0,0,0,4,3,1,7,0001-00-0000-28.png,0002-00-0001-75.png
00000014,884,0,1449761751447,1449761751851,875,540,0,0,0,2,3,1,5,0003-00-0000-71.png,0002-00-0001-08.png
00000014,885,1,1449761755389,1449761755871,945,476,0,0,0,3,2,1,5,0002-00-0000-99.png,0003-00-0001-59.png
00000014,886,0,1449761756816,1449761756840,478,510,0,0,0,2,1,1,3,0003-00-0001-80.png,0004-00-0000-04.png
00000014,887,0,1449761759717,1449761760349,928,442,0,0,0,0,1,1,1,0005-00-0001-62.png,0004-00-0000-39.png
00000014,888,0,1449761763543,1449761763929,939,449,0,0,0,3,4,1,7,0002-00-0001-13.png,0001-00-0001-78.png
00000014,889,1,1449761767334,1449761767776,951,449,0,0,0,2,1,1,3,0003-00-0000-18.png,0004-00-0001-49.png
00000014,890,1,1449761768707,1449761769226,886,477,0,0,0,1,0,1,1,0004-00-0001-81.png,0005-00-0001-63.png
00000014,891,0,1449761770290,1449761771145,901,503,0,0,0,3,4,1,7,0002-00-0001-00.png,0001-00-0001-21.png
00000014,892,0,1449761774055,1449761774542,952,398,0,0,0,1,2,1,3,0004-00-0001-33.png,0003-00-0001-74.png
00000014,893,0,1449761777469,1449761777943,950,484,0,0,0,2,3,1,5,0003-00-0000-88.png,0002-00-0001-58.png
00000014,894,0,1449761780855,1449761781298,976,456,0,0,0,0,1,1,1,0005-00-0001-06.png,0004-00-0001-49.png
00000014,895,1,1449761784416,1449761784918,955,498,0,0,0,3,2,1,5,0002-00-0001-63.png,0003-00-0000-77.png
00000014,896,1,1449761785893,1449761786483,905,480,0,0,0,4,3,1,7,0001-00-0001-72.png,0002-00-0000-70.png
00000014,897,0,1449761788391,1449761788955,877,455,0,0,0,1,2,1,3,0004-00-0001-20.png,0003-00-0000-08.png
00000014,898,1,1449761795816,1449761796289,953,488,0,0,0,3,2,1,5,0002-00-0001-19.png,0003-00-0001-58.png
00000014,899,0,1449761797249,1449761797909,900,515,0,0,0,3,4,1,7,0002-00-0001-34.png,0001-00-0000-60.png
00000014,900,1,1449761800945,1449761801346,949,457,0,0,0,1,0,1,1,0004-00-0000-12.png,0005-00-0000-73.png
00000014,901,1,1449761802321,1449761802869,923,485,0,0,0,2,1,1,3,0003-00-0000-82.png,0004-00-0000-38.png
00000014,902,0,1449761803907,1449761804435,875,496,0,0,0,2,3,1,5,0003-00-0001-62.png,0002-00-0000-10.png
00000014,903,0,1449761807822,1449761808500,889,527,0,0,0,0,1,1,1,0005-00-0000-13.png,0004-00-0000-17.png
00000014,904,1,1449761811797,1449761812260,951,463,0,0,0,4,3,1,7,0001-00-0001-73.png,0002-00-0001-59.png
00000014,905,1,1449761813258,1449761814241,888,492,0,0,0,3,2,1,5,0002-00-0000-58.png,0003-00-0001-75.png
00000014,906,1,1449761815273,1449761815697,427,476,0,0,0,0,1,1,1,0005-00-0001-25.png,0004-00-0001-71.png
00000014,907,1,1449761817140,1449761817665,900,489,0,0,0,2,1,1,3,0003-00-0001-90.png,0004-00-0000-10.png
00000014,908,1,1449761818801,1449761819305,394,471,0,0,0,1,2,1,3,0004-00-0000-88.png,0003-00-0001-73.png
00000014,909,1,1449761820344,1449761820997,898,515,0,0,0,1,0,1,1,0004-00-0000-45.png,0005-00-0000-82.png
00000014,910,0,1449761822094,1449761822624,880,480,0,0,0,3,4,1,7,0002-00-0000-69.png,0001-00-0001-23.png
00000014,911,0,1449761825957,1449761826345,925,464,0,0,0,2,3,1,5,0003-00-0000-27.png,0002-00-0000-83.png
00000014,912,0,1449761829399,1449761829972,389,436,0,0,0,4,3,1,7,0001-00-0001-23.png,0002-00-0001-02.png
00000014,913,1,1449761833046,1449761833458,932,472,0,0,0,4,3,1,7,0001-00-0001-64.png,0002-00-0001-53.png
00000014,914,1,1449761834435,1449761834982,857,499,0,0,0,2,1,1,3,0003-00-0000-98.png,0004-00-0000-88.png
00000014,915,1,1449761835945,1449761836388,427,462,0,0,0,0,1,1,1,0005-00-0001-80.png,0004-00-0001-95.png
00000014,916,1,1449761837445,1449761837964,898,486,0,0,0,1,0,1,1,0004-00-0001-76.png,0005-00-0001-85.png
00000014,917,1,1449761839049,1449761839829,919,547,0,0,0,3,2,1,5,0002-00-0001-88.png,0003-00-0001-18.png
00000014,918,0,1449761840865,1449761841490,912,502,0,0,0,3,4,1,7,0002-00-0000-47.png,0001-00-0000-82.png
00000014,919,0,1449761844543,1449761844956,949,444,0,0,0,2,3,1,5,0003-00-0000-33.png,0002-00-0001-10.png
00000014,920,0,1449761847832,1449761848217,922,455,0,0,0,1,2,1,3,0004-00-0001-49.png,0003-00-0000-56.png
00000014,921,0,1449761851211,1449761851652,949,482,0,0,0,1,2,1,3,0004-00-0000-82.png,0003-00-0001-47.png
00000014,922,0,1449761855927,1449761856359,933,482,0,0,0,3,4,1,7,0002-00-0001-29.png,0001-00-0000-33.png
00000014,923,1,1449761859452,1449761859871,976,463,0,0,0,4,3,1,7,0001-00-0000-17.png,0002-00-0000-87.png
00000014,924,1,1449761860822,1449761861273,407,462,0,0,0,0,1,1,1,0005-00-0000-20.png,0004-00-0001-16.png
00000014,925,1,1449761862377,1449761862916,888,502,0,0,0,2,1,1,3,0003-00-0001-09.png,0004-00-0001-21.png
00000014,926,0,1449761863896,1449761864463,886,503,0,0,0,2,3,1,5,0003-00-0001-34.png,0002-00-0001-35.png
00000014,927,1,1449761867302,1449761868005,924,508,0,0,0,3,2,1,5,0002-00-0001-91.png,0003-00-0000-24.png
00000014,928,1,1449761869021,1449761869512,900,489,0,0,0,1,0,1,1,0004-00-0001-50.png,0005-00-0000-75.png
00000014,929,1,1449761870556,1449761870968,365,500,0,0,0,0,1,1,1,0005-00-0001-39.png,0004-00-0000-39.png
00000014,930,0,1449761872459,1449761872943,370,473,0,0,0,1,0,1,1,0004-00-0000-23.png,0005-00-0000-55.png
00000014,931,1,1449761878833,1449761879227,949,507,0,0,0,2,1,1,3,0003-00-0000-20.png,0004-00-0000-83.png
00000014,932,0,1449761880232,1449761880926,903,545,0,0,0,2,3,1,5,0003-00-0001-01.png,0002-00-0001-71.png
00000014,933,1,1449761884410,1449761884862,939,449,0,0,0,4,3,1,7,0001-00-0001-41.png,0002-00-0001-44.png
00000014,934,1,1449761886254,1449761886845,892,488,0,0,0,3,2,1,5,0002-00-0000-03.png,0003-00-0001-44.png
00000014,935,0,1449761887879,1449761888391,874,476,0,0,0,3,4,1,7,0002-00-0001-65.png,0001-00-0001-37.png
00000014,936,0,1449761891496,1449761891972,956,455,0,0,0,1,2,1,3,0004-00-0001-30.png,0003-00-0000-94.png
00000014,937,0,1449761894837,1449761895249,960,427,0,0,0,3,4,1,7,0002-00-0000-28.png,0001-00-0000-82.png
00000014,938,1,1449761898103,1449761898580,901,528,0,0,0,2,1,1,3,0003-00-0000-53.png,0004-00-0001-82.png
00000014,939,1,1449761899953,1449761900500,368,435,0,0,0,2,3,1,5,0003-00-0001-19.png,0002-00-0001-27.png
00000014,940,0,1449761901613,1449761902031,350,476,0,0,0,4,3,1,7,0001-00-0000-06.png,0002-00-0000-79.png
00000014,941,0,1449761905309,1449761905744,942,491,0,0,0,1,2,1,3,0004-00-0000-04.png,0003-00-0001-62.png
00000014,942,1,1449761908758,1449761909590,395,402,0,0,0,0,1,1,1,0005-00-0000-81.png,0004-00-0001-76.png
00000014,943,0,1449761910685,1449761910705,504,488,0,0,0,1,0,1,1,0004-00-0000-36.png,0005-00-0000-01.png
00000014,944,1,1449761913998,1449761914527,971,524,0,0,0,3,2,1,5,0002-00-0001-64.png,0003-00-0000-45.png
00000014,945,0,1449761915579,1449761916062,427,462,0,0,0,4,3,1,7,0001-00-0000-49.png,0002-00-0000-09.png
00000014,946,1,1449761920949,1449761921387,944,468,0,0,0,3,2,1,5,0002-00-0001-95.png,0003-00-0001-39.png
00000014,947,1,1449761922385,1449761923123,375,463,0,0,0,0,1,1,1,0005-00-0001-35.png,0004-00-0000-06.png
00000014,948,1,1449761924628,1449761925166,891,564,0,0,0,2,1,1,3,0003-00-0001-35.png,0004-00-0000-87.png
00000014,949,1,1449761926287,1449761926814,890,501,0,0,0,1,0,1,1,0004-00-0001-14.png,0005-00-0000-19.png
00000014,950,1,1449761927922,1449761928304,344,474,0,0,0,1,2,1,3,0004-00-0000-83.png,0003-00-0000-77.png
00000014,951,0,1449761929382,1449761929995,866,491,0,0,0,3,4,1,7,0002-00-0001-19.png,0001-00-0000-11.png
