subject_id,trial,correct_response,stim_time,response_time,x_coord,y_coord,trial_timeout,timeout_time,interTrial_timeout,left_rank,right_rank,distance,joint_rank,left_image,right_image
00000014,1,1,1449671947846,1449671948344,436,327,0,0,0,3,4,1,7,0002-00-0000-01.png,0001-00-0001-87.png
00000014,2,1,1449671949640,1449671950077,952,462,0,0,0,1,0,1,1,0004-00-0001-87.png,0005-00-0000-38.png
00000014,3,0,1449671951650,1449671952117,873,462,0,0,0,0,1,1,1,0005-00-0000-84.png,0004-00-0001-59.png
00000014,4,1,1449671956468,1449671956925,938,527,0,0,0,4,3,1,7,0001-00-0000-88.png,0002-00-0001-96.png
00000014,5,1,1449671958449,1449671959495,927,383,0,0,0,2,1,1,3,0003-00-0000-73.png,0004-00-0001-07.png
00000014,6,0,1449671960927,1449671961396,900,528,0,0,0,2,3,1,5,0003-00-0001-99.png,0002-00-0000-46.png
00000014,7,1,1449671969027,1449671969443,1007,454,0,0,0,3,2,1,5,0002-00-0000-90.png,0003-00-0000-20.png
00000014,8,0,1449671971021,1449671972956,893,492,0,0,0,1,2,1,3,0004-00-0001-25.png,0003-00-0001-38.png
00000014,9,0,1449671976965,1449671977353,1003,437,0,0,0,2,3,1,5,0003-00-0001-09.png,0002-00-0001-91.png
00000014,10,0,1449671985105,1449671985479,957,475,0,0,0,3,4,1,7,0002-00-0001-73.png,0001-00-0000-12.png
00000014,11,1,1449671992374,1449671992776,1029,398,0,0,0,2,1,1,3,0003-00-0001-50.png,0004-00-0000-13.png
00000014,12,1,1449671994610,1449671995107,366,407,0,0,0,0,1,1,1,0005-00-0001-00.png,0004-00-0000-86.png
00000014,13,0,1449671996745,1449671997209,427,358,0,0,0,4,3,1,7,0001-00-0001-32.png,0002-00-0001-91.png
00000014,14,0,1449672004692,1449672005124,936,490,0,0,0,1,2,1,3,0004-00-0000-94.png,0003-00-0001-95.png
00000014,15,1,1449672010383,1449672010813,964,487,0,0,0,1,0,1,1,0004-00-0001-65.png,0005-00-0000-65.png
00000014,16,0,1449672012111,1449672012641,366,435,0,0,0,3,2,1,5,0002-00-0000-39.png,0003-00-0001-67.png
00000014,17,0,1449672018108,1449672018561,995,391,0,0,0,2,3,1,5,0003-00-0001-35.png,0002-00-0001-50.png
00000014,18,1,1449672026351,1449672026753,965,345,0,0,0,4,3,1,7,0001-00-0001-81.png,0002-00-0001-81.png
00000014,19,0,1449672042255,1449672042732,990,423,0,0,0,3,4,1,7,0002-00-0001-92.png,0001-00-0001-37.png
00000014,20,1,1449672047187,1449672047608,950,358,0,0,0,1,0,1,1,0004-00-0000-57.png,0005-00-0001-36.png
00000014,21,0,1449672052346,1449672052766,954,490,0,0,0,1,2,1,3,0004-00-0000-64.png,0003-00-0001-61.png
00000014,22,1,1449672057932,1449672058349,952,385,0,0,0,3,2,1,5,0002-00-0000-08.png,0003-00-0001-89.png
00000014,23,1,1449672060454,1449672060915,350,396,0,0,0,0,1,1,1,0005-00-0001-71.png,0004-00-0000-79.png
00000014,24,1,1449672067076,1449672067446,951,437,0,0,0,2,1,1,3,0003-00-0000-32.png,0004-00-0000-64.png
00000014,25,0,1449672095196,1449672095686,976,438,0,0,0,1,2,1,3,0004-00-0000-53.png,0003-00-0001-17.png
00000014,26,1,1449672113444,1449672113880,989,423,0,0,0,4,3,1,7,0001-00-0000-48.png,0002-00-0001-07.png
00000014,27,1,1449672126577,1449672126947,1003,377,0,0,0,2,1,1,3,0003-00-0001-58.png,0004-00-0000-06.png
00000014,28,0,1449672133459,1449672133848,1024,367,0,0,0,0,1,1,1,0005-00-0000-81.png,0004-00-0001-45.png
00000014,29,0,1449672138569,1449672139041,968,403,0,0,0,2,3,1,5,0003-00-0001-16.png,0002-00-0001-37.png
00000014,30,0,1449672142854,1449672143300,1004,366,0,0,0,3,4,1,7,0002-00-0000-32.png,0001-00-0001-38.png
00000014,31,1,1449672148752,1449672149191,977,437,0,0,0,3,2,1,5,0002-00-0001-32.png,0003-00-0000-15.png
00000014,32,1,1449672151007,1449672151526,953,414,0,0,0,1,0,1,1,0004-00-0001-42.png,0005-00-0001-50.png
00000014,33,1,1449672153228,1449672153736,922,393,0,0,0,1,0,1,1,0004-00-0000-70.png,0005-00-0001-08.png
00000014,34,0,1449672155237,1449672155750,957,418,0,0,0,1,2,1,3,0004-00-0000-03.png,0003-00-0001-42.png
00000014,35,0,1449672159861,1449672160266,1007,339,0,0,0,0,1,1,1,0005-00-0001-60.png,0004-00-0001-92.png
00000014,36,1,1449672164389,1449672164772,1024,341,0,0,0,3,2,1,5,0002-00-0001-14.png,0003-00-0000-82.png
00000014,37,1,1449672166432,1449672167075,906,387,0,0,0,2,1,1,3,0003-00-0001-47.png,0004-00-0001-75.png
00000014,38,0,1449672169567,1449672170258,440,520,0,0,0,4,3,1,7,0001-00-0001-20.png,0002-00-0001-14.png
00000014,39,0,1449672173344,1449672173738,921,446,0,0,0,3,4,1,7,0002-00-0001-44.png,0001-00-0001-84.png
00000014,40,0,1449672176873,1449672177269,950,454,0,0,0,2,3,1,5,0003-00-0000-12.png,0002-00-0001-06.png
00000014,41,1,1449672183700,1449672184137,958,448,0,0,0,4,3,1,7,0001-00-0000-21.png,0002-00-0000-65.png
00000014,42,1,1449672185668,1449672186342,414,539,0,0,0,0,1,1,1,0005-00-0000-07.png,0004-00-0000-91.png
00000014,43,1,1449672188001,1449672188613,953,435,0,0,0,2,1,1,3,0003-00-0001-20.png,0004-00-0000-71.png
00000014,44,1,1449672191551,1449672192011,983,417,0,0,0,3,2,1,5,0002-00-0001-67.png,0003-00-0000-70.png
00000014,45,0,1449672194171,1449672194879,861,486,0,0,0,2,3,1,5,0003-00-0000-38.png,0002-00-0000-20.png
00000014,46,1,1449672198987,1449672199422,991,417,0,0,0,1,0,1,1,0004-00-0001-31.png,0005-00-0001-52.png
00000014,47,0,1449672200587,1449672201468,952,423,0,0,0,1,2,1,3,0004-00-0001-51.png,0003-00-0001-12.png
00000014,48,0,1449672205475,1449672205934,1033,369,0,0,0,3,4,1,7,0002-00-0001-64.png,0001-00-0000-82.png
00000014,49,1,1449672209710,1449672210123,1041,384,0,0,0,4,3,1,7,0001-00-0000-08.png,0002-00-0001-98.png
00000014,50,1,1449672213137,1449672213876,363,438,0,0,0,0,1,1,1,0005-00-0000-10.png,0004-00-0001-33.png
00000014,51,1,1449672215744,1449672216517,1001,461,0,0,0,3,2,1,5,0002-00-0000-73.png,0003-00-0000-08.png
00000014,52,1,1449672218436,1449672218886,1003,398,0,0,0,1,0,1,1,0004-00-0000-24.png,0005-00-0001-61.png
00000014,53,0,1449672223874,1449672224333,977,345,0,0,0,3,4,1,7,0002-00-0001-20.png,0001-00-0000-90.png
00000014,54,0,1449672228880,1449672228908,504,384,0,0,0,2,1,1,3,0003-00-0001-43.png,0004-00-0001-58.png
00000014,55,0,1449672241150,1449672241605,919,291,0,0,0,1,2,1,3,0004-00-0001-94.png,0003-00-0000-26.png
00000014,56,1,1449672256852,1449672256860,500,361,0,0,0,2,3,1,5,0003-00-0001-65.png,0002-00-0000-58.png
00000014,57,0,1449672258380,1449672259005,950,455,0,0,0,2,3,1,5,0003-00-0000-22.png,0002-00-0000-32.png
00000014,58,1,1449672262101,1449672262526,881,372,0,0,0,4,3,1,7,0001-00-0001-88.png,0002-00-0001-19.png
00000014,59,0,1449672263820,1449672264434,954,415,0,0,0,3,4,1,7,0002-00-0001-59.png,0001-00-0001-03.png
00000014,60,0,1449672269922,1449672270336,991,319,0,0,0,1,2,1,3,0004-00-0001-02.png,0003-00-0001-53.png
00000014,61,1,1449672274654,1449672275122,973,417,0,0,0,1,0,1,1,0004-00-0001-92.png,0005-00-0000-54.png
00000014,62,1,1449672276265,1449672277107,917,536,0,0,0,3,2,1,5,0002-00-0000-71.png,0003-00-0001-94.png
00000014,63,1,1449672278172,1449672278995,439,562,0,0,0,0,1,1,1,0005-00-0000-19.png,0004-00-0001-82.png
00000014,64,1,1449672282018,1449672282471,980,360,0,0,0,2,1,1,3,0003-00-0001-91.png,0004-00-0000-84.png
00000014,65,1,1449672283718,1449672287259,384,377,0,0,0,3,4,1,7,0002-00-0001-32.png,0001-00-0001-92.png
00000014,66,1,1449672288517,1449672289162,964,423,0,0,0,2,1,1,3,0003-00-0001-58.png,0004-00-0001-02.png
00000014,67,1,1449672290057,1449672291188,469,453,0,0,0,1,2,1,3,0004-00-0001-60.png,0003-00-0001-68.png
00000014,68,1,1449672292117,1449672292777,914,519,0,0,0,1,0,1,1,0004-00-0000-47.png,0005-00-0000-94.png
00000014,69,1,1449672304554,1449672304931,1003,449,0,0,0,4,3,1,7,0001-00-0001-41.png,0002-00-0000-01.png
00000014,70,0,1449672306860,1449672307500,903,414,0,0,0,2,3,1,5,0003-00-0001-44.png,0002-00-0001-94.png
00000014,71,1,1449672311344,1449672311757,904,441,0,0,0,3,2,1,5,0002-00-0001-22.png,0003-00-0001-49.png
00000014,72,1,1449672313251,1449672313780,295,425,0,0,0,0,1,1,1,0005-00-0001-44.png,0004-00-0001-69.png
00000014,73,1,1449672318243,1449672318673,992,418,0,0,0,1,0,1,1,0004-00-0000-66.png,0005-00-0000-04.png
00000014,74,0,1449672320415,1449672320918,410,467,0,0,0,4,3,1,7,0001-00-0001-43.png,0002-00-0001-11.png
00000014,75,0,1449672327461,1449672327866,1024,394,0,0,0,2,3,1,5,0003-00-0000-61.png,0002-00-0001-25.png
00000014,76,0,1449672340099,1449672340539,1008,324,0,0,0,1,2,1,3,0004-00-0000-74.png,0003-00-0000-40.png
00000014,77,1,1449672346676,1449672347120,989,284,0,0,0,3,2,1,5,0002-00-0001-83.png,0003-00-0001-17.png
00000014,78,1,1449672348806,1449672349850,439,528,0,0,0,3,4,1,7,0002-00-0001-34.png,0001-00-0001-16.png
00000014,79,1,1449672351549,1449672351995,970,380,0,0,0,2,1,1,3,0003-00-0001-62.png,0004-00-0000-46.png
00000014,80,1,1449672361651,1449672362115,472,315,0,0,0,0,1,1,1,0005-00-0001-68.png,0004-00-0001-70.png
00000014,81,1,1449672365340,1449672365372,504,501,0,0,0,1,2,1,3,0004-00-0001-01.png,0003-00-0001-62.png
00000014,82,1,1449672366691,1449672367272,361,462,0,0,0,0,1,1,1,0005-00-0001-48.png,0004-00-0001-48.png
00000014,83,0,1449672384585,1449672385419,410,432,0,0,0,4,3,1,7,0001-00-0000-91.png,0002-00-0001-46.png
00000014,84,0,1449672389685,1449672390311,1007,435,0,0,0,2,3,1,5,0003-00-0001-43.png,0002-00-0000-93.png
00000014,85,0,1449672396305,1449672396749,1013,291,0,0,0,3,4,1,7,0002-00-0000-32.png,0001-00-0000-55.png
00000014,86,1,1449672403608,1449672404030,1009,340,0,0,0,1,0,1,1,0004-00-0001-84.png,0005-00-0001-20.png
00000014,87,1,1449672414259,1449672414736,927,421,0,0,0,3,2,1,5,0002-00-0001-42.png,0003-00-0001-58.png
00000014,88,0,1449672415914,1449672416756,369,426,0,0,0,2,1,1,3,0003-00-0000-33.png,0004-00-0000-75.png
00000014,89,1,1449672425353,1449672425860,443,313,0,0,0,3,4,1,7,0002-00-0001-48.png,0001-00-0000-54.png
00000014,90,0,1449672434618,1449672434996,985,395,0,0,0,1,2,1,3,0004-00-0001-11.png,0003-00-0001-39.png
00000014,91,0,1449672437889,1449672438423,376,410,0,0,0,4,3,1,7,0001-00-0001-23.png,0002-00-0001-17.png
00000014,92,1,1449672443018,1449672443621,911,456,0,0,0,1,0,1,1,0004-00-0000-45.png,0005-00-0001-05.png
00000014,93,1,1449672445207,1449672445731,952,436,0,0,0,2,1,1,3,0003-00-0000-98.png,0004-00-0001-91.png
00000014,94,0,1449672446943,1449672447612,874,410,0,0,0,2,3,1,5,0003-00-0001-74.png,0002-00-0001-73.png
00000014,95,0,1449672454112,1449672454540,969,436,0,0,0,0,1,1,1,0005-00-0001-04.png,0004-00-0001-18.png
00000014,96,1,1449672458148,1449672458588,981,402,0,0,0,3,2,1,5,0002-00-0001-44.png,0003-00-0000-93.png
00000014,97,0,1449672459789,1449672460796,902,545,0,0,0,3,4,1,7,0002-00-0001-66.png,0001-00-0001-05.png
00000014,98,1,1449672465343,1449672465786,951,437,0,0,0,4,3,1,7,0001-00-0001-89.png,0002-00-0001-45.png
00000014,99,0,1449672467299,1449672468121,360,405,0,0,0,3,2,1,5,0002-00-0000-50.png,0003-00-0000-55.png
00000014,100,0,1449672473871,1449672473892,504,401,0,0,0,1,0,1,1,0004-00-0000-59.png,0005-00-0000-47.png
00000014,101,0,1449672478305,1449672478767,952,424,0,0,0,2,3,1,5,0003-00-0001-77.png,0002-00-0001-38.png
00000014,102,1,1449672481960,1449672482564,383,377,0,0,0,0,1,1,1,0005-00-0000-67.png,0004-00-0000-19.png
00000014,103,1,1449672483723,1449672484335,874,553,0,0,0,2,1,1,3,0003-00-0001-81.png,0004-00-0001-40.png
00000014,104,1,1449672492556,1449672493131,419,376,0,0,0,1,2,1,3,0004-00-0000-59.png,0003-00-0001-96.png
00000014,105,1,1449672494376,1449672495455,903,449,0,0,0,2,1,1,3,0003-00-0001-24.png,0004-00-0001-79.png
00000014,106,0,1449672497886,1449672498410,944,406,0,0,0,2,3,1,5,0003-00-0001-64.png,0002-00-0001-23.png
00000014,107,1,1449672529888,1449672530396,989,393,0,0,0,1,0,1,1,0004-00-0001-27.png,0005-00-0001-85.png
00000014,108,0,1449672532067,1449672532775,348,429,0,0,0,3,2,1,5,0002-00-0000-25.png,0003-00-0000-85.png
00000014,109,1,1449672539090,1449672539574,431,393,0,0,0,0,1,1,1,0005-00-0001-20.png,0004-00-0000-41.png
00000014,110,1,1449672542132,1449672542714,427,410,0,0,0,1,2,1,3,0004-00-0000-82.png,0003-00-0000-12.png
00000014,111,0,1449672544665,1449672545441,429,401,0,0,0,4,3,1,7,0001-00-0001-69.png,0002-00-0001-76.png
00000014,112,1,1449672549100,1449672549592,413,370,0,0,0,3,4,1,7,0002-00-0001-31.png,0001-00-0001-71.png
00000014,113,1,1449672583034,1449672583841,369,368,0,0,0,0,1,1,1,0005-00-0000-07.png,0004-00-0001-00.png
00000014,114,1,1449672587379,1449672587926,907,494,0,0,0,1,0,1,1,0004-00-0000-60.png,0005-00-0001-38.png
00000014,115,1,1449672600817,1449672600821,863,527,0,0,0,3,2,1,5,0002-00-0000-82.png,0003-00-0001-21.png
00000014,116,0,1449672602922,1449672603524,953,459,0,0,0,2,3,1,5,0003-00-0000-10.png,0002-00-0001-51.png
00000014,117,0,1449672611771,1449672612250,366,443,0,0,0,4,3,1,7,0001-00-0000-12.png,0002-00-0001-74.png
00000014,118,1,1449672619518,1449672619526,480,538,0,0,0,3,4,1,7,0002-00-0000-03.png,0001-00-0001-70.png
00000014,119,0,1449672622571,1449672623460,380,467,0,0,0,2,1,1,3,0003-00-0001-98.png,0004-00-0000-91.png
00000014,120,1,1449672627024,1449672627505,449,382,0,0,0,1,2,1,3,0004-00-0000-94.png,0003-00-0001-43.png
00000014,121,1,1449672629888,1449672630877,394,457,0,0,0,3,4,1,7,0002-00-0000-31.png,0001-00-0000-79.png
00000014,122,0,1449672638449,1449672639083,376,410,0,0,0,1,0,1,1,0004-00-0000-94.png,0005-00-0000-05.png
00000014,123,0,1449672655441,1449672655940,427,556,0,0,0,4,3,1,7,0001-00-0001-86.png,0002-00-0001-36.png
00000014,124,1,1449672659482,1449672659854,897,344,0,0,0,3,2,1,5,0002-00-0001-40.png,0003-00-0001-05.png
00000014,125,1,1449672674123,1449672674596,940,325,0,0,0,2,1,1,3,0003-00-0001-43.png,0004-00-0001-46.png
00000014,126,0,1449672675934,1449672675962,978,361,0,0,0,2,3,1,5,0003-00-0000-92.png,0002-00-0000-29.png
00000014,127,1,1449672685084,1449672685977,423,368,0,0,0,0,1,1,1,0005-00-0001-82.png,0004-00-0000-05.png
00000014,128,0,1449672688518,1449672688534,889,296,0,0,0,1,2,1,3,0004-00-0001-09.png,0003-00-0000-90.png
00000014,129,1,1449672692529,1449672693212,420,558,0,0,0,1,2,1,3,0004-00-0001-01.png,0003-00-0001-98.png
00000014,130,0,1449672698584,1449672699059,1092,344,0,0,0,0,1,1,1,0005-00-0000-76.png,0004-00-0000-83.png
00000014,131,1,1449672701929,1449672701941,905,302,0,0,0,4,3,1,7,0001-00-0000-57.png,0002-00-0000-90.png
00000014,132,0,1449672704281,1449672704996,401,462,0,0,0,3,2,1,5,0002-00-0001-08.png,0003-00-0000-49.png
00000014,133,1,1449672710698,1449672711089,1067,358,0,0,0,1,0,1,1,0004-00-0000-49.png,0005-00-0000-10.png
00000014,134,0,1449672714484,1449672714616,862,436,0,0,0,3,4,1,7,0002-00-0000-10.png,0001-00-0001-67.png
00000014,135,0,1449672719846,1449672720586,309,439,0,0,0,2,1,1,3,0003-00-0001-34.png,0004-00-0001-15.png
00000014,136,0,1449672727745,1449672728500,995,410,0,0,0,2,3,1,5,0003-00-0000-70.png,0002-00-0001-60.png
00000014,137,0,1449672732706,1449672732742,491,225,0,0,0,2,1,1,3,0003-00-0001-90.png,0004-00-0001-99.png
00000014,138,1,1449672737225,1449672739170,1170,332,0,0,0,4,3,1,7,0001-00-0001-87.png,0002-00-0001-85.png
00000014,139,1,1449672757057,1449672757589,401,384,0,0,0,0,1,1,1,0005-00-0000-33.png,0004-00-0000-06.png
00000014,140,1,1449672777081,1449672777101,427,246,0,0,0,3,4,1,7,0002-00-0001-37.png,0001-00-0001-39.png
00000014,141,0,1449672838505,1449672838676,401,322,0,0,0,3,2,1,5,0002-00-0001-07.png,0003-00-0001-31.png
00000014,142,1,1449672866632,1449672867417,986,472,0,0,0,1,0,1,1,0004-00-0001-73.png,0005-00-0001-38.png
00000014,143,1,1449672957010,1449672958397,323,372,0,0,0,2,3,1,5,0003-00-0000-68.png,0002-00-0000-75.png
00000014,144,1,1449672960511,1449672962590,361,396,0,0,0,1,2,1,3,0004-00-0000-02.png,0003-00-0001-45.png
00000014,145,1,1449672969808,1449672970422,419,471,0,0,0,2,3,1,5,0003-00-0000-30.png,0002-00-0000-73.png
00000014,146,0,1449673018958,1449673023350,427,348,0,0,0,2,1,1,3,0003-00-0001-96.png,0004-00-0001-43.png
00000014,147,1,1449673027045,1449673027065,273,540,0,0,0,1,2,1,3,0004-00-0001-46.png,0003-00-0001-02.png
00000014,148,0,1449673036135,1449673037115,482,420,0,0,0,1,0,1,1,0004-00-0000-29.png,0005-00-0001-47.png
00000014,149,1,1449673047996,1449673048569,964,351,0,0,0,3,2,1,5,0002-00-0000-75.png,0003-00-0001-54.png
00000014,150,1,1449673059775,1449673061023,901,552,0,0,0,4,3,1,7,0001-00-0001-51.png,0002-00-0000-41.png
00000014,151,0,1449673095216,1449673096178,1158,398,0,0,0,3,4,1,7,0002-00-0000-94.png,0001-00-0001-32.png
00000014,152,1,1449673140613,1449673140621,330,273,0,0,0,0,1,1,1,0005-00-0000-59.png,0004-00-0001-57.png
00000014,153,1,1449673196916,1449673197171,487,262,0,0,0,1,2,1,3,0004-00-0001-76.png,0003-00-0000-90.png
00000014,154,1,1449673374704,1449673375426,397,342,0,0,0,0,1,1,1,0005-00-0000-94.png,0004-00-0001-11.png
00000014,155,0,1449673502294,1449673553683,461,416,0,0,0,1,0,1,1,0004-00-0001-83.png,0005-00-0000-99.png
00000014,156,0,1449673556549,1449673556954,1014,345,0,0,0,2,3,1,5,0003-00-0001-29.png,0002-00-0000-88.png
00000014,157,0,1449673560813,1449673561268,495,364,0,0,0,4,3,1,7,0001-00-0000-63.png,0002-00-0000-48.png
00000014,158,1,1449673564139,1449673564528,977,462,0,0,0,2,1,1,3,0003-00-0001-42.png,0004-00-0001-19.png
00000014,159,1,1449673566059,1449673566680,952,383,0,0,0,3,2,1,5,0002-00-0001-47.png,0003-00-0000-65.png
00000014,160,0,1449673582588,1449673583308,1066,416,0,0,0,3,4,1,7,0002-00-0000-38.png,0001-00-0000-34.png
00000014,161,1,1449673634211,1449673638908,338,460,0,0,0,3,4,1,7,0002-00-0001-79.png,0001-00-0000-86.png
00000014,162,0,1449673701968,1449673702566,467,372,0,0,0,1,0,1,1,0004-00-0001-65.png,0005-00-0001-77.png
00000014,163,1,1449673826755,1449673830715,324,405,0,0,0,0,1,1,1,0005-00-0001-89.png,0004-00-0000-87.png
00000014,164,1,1449673965880,1449673965935,330,440,0,0,0,1,2,1,3,0004-00-0001-91.png,0003-00-0000-83.png
00000014,165,1,1449674471689,1449674493739,989,496,0,0,0,4,3,1,7,0001-00-0001-54.png,0002-00-0001-17.png
00000014,166,0,1449674780478,1449674795426,415,436,0,0,0,2,1,1,3,0003-00-0001-15.png,0004-00-0001-84.png
00000014,167,1,1449674799921,1449674800518,999,431,0,0,0,3,2,1,5,0002-00-0000-19.png,0003-00-0001-08.png
00000014,168,0,1449674802695,1449674803197,901,521,0,0,0,2,3,1,5,0003-00-0001-18.png,0002-00-0000-68.png
00000014,169,1,1449674809592,1449674810099,964,423,0,0,0,2,1,1,3,0003-00-0001-70.png,0004-00-0000-02.png
00000014,170,0,1449674817614,1449674818069,953,332,0,0,0,2,3,1,5,0003-00-0001-02.png,0002-00-0000-39.png
00000014,171,1,1449674827654,1449674827718,498,525,0,0,0,3,4,1,7,0002-00-0000-32.png,0001-00-0001-93.png
00000014,172,0,1449674829267,1449674834642,977,395,0,0,0,0,1,1,1,0005-00-0001-30.png,0004-00-0000-91.png
00000014,173,0,1449674842688,1449674843243,488,494,0,0,0,4,3,1,7,0001-00-0000-62.png,0002-00-0001-31.png
00000014,174,1,1449674976893,1449674983489,1003,470,0,0,0,1,0,1,1,0004-00-0001-57.png,0005-00-0001-98.png
00000014,175,1,1449674986804,1449674987216,1033,427,0,0,0,3,2,1,5,0002-00-0001-09.png,0003-00-0000-33.png
00000014,176,0,1449674989186,1449674989621,957,427,0,0,0,1,2,1,3,0004-00-0000-35.png,0003-00-0001-33.png
00000014,177,0,1449674992946,1449674993426,977,371,0,0,0,2,3,1,5,0003-00-0000-14.png,0002-00-0000-12.png
00000014,178,0,1449675018058,1449675019152,422,368,0,0,0,4,3,1,7,0001-00-0000-37.png,0002-00-0001-22.png
00000014,179,1,1449675023063,1449675023548,1028,339,0,0,0,3,2,1,5,0002-00-0001-77.png,0003-00-0000-50.png
00000014,180,0,1449675025507,1449675026616,901,528,0,0,0,3,4,1,7,0002-00-0001-75.png,0001-00-0000-77.png
00000014,181,1,1449675029561,1449675029565,478,462,0,0,0,0,1,1,1,0005-00-0000-31.png,0004-00-0001-72.png
00000014,182,0,1449675030751,1449675031278,927,423,0,0,0,1,2,1,3,0004-00-0000-17.png,0003-00-0000-44.png
00000014,183,1,1449675035913,1449675036296,964,462,0,0,0,1,0,1,1,0004-00-0001-90.png,0005-00-0001-26.png
00000014,184,0,1449675037346,1449675038351,392,454,0,0,0,2,1,1,3,0003-00-0001-70.png,0004-00-0000-43.png
00000014,185,1,1449675041781,1449675042167,952,435,0,0,0,4,3,1,7,0001-00-0000-14.png,0002-00-0000-50.png
00000014,186,1,1449675043162,1449675043818,906,510,0,0,0,1,0,1,1,0004-00-0001-80.png,0005-00-0001-90.png
00000014,187,0,1449675044798,1449675045446,888,510,0,0,0,1,2,1,3,0004-00-0001-33.png,0003-00-0001-18.png
00000014,188,1,1449675048544,1449675049052,429,398,0,0,0,0,1,1,1,0005-00-0000-23.png,0004-00-0001-93.png
00000014,189,0,1449675050005,1449675050626,939,474,0,0,0,2,3,1,5,0003-00-0000-10.png,0002-00-0001-06.png
00000014,190,0,1449675054184,1449675054588,996,430,0,0,0,3,4,1,7,0002-00-0001-80.png,0001-00-0001-86.png
00000014,191,1,1449675057852,1449675058249,951,332,0,0,0,3,2,1,5,0002-00-0000-55.png,0003-00-0001-54.png
00000014,192,1,1449675059185,1449675059707,927,449,0,0,0,2,1,1,3,0003-00-0001-17.png,0004-00-0001-89.png
00000014,193,1,1449675061165,1449675061602,385,419,0,0,0,0,1,1,1,0005-00-0001-50.png,0004-00-0001-74.png
00000014,194,0,1449675062524,1449675063044,902,450,0,0,0,2,3,1,5,0003-00-0000-82.png,0002-00-0001-30.png
00000014,195,1,1449675065880,1449675066312,925,378,0,0,0,2,1,1,3,0003-00-0001-93.png,0004-00-0001-25.png
00000014,196,1,1449675068127,1449675068582,874,508,0,0,0,4,3,1,7,0001-00-0001-62.png,0002-00-0000-22.png
00000014,197,1,1449675069535,1449675070013,402,559,0,0,0,1,2,1,3,0004-00-0001-11.png,0003-00-0001-94.png
00000014,198,1,1449675071000,1449675071432,412,488,0,0,0,3,4,1,7,0002-00-0001-14.png,0001-00-0000-42.png
00000014,199,0,1449675072529,1449675073012,339,429,0,0,0,3,2,1,5,0002-00-0001-35.png,0003-00-0000-98.png
00000014,200,1,1449675076130,1449675076523,952,397,0,0,0,1,0,1,1,0004-00-0001-39.png,0005-00-0000-81.png
00000014,201,0,1449675077541,1449675078063,926,462,0,0,0,2,3,1,5,0003-00-0001-27.png,0002-00-0000-20.png
00000014,202,0,1449675080905,1449675081282,964,410,0,0,0,1,2,1,3,0004-00-0000-97.png,0003-00-0000-32.png
00000014,203,1,1449675084428,1449675084840,966,423,0,0,0,2,1,1,3,0003-00-0000-66.png,0004-00-0001-43.png
00000014,204,1,1449675086653,1449675087055,927,390,0,0,0,4,3,1,7,0001-00-0000-73.png,0002-00-0000-79.png
00000014,205,1,1449675088031,1449675088537,928,410,0,0,0,1,0,1,1,0004-00-0000-42.png,0005-00-0000-51.png
00000014,206,1,1449675089496,1449675089971,413,563,0,0,0,0,1,1,1,0005-00-0000-07.png,0004-00-0000-09.png
00000014,207,1,1449675090981,1449675091389,331,410,0,0,0,3,4,1,7,0002-00-0000-39.png,0001-00-0000-75.png
00000014,208,1,1449675092489,1449675093031,920,446,0,0,0,3,2,1,5,0002-00-0000-82.png,0003-00-0001-19.png
00000014,209,1,1449675093978,1449675094633,926,382,0,0,0,3,2,1,5,0002-00-0000-26.png,0003-00-0000-29.png
00000014,210,0,1449675095584,1449675096217,900,442,0,0,0,3,4,1,7,0002-00-0001-05.png,0001-00-0001-21.png
00000014,211,1,1449675099245,1449675099683,952,424,0,0,0,4,3,1,7,0001-00-0001-43.png,0002-00-0001-72.png
00000014,212,1,1449675100677,1449675101280,925,448,0,0,0,2,1,1,3,0003-00-0000-35.png,0004-00-0000-36.png
00000014,213,1,1449675102186,1449675102641,355,453,0,0,0,0,1,1,1,0005-00-0000-17.png,0004-00-0001-78.png
00000014,214,1,1449675103686,1449675104206,358,522,0,0,0,1,2,1,3,0004-00-0000-92.png,0003-00-0001-39.png
00000014,215,0,1449675105205,1449675105759,903,415,0,0,0,2,3,1,5,0003-00-0001-17.png,0002-00-0001-58.png
00000014,216,1,1449675108589,1449675109025,882,500,0,0,0,1,0,1,1,0004-00-0000-32.png,0005-00-0001-82.png
00000014,217,1,1449675109995,1449675110529,903,469,0,0,0,2,1,1,3,0003-00-0001-95.png,0004-00-0001-85.png
00000014,218,0,1449675111449,1449675112076,904,453,0,0,0,3,4,1,7,0002-00-0001-36.png,0001-00-0001-96.png
00000014,219,0,1449675115064,1449675115492,926,424,0,0,0,0,1,1,1,0005-00-0001-36.png,0004-00-0001-59.png
00000014,220,0,1449675118395,1449675118814,951,411,0,0,0,2,3,1,5,0003-00-0000-58.png,0002-00-0001-36.png
00000014,221,1,1449675121666,1449675122040,902,356,0,0,0,1,0,1,1,0004-00-0000-45.png,0005-00-0001-75.png
00000014,222,1,1449675123019,1449675123611,879,401,0,0,0,3,2,1,5,0002-00-0001-13.png,0003-00-0000-82.png
00000014,223,0,1449675124610,1449675124999,324,481,0,0,0,4,3,1,7,0001-00-0000-25.png,0002-00-0001-36.png
00000014,224,0,1449675128277,1449675128670,903,442,0,0,0,1,2,1,3,0004-00-0001-83.png,0003-00-0001-00.png
00000014,225,1,1449675132401,1449675132846,964,424,0,0,0,4,3,1,7,0001-00-0001-39.png,0002-00-0000-73.png
00000014,226,1,1449675133759,1449675134210,390,540,0,0,0,0,1,1,1,0005-00-0000-81.png,0004-00-0001-85.png
00000014,227,0,1449675135141,1449675135709,866,536,0,0,0,1,2,1,3,0004-00-0001-88.png,0003-00-0001-96.png
00000014,228,1,1449675139666,1449675140122,985,409,0,0,0,2,1,1,3,0003-00-0000-05.png,0004-00-0000-27.png
00000014,229,0,1449675141046,1449675141659,886,424,0,0,0,2,3,1,5,0003-00-0000-84.png,0002-00-0001-11.png
00000014,230,0,1449675144983,1449675145403,967,422,0,0,0,3,4,1,7,0002-00-0001-01.png,0001-00-0001-32.png
00000014,231,1,1449675148507,1449675148908,988,404,0,0,0,1,0,1,1,0004-00-0001-66.png,0005-00-0000-07.png
00000014,232,1,1449675149831,1449675150480,891,464,0,0,0,3,2,1,5,0002-00-0001-29.png,0003-00-0000-29.png
00000014,233,0,1449675151379,1449675151916,896,420,0,0,0,1,2,1,3,0004-00-0001-51.png,0003-00-0000-91.png
00000014,234,0,1449675155299,1449675155700,977,435,0,0,0,2,3,1,5,0003-00-0000-15.png,0002-00-0000-09.png
00000014,235,1,1449675158627,1449675159089,988,424,0,0,0,2,1,1,3,0003-00-0001-71.png,0004-00-0000-73.png
00000014,236,0,1449675159971,1449675160534,857,420,0,0,0,3,4,1,7,0002-00-0000-09.png,0001-00-0000-65.png
00000014,237,0,1449675163810,1449675164215,951,489,0,0,0,0,1,1,1,0005-00-0000-53.png,0004-00-0001-35.png
00000014,238,1,1449675167076,1449675167490,936,500,0,0,0,1,0,1,1,0004-00-0000-51.png,0005-00-0000-10.png
00000014,239,1,1449675168384,1449675168953,895,420,0,0,0,3,2,1,5,0002-00-0000-95.png,0003-00-0000-39.png
00000014,240,0,1449675169907,1449675170329,385,450,0,0,0,4,3,1,7,0001-00-0000-61.png,0002-00-0001-17.png
00000014,241,0,1449675173245,1449675173671,952,397,0,0,0,3,4,1,7,0002-00-0000-64.png,0001-00-0001-30.png
00000014,242,0,1449675176703,1449675177169,976,410,0,0,0,1,2,1,3,0004-00-0001-50.png,0003-00-0000-66.png
00000014,243,1,1449675181199,1449675181653,976,475,0,0,0,1,0,1,1,0004-00-0001-47.png,0005-00-0000-72.png
00000014,244,1,1449675182593,1449675183064,350,410,0,0,0,0,1,1,1,0005-00-0000-68.png,0004-00-0001-42.png
00000014,245,1,1449675184097,1449675184677,900,436,0,0,0,3,2,1,5,0002-00-0000-92.png,0003-00-0001-68.png
00000014,246,0,1449675185707,1449675186297,879,529,0,0,0,2,3,1,5,0003-00-0001-28.png,0002-00-0000-70.png
00000014,247,1,1449675189330,1449675189797,945,442,0,0,0,4,3,1,7,0001-00-0000-26.png,0002-00-0000-88.png
00000014,248,1,1449675190708,1449675191289,890,544,0,0,0,2,1,1,3,0003-00-0000-56.png,0004-00-0000-93.png
00000014,249,0,1449675192221,1449675193320,902,441,0,0,0,2,3,1,5,0003-00-0001-61.png,0002-00-0001-86.png
00000014,250,0,1449675196375,1449675196783,978,435,0,0,0,0,1,1,1,0005-00-0001-12.png,0004-00-0000-28.png
00000014,251,1,1449675200460,1449675200893,953,416,0,0,0,2,1,1,3,0003-00-0001-09.png,0004-00-0000-33.png
00000014,252,1,1449675201770,1449675202224,437,441,0,0,0,1,2,1,3,0004-00-0001-35.png,0003-00-0000-63.png
00000014,253,0,1449675203212,1449675203642,330,465,0,0,0,3,2,1,5,0002-00-0001-40.png,0003-00-0001-61.png
00000014,254,0,1449675206999,1449675207426,965,423,0,0,0,3,4,1,7,0002-00-0001-49.png,0001-00-0001-78.png
00000014,255,1,1449675210715,1449675211072,975,378,0,0,0,1,0,1,1,0004-00-0001-90.png,0005-00-0001-93.png
00000014,256,0,1449675211997,1449675212626,348,432,0,0,0,4,3,1,7,0001-00-0000-95.png,0002-00-0000-52.png
00000014,257,0,1449675215773,1449675216122,998,417,0,0,0,0,1,1,1,0005-00-0001-74.png,0004-00-0001-33.png
00000014,258,1,1449675219234,1449675219668,977,370,0,0,0,2,1,1,3,0003-00-0000-41.png,0004-00-0000-70.png
00000014,259,0,1449675220593,1449675221159,873,542,0,0,0,2,3,1,5,0003-00-0001-25.png,0002-00-0000-55.png
00000014,260,1,1449675224160,1449675224555,964,450,0,0,0,3,2,1,5,0002-00-0000-13.png,0003-00-0001-28.png
00000014,261,1,1449675225481,1449675225964,363,453,0,0,0,1,2,1,3,0004-00-0001-96.png,0003-00-0001-34.png
00000014,262,0,1449675226934,1449675227354,339,450,0,0,0,4,3,1,7,0001-00-0001-66.png,0002-00-0000-68.png
00000014,263,1,1449675230352,1449675230814,971,418,0,0,0,1,0,1,1,0004-00-0000-55.png,0005-00-0000-34.png
00000014,264,1,1449675231703,1449675232126,401,436,0,0,0,3,4,1,7,0002-00-0001-51.png,0001-00-0000-99.png
00000014,265,1,1449675233134,1449675233672,874,439,0,0,0,1,0,1,1,0004-00-0000-91.png,0005-00-0000-34.png
00000014,266,1,1449675234741,1449675235148,365,477,0,0,0,0,1,1,1,0005-00-0001-25.png,0004-00-0001-75.png
00000014,267,0,1449675236315,1449675236707,372,455,0,0,0,2,1,1,3,0003-00-0000-92.png,0004-00-0000-19.png
00000014,268,1,1449675239548,1449675240097,880,506,0,0,0,3,2,1,5,0002-00-0000-86.png,0003-00-0001-20.png
00000014,269,0,1449675241063,1449675241642,888,476,0,0,0,2,3,1,5,0003-00-0000-09.png,0002-00-0001-59.png
00000014,270,0,1449675244553,1449675245021,969,392,0,0,0,1,2,1,3,0004-00-0000-01.png,0003-00-0000-45.png
00000014,271,1,1449675248120,1449675248576,951,463,0,0,0,4,3,1,7,0001-00-0000-47.png,0002-00-0001-03.png
00000014,272,0,1449675249553,1449675250096,877,467,0,0,0,3,4,1,7,0002-00-0001-46.png,0001-00-0000-36.png
00000014,273,1,1449675253350,1449675253765,957,453,0,0,0,2,1,1,3,0003-00-0000-35.png,0004-00-0000-90.png
00000014,274,0,1449675254691,1449675255242,900,450,0,0,0,2,3,1,5,0003-00-0001-26.png,0002-00-0001-50.png
00000014,275,0,1449675258168,1449675258620,901,554,0,0,0,3,4,1,7,0002-00-0000-69.png,0001-00-0000-21.png
00000014,276,1,1449675262160,1449675262648,381,410,0,0,0,1,2,1,3,0004-00-0000-59.png,0003-00-0000-16.png
00000014,277,0,1449675263556,1449675264062,410,562,0,0,0,4,3,1,7,0001-00-0000-41.png,0002-00-0000-02.png
00000014,278,1,1449675267363,1449675267855,362,411,0,0,0,0,1,1,1,0005-00-0000-84.png,0004-00-0001-79.png
00000014,279,1,1449675269317,1449675269747,875,448,0,0,0,1,0,1,1,0004-00-0000-51.png,0005-00-0001-11.png
00000014,280,0,1449675270766,1449675271142,412,501,0,0,0,3,2,1,5,0002-00-0001-61.png,0003-00-0001-13.png
00000014,281,1,1449675274089,1449675274109,504,462,0,0,0,3,4,1,7,0002-00-0000-97.png,0001-00-0000-07.png
00000014,282,1,1449675275013,1449675275561,901,461,0,0,0,2,1,1,3,0003-00-0000-67.png,0004-00-0001-25.png
00000014,283,1,1449675276755,1449675277175,401,553,0,0,0,0,1,1,1,0005-00-0001-27.png,0004-00-0001-68.png
00000014,284,1,1449675278256,1449675278849,888,450,0,0,0,3,2,1,5,0002-00-0000-63.png,0003-00-0001-94.png
00000014,285,1,1449675279846,1449675280414,877,444,0,0,0,4,3,1,7,0001-00-0001-30.png,0002-00-0001-30.png
00000014,286,0,1449675281504,1449675282108,909,459,0,0,0,1,2,1,3,0004-00-0000-24.png,0003-00-0000-49.png
00000014,287,1,1449675285024,1449675285478,925,436,0,0,0,1,0,1,1,0004-00-0001-18.png,0005-00-0001-20.png
00000014,288,0,1449675286495,1449675287030,871,459,0,0,0,2,3,1,5,0003-00-0001-20.png,0002-00-0001-60.png
00000014,289,1,1449675290095,1449675290554,951,489,0,0,0,4,3,1,7,0001-00-0000-56.png,0002-00-0001-70.png
00000014,290,1,1449675291590,1449675292125,901,462,0,0,0,3,2,1,5,0002-00-0001-00.png,0003-00-0001-16.png
00000014,291,0,1449675293173,1449675293688,898,430,0,0,0,2,3,1,5,0003-00-0000-41.png,0002-00-0000-47.png
00000014,292,1,1449675296545,1449675296973,937,424,0,0,0,1,0,1,1,0004-00-0000-33.png,0005-00-0000-24.png
00000014,293,1,1449675297945,1449675298371,344,444,0,0,0,1,2,1,3,0004-00-0001-30.png,0003-00-0000-20.png
00000014,294,1,1449675299456,1449675299919,350,450,0,0,0,0,1,1,1,0005-00-0001-79.png,0004-00-0001-64.png
00000014,295,1,1449675300964,1449675301625,891,457,0,0,0,2,1,1,3,0003-00-0000-45.png,0004-00-0001-87.png
00000014,296,1,1449675302656,1449675303079,393,498,0,0,0,3,4,1,7,0002-00-0000-76.png,0001-00-0001-75.png
00000014,297,1,1449675304176,1449675305204,875,397,0,0,0,2,1,1,3,0003-00-0001-30.png,0004-00-0001-06.png
00000014,298,0,1449675306195,1449675307285,920,415,0,0,0,2,3,1,5,0003-00-0000-80.png,0002-00-0001-63.png
00000014,299,1,1449675310278,1449675310826,427,384,0,0,0,0,1,1,1,0005-00-0000-83.png,0004-00-0001-17.png
00000014,300,1,1449675311936,1449675312384,413,449,0,0,0,1,2,1,3,0004-00-0000-86.png,0003-00-0001-60.png
00000014,301,0,1449675313457,1449675313855,376,463,0,0,0,4,3,1,7,0001-00-0000-78.png,0002-00-0001-69.png
00000014,302,1,1449675316958,1449675317422,934,448,0,0,0,1,0,1,1,0004-00-0000-06.png,0005-00-0001-83.png
00000014,303,0,1449675318389,1449675318996,888,449,0,0,0,3,4,1,7,0002-00-0001-67.png,0001-00-0001-22.png
00000014,304,1,1449675322297,1449675322731,952,435,0,0,0,3,2,1,5,0002-00-0000-48.png,0003-00-0000-60.png
00000014,305,0,1449675323675,1449675324113,376,502,0,0,0,4,3,1,7,0001-00-0001-33.png,0002-00-0001-14.png
00000014,306,1,1449675327262,1449675327647,887,370,0,0,0,1,0,1,1,0004-00-0000-67.png,0005-00-0001-44.png
00000014,307,0,1449675328554,1449675329109,860,561,0,0,0,2,3,1,5,0003-00-0000-43.png,0002-00-0000-62.png
00000014,308,1,1449675332205,1449675332788,401,410,0,0,0,0,1,1,1,0005-00-0000-65.png,0004-00-0000-96.png
00000014,309,1,1449675333721,1449675334350,896,446,0,0,0,3,2,1,5,0002-00-0001-04.png,0003-00-0000-11.png
00000014,310,1,1449675335365,1449675335769,363,488,0,0,0,1,2,1,3,0004-00-0000-12.png,0003-00-0001-10.png
00000014,311,1,1449675336832,1449675337367,874,489,0,0,0,2,1,1,3,0003-00-0000-98.png,0004-00-0001-62.png
00000014,312,1,1449675338460,1449675338842,338,474,0,0,0,3,4,1,7,0002-00-0001-81.png,0001-00-0001-83.png
00000014,313,0,1449675339954,1449675340371,427,462,0,0,0,4,3,1,7,0001-00-0001-75.png,0002-00-0001-09.png
00000014,314,1,1449675343311,1449675343774,953,417,0,0,0,2,1,1,3,0003-00-0001-98.png,0004-00-0001-30.png
00000014,315,0,1449675344714,1449675345288,870,544,0,0,0,2,3,1,5,0003-00-0000-97.png,0002-00-0000-75.png
00000014,316,0,1449675348110,1449675348142,504,400,0,0,0,3,2,1,5,0002-00-0000-66.png,0003-00-0000-80.png
00000014,317,0,1449675351056,1449675351441,952,410,0,0,0,1,2,1,3,0004-00-0001-52.png,0003-00-0000-46.png
00000014,318,1,1449675354354,1449675354771,1001,431,0,0,0,1,0,1,1,0004-00-0001-96.png,0005-00-0000-59.png
00000014,319,1,1449675355658,1449675356081,414,462,0,0,0,0,1,1,1,0005-00-0001-26.png,0004-00-0000-06.png
00000014,320,1,1449675357169,1449675357583,401,462,0,0,0,3,4,1,7,0002-00-0001-97.png,0001-00-0001-83.png
00000014,321,0,1449675358769,1449675359300,898,484,0,0,0,1,2,1,3,0004-00-0001-36.png,0003-00-0000-53.png
00000014,322,1,1449675362663,1449675363102,945,468,0,0,0,1,0,1,1,0004-00-0000-09.png,0005-00-0000-66.png
00000014,323,0,1449675364076,1449675364658,872,457,0,0,0,3,4,1,7,0002-00-0000-03.png,0001-00-0001-65.png
00000014,324,1,1449675367972,1449675368438,891,543,0,0,0,3,2,1,5,0002-00-0000-40.png,0003-00-0000-37.png
00000014,325,1,1449675369413,1449675369950,912,476,0,0,0,2,1,1,3,0003-00-0000-16.png,0004-00-0000-24.png
00000014,326,0,1449675371031,1449675371662,918,464,0,0,0,2,3,1,5,0003-00-0000-05.png,0002-00-0001-87.png
00000014,327,0,1449675375932,1449675376345,886,499,0,0,0,0,1,1,1,0005-00-0000-70.png,0004-00-0001-25.png
00000014,328,1,1449675379213,1449675379636,977,396,0,0,0,4,3,1,7,0001-00-0001-63.png,0002-00-0001-14.png
00000014,329,1,1449675380565,1449675381137,873,398,0,0,0,3,2,1,5,0002-00-0000-48.png,0003-00-0000-92.png
00000014,330,0,1449675382173,1449675382720,888,450,0,0,0,2,3,1,5,0003-00-0001-28.png,0002-00-0000-90.png
00000014,331,1,1449675386133,1449675386618,368,425,0,0,0,0,1,1,1,0005-00-0001-96.png,0004-00-0000-85.png
00000014,332,0,1449675387571,1449675388610,365,416,0,0,0,1,0,1,1,0004-00-0001-69.png,0005-00-0001-66.png
00000014,333,1,1449675391528,1449675392022,998,420,0,0,0,4,3,1,7,0001-00-0001-72.png,0002-00-0000-04.png
00000014,334,0,1449675392917,1449675393529,920,446,0,0,0,1,2,1,3,0004-00-0001-70.png,0003-00-0000-75.png
00000014,335,1,1449675396594,1449675396973,975,457,0,0,0,2,1,1,3,0003-00-0001-58.png,0004-00-0000-81.png
00000014,336,0,1449675397876,1449675398482,868,547,0,0,0,3,4,1,7,0002-00-0001-25.png,0001-00-0000-97.png
00000014,337,0,1449675401615,1449675402068,926,540,0,0,0,3,4,1,7,0002-00-0000-42.png,0001-00-0000-60.png
00000014,338,0,1449675405212,1449675405589,971,415,0,0,0,2,3,1,5,0003-00-0001-16.png,0002-00-0000-36.png
00000014,339,0,1449675408611,1449675409192,442,519,0,0,0,1,0,1,1,0004-00-0000-39.png,0005-00-0001-06.png
00000014,340,0,1449675412119,1449675412555,390,494,0,0,0,4,3,1,7,0001-00-0001-20.png,0002-00-0000-56.png
00000014,341,0,1449675416194,1449675416648,990,436,0,0,0,1,2,1,3,0004-00-0001-74.png,0003-00-0000-84.png
00000014,342,1,1449675419493,1449675419988,387,414,0,0,0,0,1,1,1,0005-00-0001-21.png,0004-00-0000-33.png
00000014,343,1,1449675420963,1449675421502,868,545,0,0,0,2,1,1,3,0003-00-0000-51.png,0004-00-0001-62.png
00000014,344,0,1449675422465,1449675422869,375,472,0,0,0,3,2,1,5,0002-00-0001-32.png,0003-00-0001-33.png
00000014,345,1,1449675425915,1449675426424,969,424,0,0,0,3,2,1,5,0002-00-0001-19.png,0003-00-0000-16.png
00000014,346,0,1449675427346,1449675427929,907,463,0,0,0,0,1,1,1,0005-00-0001-75.png,0004-00-0000-60.png
00000014,347,0,1449675430903,1449675431437,334,417,0,0,0,4,3,1,7,0001-00-0001-97.png,0002-00-0000-18.png
00000014,348,0,1449675434291,1449675434783,894,452,0,0,0,1,2,1,3,0004-00-0000-53.png,0003-00-0000-17.png
00000014,349,1,1449675437626,1449675437674,510,418,0,0,0,2,3,1,5,0003-00-0000-97.png,0002-00-0000-38.png
00000014,350,0,1449675438743,1449675439269,340,445,0,0,0,1,0,1,1,0004-00-0000-83.png,0005-00-0001-10.png
00000014,351,0,1449675442552,1449675442956,965,423,0,0,0,3,4,1,7,0002-00-0000-19.png,0001-00-0001-98.png
00000014,352,1,1449675446149,1449675446558,939,436,0,0,0,2,1,1,3,0003-00-0000-01.png,0004-00-0000-79.png
00000014,353,0,1449675447523,1449675448125,926,476,0,0,0,1,2,1,3,0004-00-0001-93.png,0003-00-0000-12.png
00000014,354,0,1449675451190,1449675451632,962,443,0,0,0,0,1,1,1,0005-00-0000-08.png,0004-00-0000-65.png
00000014,355,0,1449675454576,1449675455002,913,475,0,0,0,2,3,1,5,0003-00-0001-63.png,0002-00-0001-98.png
00000014,356,1,1449675457993,1449675458425,982,427,0,0,0,4,3,1,7,0001-00-0000-79.png,0002-00-0001-80.png
00000014,357,1,1449675459426,1449675460018,896,446,0,0,0,2,1,1,3,0003-00-0001-69.png,0004-00-0001-18.png
00000014,358,1,1449675461035,1449675461572,887,449,0,0,0,3,2,1,5,0002-00-0000-99.png,0003-00-0000-76.png
00000014,359,1,1449675462646,1449675463050,389,493,0,0,0,3,4,1,7,0002-00-0001-29.png,0001-00-0000-43.png
00000014,360,1,1449675464188,1449675464819,931,480,0,0,0,1,0,1,1,0004-00-0001-12.png,0005-00-0001-46.png
00000014,361,0,1449675465807,1449675466242,340,520,0,0,0,4,3,1,7,0001-00-0000-96.png,0002-00-0001-14.png
00000014,362,1,1449675469406,1449675469891,325,395,0,0,0,0,1,1,1,0005-00-0001-01.png,0004-00-0000-03.png
00000014,363,0,1449675470928,1449675471368,359,475,0,0,0,1,0,1,1,0004-00-0000-25.png,0005-00-0001-82.png
00000014,364,0,1449675474295,1449675474760,964,398,0,0,0,2,3,1,5,0003-00-0001-86.png,0002-00-0000-88.png
00000014,365,0,1449675477935,1449675478361,960,447,0,0,0,1,2,1,3,0004-00-0001-64.png,0003-00-0001-57.png
00000014,366,1,1449675481441,1449675481888,965,464,0,0,0,2,1,1,3,0003-00-0001-90.png,0004-00-0000-56.png
00000014,367,1,1449675482822,1449675483385,926,463,0,0,0,3,2,1,5,0002-00-0001-90.png,0003-00-0000-32.png
00000014,368,1,1449675484542,1449675485027,354,460,0,0,0,3,4,1,7,0002-00-0000-89.png,0001-00-0000-83.png
00000014,369,0,1449675486480,1449675486896,343,426,0,0,0,4,3,1,7,0001-00-0001-36.png,0002-00-0000-38.png
00000014,370,1,1449675489800,1449675489824,520,497,0,0,0,2,3,1,5,0003-00-0001-25.png,0002-00-0000-52.png
00000014,371,1,1449675490765,1449675491381,925,475,0,0,0,3,2,1,5,0002-00-0001-54.png,0003-00-0001-57.png
00000014,372,0,1449675492513,1449675493048,898,458,0,0,0,3,4,1,7,0002-00-0001-63.png,0001-00-0000-17.png
00000014,373,1,1449675495939,1449675496459,401,397,0,0,0,1,2,1,3,0004-00-0000-76.png,0003-00-0001-42.png
00000014,374,1,1449675497850,1449675498312,913,450,0,0,0,1,0,1,1,0004-00-0000-87.png,0005-00-0001-71.png
00000014,375,1,1449675499307,1449675499724,414,469,0,0,0,0,1,1,1,0005-00-0000-25.png,0004-00-0001-84.png
00000014,376,1,1449675500772,1449675501328,926,470,0,0,0,2,1,1,3,0003-00-0001-04.png,0004-00-0000-64.png
00000014,377,0,1449675502401,1449675503097,427,501,0,0,0,3,2,1,5,0002-00-0000-45.png,0003-00-0000-42.png
00000014,378,0,1449675506054,1449675506547,951,449,0,0,0,3,4,1,7,0002-00-0001-18.png,0001-00-0000-33.png
00000014,379,1,1449675509548,1449675510021,964,436,0,0,0,4,3,1,7,0001-00-0001-08.png,0002-00-0001-60.png
00000014,380,1,1449675511413,1449675512000,888,397,0,0,0,1,0,1,1,0004-00-0001-40.png,0005-00-0001-24.png
00000014,381,1,1449675512996,1449675513403,401,462,0,0,0,0,1,1,1,0005-00-0001-98.png,0004-00-0000-67.png
00000014,382,1,1449675514527,1449675514979,401,436,0,0,0,1,2,1,3,0004-00-0000-77.png,0003-00-0000-99.png
00000014,383,1,1449675516055,1449675516550,873,482,0,0,0,2,1,1,3,0003-00-0001-90.png,0004-00-0001-61.png
00000014,384,1,1449675517615,1449675517986,401,474,0,0,0,2,3,1,5,0003-00-0000-68.png,0002-00-0001-08.png
00000014,385,0,1449675519140,1449675520126,900,424,0,0,0,1,2,1,3,0004-00-0001-08.png,0003-00-0000-62.png
00000014,386,1,1449675523045,1449675523437,960,421,0,0,0,2,1,1,3,0003-00-0001-20.png,0004-00-0001-65.png
00000014,387,0,1449675524432,1449675524964,876,441,0,0,0,2,3,1,5,0003-00-0001-88.png,0002-00-0000-11.png
00000014,388,0,1449675528034,1449675528487,925,508,0,0,0,3,4,1,7,0002-00-0001-39.png,0001-00-0001-14.png
00000014,389,1,1449675531561,1449675531946,976,430,0,0,0,1,0,1,1,0004-00-0000-45.png,0005-00-0001-51.png
00000014,390,1,1449675532924,1449675533400,419,547,0,0,0,0,1,1,1,0005-00-0001-22.png,0004-00-0001-32.png
00000014,391,1,1449675534434,1449675534967,891,477,0,0,0,4,3,1,7,0001-00-0001-60.png,0002-00-0000-62.png
00000014,392,1,1449675536609,1449675537257,921,419,0,0,0,3,2,1,5,0002-00-0001-90.png,0003-00-0001-82.png
00000014,393,0,1449675538380,1449675538787,383,426,0,0,0,1,0,1,1,0004-00-0001-38.png,0005-00-0001-69.png
00000014,394,0,1449675541679,1449675541715,523,452,0,0,0,3,2,1,5,0002-00-0001-74.png,0003-00-0001-34.png
00000014,395,1,1449675545058,1449675545505,967,497,0,0,0,2,1,1,3,0003-00-0000-67.png,0004-00-0001-60.png
00000014,396,1,1449675546438,1449675547137,381,399,0,0,0,0,1,1,1,0005-00-0001-57.png,0004-00-0001-73.png
00000014,397,0,1449675548129,1449675548671,898,484,0,0,0,2,3,1,5,0003-00-0001-31.png,0002-00-0000-09.png
00000014,398,1,1449675551695,1449675552120,965,449,0,0,0,4,3,1,7,0001-00-0000-35.png,0002-00-0001-50.png
00000014,399,0,1449675553028,1449675553620,916,456,0,0,0,1,2,1,3,0004-00-0001-52.png,0003-00-0001-57.png
00000014,400,0,1449675556838,1449675557290,933,520,0,0,0,3,4,1,7,0002-00-0001-36.png,0001-00-0000-31.png
00000014,401,1,1449675560353,1449675560796,922,394,0,0,0,2,1,1,3,0003-00-0000-17.png,0004-00-0001-82.png
00000014,402,0,1449675561725,1449675562191,376,452,0,0,0,4,3,1,7,0001-00-0001-47.png,0002-00-0000-08.png
00000014,403,1,1449675565231,1449675565788,445,351,0,0,0,0,1,1,1,0005-00-0001-53.png,0004-00-0000-43.png
00000014,404,1,1449675566714,1449675567242,905,454,0,0,0,3,2,1,5,0002-00-0000-93.png,0003-00-0001-90.png
00000014,405,1,1449675568364,1449675569027,900,475,0,0,0,1,0,1,1,0004-00-0000-89.png,0005-00-0000-47.png
00000014,406,1,1449675570143,1449675570529,343,479,0,0,0,3,4,1,7,0002-00-0000-05.png,0001-00-0000-42.png
00000014,407,0,1449675571589,1449675572160,861,450,0,0,0,2,3,1,5,0003-00-0001-21.png,0002-00-0000-03.png
00000014,408,1,1449675575182,1449675575675,416,520,0,0,0,1,2,1,3,0004-00-0000-02.png,0003-00-0001-81.png
00000014,409,0,1449675577127,1449675577554,340,442,0,0,0,4,3,1,7,0001-00-0000-97.png,0002-00-0001-03.png
00000014,410,0,1449675580590,1449675581083,977,449,0,0,0,0,1,1,1,0005-00-0000-12.png,0004-00-0000-74.png
00000014,411,1,1449675584048,1449675584490,947,471,0,0,0,2,1,1,3,0003-00-0001-88.png,0004-00-0001-62.png
00000014,412,0,1449675586254,1449675586666,898,484,0,0,0,3,4,1,7,0002-00-0000-86.png,0001-00-0000-15.png
00000014,413,0,1449675589523,1449675589949,953,415,0,0,0,2,3,1,5,0003-00-0001-78.png,0002-00-0001-76.png
00000014,414,1,1449675593073,1449675593538,900,540,0,0,0,1,0,1,1,0004-00-0000-49.png,0005-00-0000-41.png
00000014,415,1,1449675594565,1449675595063,900,476,0,0,0,3,2,1,5,0002-00-0000-68.png,0003-00-0000-82.png
00000014,416,1,1449675596114,1449675596512,354,456,0,0,0,1,2,1,3,0004-00-0001-89.png,0003-00-0000-49.png
00000014,417,0,1449675597753,1449675598318,872,483,0,0,0,3,4,1,7,0002-00-0000-93.png,0001-00-0001-24.png
00000014,418,0,1449675601222,1449675601714,973,471,0,0,0,1,2,1,3,0004-00-0001-79.png,0003-00-0000-65.png
00000014,419,0,1449675604749,1449675605200,925,410,0,0,0,0,1,1,1,0005-00-0001-72.png,0004-00-0000-53.png
00000014,420,1,1449675608048,1449675608487,925,516,0,0,0,2,1,1,3,0003-00-0000-12.png,0004-00-0000-33.png
00000014,421,0,1449675609382,1449675609968,890,458,0,0,0,2,3,1,5,0003-00-0000-29.png,0002-00-0000-07.png
00000014,422,0,1449675612808,1449675613323,442,391,0,0,0,4,3,1,7,0001-00-0000-27.png,0002-00-0001-44.png
00000014,423,0,1449675616369,1449675616389,511,446,0,0,0,1,0,1,1,0004-00-0000-07.png,0005-00-0000-71.png
00000014,424,1,1449675619518,1449675619971,939,528,0,0,0,3,2,1,5,0002-00-0001-99.png,0003-00-0000-58.png
00000014,425,1,1449675620951,1449675621625,382,464,0,0,0,1,2,1,3,0004-00-0000-98.png,0003-00-0000-51.png
00000014,426,1,1449675622690,1449675623657,326,434,0,0,0,0,1,1,1,0005-00-0001-63.png,0004-00-0000-45.png
00000014,427,0,1449675624678,1449675625160,344,525,0,0,0,4,3,1,7,0001-00-0001-60.png,0002-00-0000-80.png
00000014,428,1,1449675628175,1449675628866,977,423,0,0,0,2,1,1,3,0003-00-0000-71.png,0004-00-0000-85.png
00000014,429,1,1449675629892,1449675630369,400,489,0,0,0,3,4,1,7,0002-00-0001-00.png,0001-00-0001-11.png
00000014,430,1,1449675631930,1449675632597,925,423,0,0,0,1,0,1,1,0004-00-0000-08.png,0005-00-0001-94.png
00000014,431,0,1449675633644,1449675634155,886,465,0,0,0,2,3,1,5,0003-00-0001-34.png,0002-00-0001-74.png
00000014,432,1,1449675637241,1449675637872,874,553,0,0,0,3,2,1,5,0002-00-0001-59.png,0003-00-0000-83.png
00000014,433,0,1449675638881,1449675639403,877,494,0,0,0,3,4,1,7,0002-00-0000-08.png,0001-00-0001-82.png
00000014,434,1,1449675642275,1449675642765,950,405,0,0,0,3,2,1,5,0002-00-0001-96.png,0003-00-0001-43.png
00000014,435,1,1449675643819,1449675644319,904,454,0,0,0,1,0,1,1,0004-00-0001-54.png,0005-00-0000-86.png
00000014,436,0,1449675645469,1449675646013,875,397,0,0,0,2,3,1,5,0003-00-0001-08.png,0002-00-0001-16.png
00000014,437,1,1449675649038,1449675649666,427,423,0,0,0,1,2,1,3,0004-00-0000-16.png,0003-00-0001-23.png
00000014,438,1,1449675650615,1449675651222,875,463,0,0,0,2,1,1,3,0003-00-0001-68.png,0004-00-0001-07.png
00000014,439,1,1449675652306,1449675652741,388,565,0,0,0,0,1,1,1,0005-00-0001-40.png,0004-00-0001-71.png
00000014,440,1,1449675653888,1449675654467,890,476,0,0,0,4,3,1,7,0001-00-0001-45.png,0002-00-0001-31.png
00000014,441,0,1449675655587,1449675655979,393,472,0,0,0,4,3,1,7,0001-00-0001-31.png,0002-00-0001-54.png
00000014,442,0,1449675659273,1449675660028,440,528,0,0,0,3,2,1,5,0002-00-0001-64.png,0003-00-0000-99.png
00000014,443,0,1449675663068,1449675663452,976,449,0,0,0,2,3,1,5,0003-00-0000-32.png,0002-00-0001-77.png
00000014,444,1,1449675666855,1449675667313,971,444,0,0,0,1,0,1,1,0004-00-0001-64.png,0005-00-0001-02.png
00000014,445,0,1449675668287,1449675669121,954,468,0,0,0,1,2,1,3,0004-00-0001-29.png,0003-00-0000-91.png
00000014,446,0,1449675671982,1449675672472,960,456,0,0,0,0,1,1,1,0005-00-0000-15.png,0004-00-0000-66.png
00000014,447,0,1449675675463,1449675676019,965,475,0,0,0,3,4,1,7,0002-00-0000-19.png,0001-00-0001-27.png
00000014,448,1,1449675679202,1449675679597,956,454,0,0,0,2,1,1,3,0003-00-0000-53.png,0004-00-0000-28.png
00000014,449,1,1449675680630,1449675681189,887,458,0,0,0,4,3,1,7,0001-00-0000-00.png,0002-00-0001-75.png
00000014,450,1,1449675682213,1449675683251,928,417,0,0,0,2,1,1,3,0003-00-0001-20.png,0004-00-0001-08.png
00000014,451,0,1449675684259,1449675684819,877,468,0,0,0,2,3,1,5,0003-00-0001-21.png,0002-00-0000-64.png
00000014,452,1,1449675687779,1449675687799,510,419,0,0,0,1,2,1,3,0004-00-0001-55.png,0003-00-0001-72.png
00000014,453,1,1449675688753,1449675689318,902,468,0,0,0,1,0,1,1,0004-00-0001-67.png,0005-00-0001-40.png
00000014,454,1,1449675690633,1449675691216,922,457,0,0,0,3,2,1,5,0002-00-0000-70.png,0003-00-0000-30.png
00000014,455,1,1449675692292,1449675692708,401,436,0,0,0,0,1,1,1,0005-00-0001-04.png,0004-00-0000-84.png
00000014,456,0,1449675693872,1449675694417,895,471,0,0,0,3,4,1,7,0002-00-0001-38.png,0001-00-0000-39.png
00000014,457,1,1449675697449,1449675697890,900,541,0,0,0,3,2,1,5,0002-00-0000-78.png,0003-00-0000-30.png
00000014,458,1,1449675698871,1449675699353,341,455,0,0,0,0,1,1,1,0005-00-0001-08.png,0004-00-0000-21.png
00000014,459,1,1449675700453,1449675701154,862,501,0,0,0,4,3,1,7,0001-00-0000-79.png,0002-00-0001-43.png
00000014,460,1,1449675702262,1449675702737,365,471,0,0,0,1,2,1,3,0004-00-0000-23.png,0003-00-0000-07.png
00000014,461,1,1449675703875,1449675704377,369,488,0,0,0,3,4,1,7,0002-00-0001-82.png,0001-00-0001-62.png
00000014,462,1,1449675705591,1449675706155,886,476,0,0,0,2,1,1,3,0003-00-0001-49.png,0004-00-0001-07.png
00000014,463,1,1449675707380,1449675707944,925,490,0,0,0,1,0,1,1,0004-00-0001-98.png,0005-00-0000-64.png
00000014,464,1,1449675709058,1449675709478,394,496,0,0,0,2,3,1,5,0003-00-0001-98.png,0002-00-0001-72.png
00000014,465,0,1449675710656,1449675711314,882,462,0,0,0,0,1,1,1,0005-00-0000-14.png,0004-00-0000-58.png
00000014,466,0,1449675714349,1449675714781,889,538,0,0,0,1,2,1,3,0004-00-0000-98.png,0003-00-0000-53.png
00000014,467,0,1449675717777,1449675717801,515,459,0,0,0,4,3,1,7,0001-00-0000-06.png,0002-00-0000-87.png
00000014,468,1,1449675720895,1449675721279,950,432,0,0,0,1,0,1,1,0004-00-0000-42.png,0005-00-0001-13.png
00000014,469,1,1449675722259,1449675722799,902,442,0,0,0,3,2,1,5,0002-00-0000-75.png,0003-00-0000-76.png
00000014,470,0,1449675723881,1449675724509,912,450,0,0,0,3,4,1,7,0002-00-0001-12.png,0001-00-0001-17.png
00000014,471,0,1449675727394,1449675727869,953,445,0,0,0,2,3,1,5,0003-00-0000-73.png,0002-00-0000-84.png
00000014,472,1,1449675730798,1449675731247,969,467,0,0,0,2,1,1,3,0003-00-0000-38.png,0004-00-0001-48.png
00000014,473,0,1449675732204,1449675732706,878,442,0,0,0,2,3,1,5,0003-00-0001-84.png,0002-00-0001-25.png
00000014,474,1,1449675735845,1449675736325,929,479,0,0,0,3,2,1,5,0002-00-0001-56.png,0003-00-0000-31.png
00000014,475,0,1449675737318,1449675737737,427,449,0,0,0,4,3,1,7,0001-00-0001-70.png,0002-00-0000-40.png
00000014,476,1,1449675740705,1449675741240,427,384,0,0,0,0,1,1,1,0005-00-0001-09.png,0004-00-0000-94.png
00000014,477,1,1449675742704,1449675743164,888,475,0,0,0,2,1,1,3,0003-00-0000-01.png,0004-00-0000-25.png
00000014,478,0,1449675744233,1449675744803,872,460,0,0,0,3,4,1,7,0002-00-0001-29.png,0001-00-0001-52.png
00000014,479,1,1449675748010,1449675748547,384,472,0,0,0,1,2,1,3,0004-00-0001-74.png,0003-00-0001-07.png
00000014,480,1,1449675749560,1449675750060,862,476,0,0,0,1,0,1,1,0004-00-0000-45.png,0005-00-0000-29.png
00000014,481,0,1449675751151,1449675751724,900,464,0,0,0,3,4,1,7,0002-00-0000-30.png,0001-00-0001-75.png
00000014,482,0,1449675754736,1449675755163,974,451,0,0,0,0,1,1,1,0005-00-0000-10.png,0004-00-0001-93.png
00000014,483,1,1449675758045,1449675758437,964,462,0,0,0,1,0,1,1,0004-00-0001-82.png,0005-00-0000-94.png
00000014,484,0,1449675759449,1449675759883,350,475,0,0,0,4,3,1,7,0001-00-0000-81.png,0002-00-0001-90.png
00000014,485,0,1449675762878,1449675763305,977,481,0,0,0,1,2,1,3,0004-00-0000-24.png,0003-00-0000-25.png
00000014,486,0,1449675766416,1449675766810,993,439,0,0,0,2,3,1,5,0003-00-0000-65.png,0002-00-0001-49.png
00000014,487,1,1449675769700,1449675770130,934,421,0,0,0,3,2,1,5,0002-00-0000-62.png,0003-00-0001-70.png
00000014,488,1,1449675771139,1449675771705,899,486,0,0,0,2,1,1,3,0003-00-0001-28.png,0004-00-0000-46.png
00000014,489,1,1449675773350,1449675774151,376,386,0,0,0,1,2,1,3,0004-00-0001-00.png,0003-00-0000-74.png
00000014,490,0,1449675775123,1449675775624,873,456,0,0,0,3,4,1,7,0002-00-0001-20.png,0001-00-0001-75.png
00000014,491,1,1449675778631,1449675779150,951,437,0,0,0,2,1,1,3,0003-00-0001-26.png,0004-00-0001-59.png
00000014,492,0,1449675780120,1449675780548,318,453,0,0,0,3,2,1,5,0002-00-0000-39.png,0003-00-0000-78.png
00000014,493,0,1449675783649,1449675784048,926,410,0,0,0,2,3,1,5,0003-00-0000-01.png,0002-00-0000-89.png
00000014,494,1,1449675787418,1449675787876,924,457,0,0,0,4,3,1,7,0001-00-0001-78.png,0002-00-0000-71.png
00000014,495,1,1449675788831,1449675789755,325,410,0,0,0,0,1,1,1,0005-00-0000-68.png,0004-00-0001-58.png
00000014,496,1,1449675790755,1449675791315,898,458,0,0,0,1,0,1,1,0004-00-0001-49.png,0005-00-0001-70.png
00000014,497,1,1449675792386,1449675792775,350,475,0,0,0,1,2,1,3,0004-00-0001-94.png,0003-00-0001-55.png
00000014,498,0,1449675793867,1449675794291,420,470,0,0,0,4,3,1,7,0001-00-0000-12.png,0002-00-0001-53.png
00000014,499,1,1449675797252,1449675797791,956,455,0,0,0,1,0,1,1,0004-00-0001-43.png,0005-00-0001-22.png
00000014,500,1,1449675798738,1449675798774,509,483,0,0,0,2,3,1,5,0003-00-0000-13.png,0002-00-0000-06.png
00000014,501,0,1449675800080,1449675800625,901,488,0,0,0,3,4,1,7,0002-00-0001-98.png,0001-00-0000-51.png
00000014,502,1,1449675804813,1449675805323,365,413,0,0,0,0,1,1,1,0005-00-0001-71.png,0004-00-0001-94.png
00000014,503,1,1449675806707,1449675807396,874,515,0,0,0,3,2,1,5,0002-00-0000-71.png,0003-00-0001-06.png
00000014,504,1,1449675809194,1449675809588,905,480,0,0,0,2,1,1,3,0003-00-0001-27.png,0004-00-0000-16.png
00000014,505,1,1449675810534,1449675810962,381,514,0,0,0,3,4,1,7,0002-00-0001-53.png,0001-00-0001-11.png
00000014,506,1,1449675812135,1449675812649,889,478,0,0,0,3,2,1,5,0002-00-0001-88.png,0003-00-0001-55.png
00000014,507,1,1449675813756,1449675814157,330,463,0,0,0,0,1,1,1,0005-00-0000-64.png,0004-00-0000-54.png
00000014,508,0,1449675815305,1449675815707,337,475,0,0,0,1,0,1,1,0004-00-0000-71.png,0005-00-0001-34.png
00000014,509,0,1449675818686,1449675818722,515,463,0,0,0,4,3,1,7,0001-00-0001-01.png,0002-00-0001-14.png
00000014,510,0,1449675821895,1449675822328,973,471,0,0,0,2,3,1,5,0003-00-0001-17.png,0002-00-0001-78.png
00000014,511,1,1449675825484,1449675825918,906,400,0,0,0,2,1,1,3,0003-00-0000-61.png,0004-00-0001-97.png
00000014,512,0,1449675826891,1449675827480,898,458,0,0,0,1,2,1,3,0004-00-0001-71.png,0003-00-0000-64.png
00000014,513,0,1449675830500,1449675830919,966,440,0,0,0,3,4,1,7,0002-00-0000-89.png,0001-00-0000-34.png
00000014,514,1,1449675835810,1449675836289,977,422,0,0,0,3,2,1,5,0002-00-0001-27.png,0003-00-0001-67.png
00000014,515,0,1449675837229,1449675838191,388,462,0,0,0,4,3,1,7,0001-00-0001-22.png,0002-00-0000-83.png
00000014,516,1,1449675844124,1449675844500,978,435,0,0,0,1,0,1,1,0004-00-0001-74.png,0005-00-0000-13.png
00000014,517,0,1449675845476,1449675846075,898,483,0,0,0,1,2,1,3,0004-00-0001-99.png,0003-00-0000-43.png
00000014,518,1,1449675849190,1449675849633,869,443,0,0,0,2,1,1,3,0003-00-0000-67.png,0004-00-0000-16.png
00000014,519,1,1449675850635,1449675851124,385,446,0,0,0,0,1,1,1,0005-00-0000-49.png,0004-00-0001-84.png
00000014,520,0,1449675852116,1449675852752,908,486,0,0,0,2,3,1,5,0003-00-0000-03.png,0002-00-0001-43.png
00000014,521,0,1449675855591,1449675856302,994,441,0,0,0,2,3,1,5,0003-00-0000-40.png,0002-00-0000-15.png
00000014,522,1,1449675859159,1449675859743,352,415,0,0,0,0,1,1,1,0005-00-0000-86.png,0004-00-0000-95.png
00000014,523,0,1449675860664,1449675861203,905,485,0,0,0,3,4,1,7,0002-00-0001-76.png,0001-00-0000-97.png
00000014,524,1,1449675864927,1449675865373,981,470,0,0,0,3,2,1,5,0002-00-0001-17.png,0003-00-0001-01.png
00000014,525,1,1449675866287,1449675866851,895,473,0,0,0,4,3,1,7,0001-00-0001-10.png,0002-00-0000-61.png
00000014,526,0,1449675867857,1449675868292,396,566,0,0,0,1,0,1,1,0004-00-0000-83.png,0005-00-0001-62.png
00000014,527,0,1449675871456,1449675871958,950,482,0,0,0,1,2,1,3,0004-00-0001-98.png,0003-00-0000-67.png
00000014,528,1,1449675875083,1449675875567,921,542,0,0,0,2,1,1,3,0003-00-0000-93.png,0004-00-0000-94.png
00000014,529,1,1449675876444,1449675876915,401,476,0,0,0,3,4,1,7,0002-00-0001-53.png,0001-00-0000-52.png
00000014,530,1,1449675877946,1449675878410,898,484,0,0,0,1,0,1,1,0004-00-0001-58.png,0005-00-0000-51.png
00000014,531,1,1449675879468,1449675880307,401,488,0,0,0,0,1,1,1,0005-00-0000-12.png,0004-00-0000-33.png
00000014,532,1,1449675881314,1449675881690,410,467,0,0,0,2,3,1,5,0003-00-0000-05.png,0002-00-0000-56.png
00000014,533,1,1449675882684,1449675883303,880,480,0,0,0,3,2,1,5,0002-00-0000-18.png,0003-00-0001-44.png
00000014,534,0,1449675884246,1449675884800,862,475,0,0,0,1,2,1,3,0004-00-0001-88.png,0003-00-0000-64.png
00000014,535,1,1449675887920,1449675888387,977,449,0,0,0,2,1,1,3,0003-00-0001-56.png,0004-00-0001-76.png
00000014,536,0,1449675889282,1449675889702,381,565,0,0,0,4,3,1,7,0001-00-0000-47.png,0002-00-0001-93.png
00000014,537,0,1449675892802,1449675893213,953,443,0,0,0,1,2,1,3,0004-00-0001-78.png,0003-00-0000-33.png
00000014,538,0,1449675896273,1449675896787,389,423,0,0,0,4,3,1,7,0001-00-0000-64.png,0002-00-0001-99.png
00000014,539,0,1449675900823,1449675901219,991,449,0,0,0,0,1,1,1,0005-00-0000-77.png,0004-00-0001-02.png
00000014,540,0,1449675904081,1449675904602,362,422,0,0,0,2,1,1,3,0003-00-0001-38.png,0004-00-0000-26.png
00000014,541,1,1449675907553,1449675907988,874,438,0,0,0,3,2,1,5,0002-00-0001-63.png,0003-00-0000-78.png
00000014,542,0,1449675909348,1449675909916,898,485,0,0,0,3,4,1,7,0002-00-0001-12.png,0001-00-0000-70.png
00000014,543,0,1449675913047,1449675913071,331,506,0,0,0,1,0,1,1,0004-00-0001-02.png,0005-00-0000-37.png
00000014,544,1,1449675918671,1449675919147,477,453,0,0,0,2,3,1,5,0003-00-0001-08.png,0002-00-0001-88.png
00000014,545,1,1449675920727,1449675921150,901,488,0,0,0,2,1,1,3,0003-00-0000-07.png,0004-00-0001-11.png
00000014,546,1,1449675922031,1449675922994,901,462,0,0,0,1,0,1,1,0004-00-0001-56.png,0005-00-0000-07.png
00000014,547,0,1449675923970,1449675924548,891,485,0,0,0,0,1,1,1,0005-00-0001-73.png,0004-00-0000-55.png
00000014,548,0,1449675929744,1449675930149,964,449,0,0,0,2,3,1,5,0003-00-0001-38.png,0002-00-0001-09.png
00000014,549,0,1449675933540,1449675933941,966,449,0,0,0,1,2,1,3,0004-00-0000-28.png,0003-00-0000-31.png
00000014,550,1,1449675937296,1449675937762,928,519,0,0,0,3,2,1,5,0002-00-0001-57.png,0003-00-0001-17.png
00000014,551,1,1449675939174,1449675939671,925,475,0,0,0,4,3,1,7,0001-00-0001-98.png,0002-00-0001-24.png
00000014,552,0,1449675940627,1449675941188,902,502,0,0,0,3,4,1,7,0002-00-0000-24.png,0001-00-0000-01.png
00000014,553,1,1449675944581,1449675945015,922,392,0,0,0,3,2,1,5,0002-00-0001-16.png,0003-00-0001-04.png
00000014,554,0,1449675945931,1449675946481,887,503,0,0,0,2,3,1,5,0003-00-0001-26.png,0002-00-0000-86.png
00000014,555,1,1449675951051,1449675951598,384,410,0,0,0,0,1,1,1,0005-00-0000-34.png,0004-00-0001-75.png
00000014,556,1,1449675952504,1449675953029,880,504,0,0,0,2,1,1,3,0003-00-0001-36.png,0004-00-0000-86.png
00000014,557,1,1449675954040,1449675954596,878,468,0,0,0,1,0,1,1,0004-00-0001-64.png,0005-00-0000-96.png
00000014,558,0,1449675955689,1449675956345,903,493,0,0,0,3,4,1,7,0002-00-0001-43.png,0001-00-0001-92.png
00000014,559,0,1449675959499,1449675959906,953,443,0,0,0,1,2,1,3,0004-00-0001-56.png,0003-00-0000-43.png
00000014,560,0,1449675962776,1449675963460,395,427,0,0,0,4,3,1,7,0001-00-0000-47.png,0002-00-0000-59.png
00000014,561,1,1449675966515,1449675967092,393,449,0,0,0,0,1,1,1,0005-00-0001-92.png,0004-00-0001-41.png
00000014,562,0,1449675968445,1449675968939,391,549,0,0,0,4,3,1,7,0001-00-0001-01.png,0002-00-0000-06.png
00000014,563,0,1449675972011,1449675972425,960,421,0,0,0,1,2,1,3,0004-00-0000-73.png,0003-00-0000-38.png
00000014,564,1,1449675975391,1449675975447,488,451,0,0,0,2,3,1,5,0003-00-0001-93.png,0002-00-0000-94.png
00000014,565,1,1449675976333,1449675977068,923,490,0,0,0,1,0,1,1,0004-00-0000-23.png,0005-00-0001-63.png
00000014,566,1,1449675978072,1449675979077,951,437,0,0,0,3,2,1,5,0002-00-0001-56.png,0003-00-0000-99.png
00000014,567,1,1449675980082,1449675980639,889,450,0,0,0,2,1,1,3,0003-00-0001-14.png,0004-00-0001-20.png
00000014,568,0,1449675981721,1449675982316,864,442,0,0,0,3,4,1,7,0002-00-0001-84.png,0001-00-0001-67.png
00000014,569,0,1449675985458,1449675985903,964,423,0,0,0,3,4,1,7,0002-00-0000-94.png,0001-00-0000-21.png
00000014,570,1,1449675988859,1449675989387,412,453,0,0,0,0,1,1,1,0005-00-0000-18.png,0004-00-0000-42.png
00000014,571,1,1449675991441,1449675991892,977,462,0,0,0,1,0,1,1,0004-00-0000-46.png,0005-00-0001-45.png
00000014,572,1,1449675992892,1449675993339,401,449,0,0,0,1,2,1,3,0004-00-0000-20.png,0003-00-0001-07.png
00000014,573,0,1449675994829,1449675995282,427,476,0,0,0,3,2,1,5,0002-00-0001-83.png,0003-00-0000-29.png
00000014,574,0,1449675998470,1449675998907,951,436,0,0,0,2,3,1,5,0003-00-0001-81.png,0002-00-0001-80.png
00000014,575,1,1449676001929,1449676002365,1003,462,0,0,0,2,1,1,3,0003-00-0001-65.png,0004-00-0000-11.png
00000014,576,1,1449676003318,1449676003902,874,489,0,0,0,4,3,1,7,0001-00-0000-85.png,0002-00-0001-44.png
00000014,577,0,1449676005000,1449676005398,318,473,0,0,0,1,0,1,1,0004-00-0000-53.png,0005-00-0000-11.png
00000014,578,1,1449676008807,1449676009308,964,449,0,0,0,3,2,1,5,0002-00-0000-84.png,0003-00-0000-16.png
00000014,579,0,1449676010354,1449676011210,888,384,0,0,0,1,2,1,3,0004-00-0001-75.png,0003-00-0001-13.png
00000014,580,0,1449676014041,1449676014503,983,448,0,0,0,3,4,1,7,0002-00-0001-85.png,0001-00-0000-17.png
00000014,581,1,1449676017968,1449676018371,1001,455,0,0,0,2,1,1,3,0003-00-0001-33.png,0004-00-0001-11.png
00000014,582,1,1449676019313,1449676019963,880,505,0,0,0,4,3,1,7,0001-00-0001-25.png,0002-00-0001-76.png
00000014,583,0,1449676020981,1449676021737,889,449,0,0,0,2,3,1,5,0003-00-0000-91.png,0002-00-0000-07.png
00000014,584,1,1449676025472,1449676026015,299,473,0,0,0,0,1,1,1,0005-00-0001-30.png,0004-00-0001-92.png
00000014,585,1,1449676026902,1449676027851,472,416,0,0,0,2,3,1,5,0003-00-0000-38.png,0002-00-0000-42.png
00000014,586,0,1449676028972,1449676029962,869,508,0,0,0,3,4,1,7,0002-00-0000-40.png,0001-00-0001-73.png
00000014,587,1,1449676033433,1449676033968,426,541,0,0,0,0,1,1,1,0005-00-0000-29.png,0004-00-0000-34.png
00000014,588,1,1449676034955,1449676035544,879,480,0,0,0,4,3,1,7,0001-00-0000-96.png,0002-00-0000-22.png
00000014,589,1,1449676036613,1449676037235,900,463,0,0,0,3,2,1,5,0002-00-0000-20.png,0003-00-0000-96.png
00000014,590,1,1449676038442,1449676039008,887,502,0,0,0,2,1,1,3,0003-00-0001-08.png,0004-00-0000-81.png
00000014,591,0,1449676040263,1449676040884,875,461,0,0,0,1,2,1,3,0004-00-0001-95.png,0003-00-0001-18.png
00000014,592,1,1449676044048,1449676044631,966,442,0,0,0,1,0,1,1,0004-00-0001-32.png,0005-00-0000-72.png
00000014,593,0,1449676045607,1449676046094,392,476,0,0,0,1,0,1,1,0004-00-0000-29.png,0005-00-0000-60.png
00000014,594,0,1449676049016,1449676049474,949,455,0,0,0,2,3,1,5,0003-00-0001-16.png,0002-00-0001-49.png
00000014,595,1,1449676052686,1449676053161,901,547,0,0,0,3,2,1,5,0002-00-0000-55.png,0003-00-0000-48.png
00000014,596,0,1449676054103,1449676054642,380,479,0,0,0,4,3,1,7,0001-00-0001-76.png,0002-00-0001-87.png
00000014,597,0,1449676057500,1449676057969,955,466,0,0,0,0,1,1,1,0005-00-0000-57.png,0004-00-0000-43.png
00000014,598,0,1449676061084,1449676061643,895,416,0,0,0,3,4,1,7,0002-00-0000-07.png,0001-00-0000-65.png
00000014,599,1,1449676064557,1449676065078,933,395,0,0,0,2,1,1,3,0003-00-0000-88.png,0004-00-0001-50.png
00000014,600,1,1449676066829,1449676067309,397,535,0,0,0,1,2,1,3,0004-00-0001-63.png,0003-00-0001-10.png
00000014,601,1,1449676068348,1449676069051,915,464,0,0,0,2,1,1,3,0003-00-0001-38.png,0004-00-0000-74.png
00000014,602,1,1449676069988,1449676070530,887,475,0,0,0,1,0,1,1,0004-00-0000-21.png,0005-00-0001-43.png
00000014,603,0,1449676071688,1449676072362,902,494,0,0,0,2,3,1,5,0003-00-0001-99.png,0002-00-0001-19.png
00000014,604,1,1449676075435,1449676075904,900,541,0,0,0,3,2,1,5,0002-00-0000-94.png,0003-00-0000-20.png
00000014,605,1,1449676076913,1449676077381,401,436,0,0,0,1,2,1,3,0004-00-0000-41.png,0003-00-0001-40.png
00000014,606,1,1449676078615,1449676079034,350,475,0,0,0,0,1,1,1,0005-00-0000-18.png,0004-00-0000-28.png
00000014,607,0,1449676080689,1449676081164,356,436,0,0,0,4,3,1,7,0001-00-0000-34.png,0002-00-0000-20.png
00000014,608,0,1449676084402,1449676085090,939,397,0,0,0,3,4,1,7,0002-00-0000-19.png,0001-00-0001-83.png
00000014,609,1,1449676087975,1449676088393,904,403,0,0,0,3,2,1,5,0002-00-0000-35.png,0003-00-0001-44.png
00000014,610,1,1449676089368,1449676090024,379,431,0,0,0,1,2,1,3,0004-00-0000-07.png,0003-00-0000-35.png
00000014,611,1,1449676091235,1449676091781,879,480,0,0,0,1,0,1,1,0004-00-0000-39.png,0005-00-0001-05.png
00000014,612,1,1449676092958,1449676093481,889,466,0,0,0,2,1,1,3,0003-00-0001-40.png,0004-00-0001-81.png
00000014,613,0,1449676094597,1449676095010,401,475,0,0,0,4,3,1,7,0001-00-0001-42.png,0002-00-0000-28.png
00000014,614,0,1449676098055,1449676098488,948,470,0,0,0,2,3,1,5,0003-00-0000-35.png,0002-00-0000-97.png
00000014,615,0,1449676101674,1449676102144,975,456,0,0,0,0,1,1,1,0005-00-0001-10.png,0004-00-0000-62.png
00000014,616,0,1449676105243,1449676105668,901,420,0,0,0,3,4,1,7,0002-00-0001-61.png,0001-00-0000-39.png
00000014,617,1,1449676108602,1449676109005,972,419,0,0,0,1,0,1,1,0004-00-0000-83.png,0005-00-0001-24.png
00000014,618,0,1449676109993,1449676110545,881,548,0,0,0,2,3,1,5,0003-00-0001-21.png,0002-00-0000-74.png
00000014,619,0,1449676113407,1449676113907,957,450,0,0,0,3,4,1,7,0002-00-0000-80.png,0001-00-0001-81.png
00000014,620,0,1449676117258,1449676117647,948,454,0,0,0,0,1,1,1,0005-00-0000-02.png,0004-00-0001-05.png
00000014,621,0,1449676122486,1449676122940,953,441,0,0,0,1,2,1,3,0004-00-0001-56.png,0003-00-0001-12.png
00000014,622,1,1449676128447,1449676128937,925,488,0,0,0,3,2,1,5,0002-00-0001-09.png,0003-00-0000-80.png
00000014,623,0,1449676130414,1449676130842,385,480,0,0,0,4,3,1,7,0001-00-0000-31.png,0002-00-0001-76.png
00000014,624,1,1449676133864,1449676134290,964,449,0,0,0,2,1,1,3,0003-00-0000-77.png,0004-00-0000-65.png
00000014,625,1,1449676135660,1449676136192,890,464,0,0,0,1,0,1,1,0004-00-0000-79.png,0005-00-0000-58.png
00000014,626,1,1449676137263,1449676137837,896,497,0,0,0,2,1,1,3,0003-00-0000-81.png,0004-00-0001-65.png
00000014,627,0,1449676138853,1449676139607,947,472,0,0,0,3,4,1,7,0002-00-0000-15.png,0001-00-0000-72.png
00000014,628,1,1449676143990,1449676144550,913,469,0,0,0,4,3,1,7,0001-00-0000-97.png,0002-00-0000-32.png
00000014,629,1,1449676145989,1449676146453,325,462,0,0,0,0,1,1,1,0005-00-0000-20.png,0004-00-0000-76.png
00000014,630,0,1449676147489,1449676148075,862,480,0,0,0,2,3,1,5,0003-00-0001-73.png,0002-00-0000-57.png
00000014,631,1,1449676151371,1449676151826,977,455,0,0,0,3,2,1,5,0002-00-0000-97.png,0003-00-0000-11.png
00000014,632,0,1449676152830,1449676153553,886,476,0,0,0,1,2,1,3,0004-00-0001-07.png,0003-00-0000-68.png
00000014,633,1,1449676157190,1449676157696,946,486,0,0,0,4,3,1,7,0001-00-0001-86.png,0002-00-0000-98.png
00000014,634,0,1449676158680,1449676159442,888,462,0,0,0,1,2,1,3,0004-00-0001-37.png,0003-00-0001-51.png
00000014,635,0,1449676162578,1449676162987,953,415,0,0,0,2,3,1,5,0003-00-0001-91.png,0002-00-0001-27.png
00000014,636,0,1449676165994,1449676166514,899,515,0,0,0,0,1,1,1,0005-00-0000-29.png,0004-00-0000-32.png
00000014,637,1,1449676169624,1449676170087,901,409,0,0,0,1,0,1,1,0004-00-0000-97.png,0005-00-0000-71.png
00000014,638,1,1449676171035,1449676171639,862,476,0,0,0,3,2,1,5,0002-00-0001-99.png,0003-00-0000-27.png
00000014,639,0,1449676172791,1449676173191,392,457,0,0,0,2,1,1,3,0003-00-0000-44.png,0004-00-0000-40.png
00000014,640,0,1449676176462,1449676176937,964,475,0,0,0,3,4,1,7,0002-00-0000-96.png,0001-00-0000-86.png
00000014,641,0,1449676179809,1449676180213,932,501,0,0,0,3,4,1,7,0002-00-0001-00.png,0001-00-0000-79.png
00000014,642,1,1449676183614,1449676184020,965,423,0,0,0,1,0,1,1,0004-00-0001-11.png,0005-00-0000-62.png
00000014,643,1,1449676185138,1449676185770,905,505,0,0,0,3,2,1,5,0002-00-0000-88.png,0003-00-0000-86.png
00000014,644,1,1449676186718,1449676187159,387,503,0,0,0,1,2,1,3,0004-00-0001-81.png,0003-00-0000-94.png
00000014,645,0,1449676188188,1449676188788,379,471,0,0,0,4,3,1,7,0001-00-0001-15.png,0002-00-0000-69.png
00000014,646,1,1449676192422,1449676192856,974,456,0,0,0,2,1,1,3,0003-00-0001-52.png,0004-00-0001-25.png
00000014,647,0,1449676193852,1449676194680,885,487,0,0,0,2,3,1,5,0003-00-0001-08.png,0002-00-0001-42.png
00000014,648,1,1449676198058,1449676198564,387,449,0,0,0,0,1,1,1,0005-00-0000-51.png,0004-00-0001-50.png
00000014,649,0,1449676200211,1449676200706,886,477,0,0,0,2,3,1,5,0003-00-0001-26.png,0002-00-0001-35.png
00000014,650,1,1449676204001,1449676204514,422,363,0,0,0,1,2,1,3,0004-00-0001-57.png,0003-00-0001-69.png
00000014,651,1,1449676205568,1449676206221,872,513,0,0,0,4,3,1,7,0001-00-0000-45.png,0002-00-0001-28.png
00000014,652,0,1449676207391,1449676207755,381,479,0,0,0,3,2,1,5,0002-00-0000-30.png,0003-00-0000-80.png
00000014,653,1,1449676210680,1449676211166,951,476,0,0,0,1,0,1,1,0004-00-0001-93.png,0005-00-0000-77.png
00000014,654,1,1449676212202,1449676212735,898,484,0,0,0,2,1,1,3,0003-00-0000-97.png,0004-00-0000-15.png
00000014,655,0,1449676213822,1449676214365,877,459,0,0,0,3,4,1,7,0002-00-0000-93.png,0001-00-0001-72.png
00000014,656,1,1449676218033,1449676218659,453,436,0,0,0,0,1,1,1,0005-00-0000-60.png,0004-00-0001-48.png
00000014,657,1,1449676219688,1449676220347,886,502,0,0,0,1,0,1,1,0004-00-0001-48.png,0005-00-0000-81.png
00000014,658,1,1449676221594,1449676222124,877,495,0,0,0,4,3,1,7,0001-00-0000-54.png,0002-00-0000-19.png
00000014,659,1,1449676223768,1449676224325,880,427,0,0,0,2,1,1,3,0003-00-0000-27.png,0004-00-0001-26.png
00000014,660,1,1449676225380,1449676225963,875,501,0,0,0,3,2,1,5,0002-00-0001-90.png,0003-00-0001-56.png
00000014,661,1,1449676227090,1449676227562,360,467,0,0,0,0,1,1,1,0005-00-0001-03.png,0004-00-0000-29.png
00000014,662,0,1449676229563,1449676230036,875,463,0,0,0,2,3,1,5,0003-00-0001-64.png,0002-00-0001-90.png
00000014,663,0,1449676233201,1449676233628,923,461,0,0,0,1,2,1,3,0004-00-0001-05.png,0003-00-0001-02.png
00000014,664,0,1449676236582,1449676236986,952,474,0,0,0,3,4,1,7,0002-00-0001-14.png,0001-00-0000-29.png
00000014,665,0,1449676239952,1449676240477,988,474,0,0,0,0,1,1,1,0005-00-0000-69.png,0004-00-0000-87.png
00000014,666,1,1449676243551,1449676244108,932,492,0,0,0,3,2,1,5,0002-00-0001-54.png,0003-00-0001-88.png
00000014,667,1,1449676245090,1449676246208,478,410,0,0,0,1,2,1,3,0004-00-0000-47.png,0003-00-0001-75.png
00000014,668,0,1449676247418,1449676248766,488,381,0,0,0,4,3,1,7,0001-00-0000-48.png,0002-00-0001-62.png
00000014,669,1,1449676252237,1449676252698,888,447,0,0,0,1,0,1,1,0004-00-0000-70.png,0005-00-0000-28.png
00000014,670,1,1449676253835,1449676253863,510,521,0,0,0,3,4,1,7,0002-00-0001-60.png,0001-00-0000-33.png
00000014,671,0,1449676255098,1449676256122,900,515,0,0,0,2,3,1,5,0003-00-0001-69.png,0002-00-0001-73.png
00000014,672,1,1449676259439,1449676259888,913,554,0,0,0,2,1,1,3,0003-00-0000-36.png,0004-00-0000-93.png
00000014,673,1,1449676260884,1449676261430,899,490,0,0,0,1,0,1,1,0004-00-0001-02.png,0005-00-0000-37.png
00000014,674,0,1449676262611,1449676263140,862,501,0,0,0,2,3,1,5,0003-00-0001-23.png,0002-00-0000-19.png
00000014,675,1,1449676266370,1449676266867,363,423,0,0,0,0,1,1,1,0005-00-0001-54.png,0004-00-0001-07.png
00000014,676,1,1449676267932,1449676268432,868,468,0,0,0,3,2,1,5,0002-00-0001-23.png,0003-00-0000-61.png
00000014,677,1,1449676269560,1449676269946,410,454,0,0,0,1,2,1,3,0004-00-0000-02.png,0003-00-0000-46.png
00000014,678,1,1449676271128,1449676271689,871,470,0,0,0,2,1,1,3,0003-00-0001-10.png,0004-00-0001-61.png
00000014,679,1,1449676272871,1449676273430,898,460,0,0,0,4,3,1,7,0001-00-0000-48.png,0002-00-0001-57.png
00000014,680,0,1449676274660,1449676275282,898,485,0,0,0,3,4,1,7,0002-00-0001-26.png,0001-00-0000-26.png
00000014,681,1,1449676279958,1449676280374,950,482,0,0,0,1,0,1,1,0004-00-0000-50.png,0005-00-0001-00.png
00000014,682,1,1449676281348,1449676281372,504,500,0,0,0,3,4,1,7,0002-00-0000-28.png,0001-00-0001-58.png
00000014,683,1,1449676283027,1449676283500,364,441,0,0,0,0,1,1,1,0005-00-0001-73.png,0004-00-0001-20.png
00000014,684,0,1449676284560,1449676285012,360,482,0,0,0,4,3,1,7,0001-00-0000-32.png,0002-00-0000-12.png
00000014,685,0,1449676289666,1449676290115,952,442,0,0,0,2,3,1,5,0003-00-0001-44.png,0002-00-0000-05.png
00000014,686,0,1449676293823,1449676294353,956,474,0,0,0,1,2,1,3,0004-00-0001-24.png,0003-00-0001-62.png
00000014,687,1,1449676297925,1449676298352,902,394,0,0,0,2,1,1,3,0003-00-0001-00.png,0004-00-0001-92.png
00000014,688,1,1449676299357,1449676299977,891,491,0,0,0,3,2,1,5,0002-00-0001-28.png,0003-00-0000-71.png
00000014,689,0,1449676301098,1449676301525,339,450,0,0,0,4,3,1,7,0001-00-0001-56.png,0002-00-0001-25.png
00000014,690,0,1449676305479,1449676305934,908,526,0,0,0,0,1,1,1,0005-00-0000-12.png,0004-00-0001-55.png
00000014,691,0,1449676310358,1449676310810,987,504,0,0,0,2,3,1,5,0003-00-0000-73.png,0002-00-0000-30.png
00000014,692,1,1449676313775,1449676314199,978,410,0,0,0,3,2,1,5,0002-00-0001-49.png,0003-00-0001-49.png
00000014,693,1,1449676315308,1449676316058,901,461,0,0,0,2,1,1,3,0003-00-0001-79.png,0004-00-0001-97.png
00000014,694,0,1449676317173,1449676317752,875,476,0,0,0,1,2,1,3,0004-00-0000-07.png,0003-00-0001-81.png
00000014,695,0,1449676320736,1449676321352,926,436,0,0,0,3,4,1,7,0002-00-0001-02.png,0001-00-0001-16.png
00000014,696,1,1449676324751,1449676325226,875,443,0,0,0,1,0,1,1,0004-00-0000-51.png,0005-00-0001-36.png
00000014,697,0,1449676326262,1449676326789,912,502,0,0,0,2,3,1,5,0003-00-0000-57.png,0002-00-0001-42.png
00000014,698,0,1449676330455,1449676330922,922,481,0,0,0,0,1,1,1,0005-00-0001-73.png,0004-00-0000-73.png
00000014,699,1,1449676333932,1449676333952,521,428,0,0,0,1,2,1,3,0004-00-0001-61.png,0003-00-0000-83.png
00000014,700,0,1449676335186,1449676335639,356,462,0,0,0,3,2,1,5,0002-00-0001-47.png,0003-00-0000-62.png
00000014,701,0,1449676338924,1449676339436,439,462,0,0,0,4,3,1,7,0001-00-0000-25.png,0002-00-0001-94.png
00000014,702,1,1449676342975,1449676343423,943,460,0,0,0,1,0,1,1,0004-00-0000-06.png,0005-00-0000-75.png
00000014,703,0,1449676344843,1449676345305,887,476,0,0,0,3,4,1,7,0002-00-0001-94.png,0001-00-0000-45.png
00000014,704,1,1449676348535,1449676348955,924,456,0,0,0,2,1,1,3,0003-00-0000-22.png,0004-00-0000-52.png
00000014,705,1,1449676349904,1449676350460,875,476,0,0,0,4,3,1,7,0001-00-0000-14.png,0002-00-0000-73.png
00000014,706,1,1449676351545,1449676352091,877,468,0,0,0,2,1,1,3,0003-00-0001-47.png,0004-00-0000-35.png
00000014,707,1,1449676353236,1449676353800,880,480,0,0,0,1,0,1,1,0004-00-0001-25.png,0005-00-0000-04.png
00000014,708,0,1449676355301,1449676356473,887,489,0,0,0,2,3,1,5,0003-00-0000-70.png,0002-00-0000-61.png
00000014,709,0,1449676359676,1449676360191,966,533,0,0,0,1,2,1,3,0004-00-0000-79.png,0003-00-0000-21.png
00000014,710,1,1449676363091,1449676363600,993,418,0,0,0,3,2,1,5,0002-00-0001-71.png,0003-00-0000-36.png
00000014,711,1,1449676364597,1449676365077,364,502,0,0,0,0,1,1,1,0005-00-0001-21.png,0004-00-0000-11.png
00000014,712,0,1449676366720,1449676367348,900,449,0,0,0,3,4,1,7,0002-00-0001-20.png,0001-00-0000-67.png
00000014,713,1,1449676370421,1449676370875,950,431,0,0,0,1,0,1,1,0004-00-0000-61.png,0005-00-0001-29.png
00000014,714,0,1449676371931,1449676372480,872,483,0,0,0,3,4,1,7,0002-00-0001-46.png,0001-00-0000-22.png
00000014,715,0,1449676375440,1449676375982,389,456,0,0,0,2,1,1,3,0003-00-0001-83.png,0004-00-0001-43.png
00000014,716,0,1449676378845,1449676379315,924,457,0,0,0,1,2,1,3,0004-00-0001-22.png,0003-00-0001-76.png
00000014,717,1,1449676382163,1449676382661,948,456,0,0,0,3,2,1,5,0002-00-0001-05.png,0003-00-0000-11.png
00000014,718,0,1449676384133,1449676384829,925,491,0,0,0,2,3,1,5,0003-00-0001-01.png,0002-00-0000-68.png
00000014,719,1,1449676388300,1449676388916,388,423,0,0,0,0,1,1,1,0005-00-0001-26.png,0004-00-0001-03.png
00000014,720,1,1449676390423,1449676391239,873,543,0,0,0,4,3,1,7,0001-00-0001-88.png,0002-00-0000-99.png
00000014,721,1,1449676392363,1449676392927,867,496,0,0,0,2,1,1,3,0003-00-0000-62.png,0004-00-0000-81.png
00000014,722,1,1449676393994,1449676394399,360,476,0,0,0,0,1,1,1,0005-00-0001-41.png,0004-00-0000-40.png
00000014,723,0,1449676395524,1449676396560,919,442,0,0,0,3,4,1,7,0002-00-0000-16.png,0001-00-0000-24.png
00000014,724,1,1449676405064,1449676405469,959,448,0,0,0,3,2,1,5,0002-00-0000-06.png,0003-00-0001-15.png
00000014,725,1,1449676406629,1449676406657,491,514,0,0,0,1,2,1,3,0004-00-0001-95.png,0003-00-0000-28.png
00000014,726,0,1449676407962,1449676408510,882,526,0,0,0,2,3,1,5,0003-00-0000-45.png,0002-00-0001-54.png
00000014,727,1,1449676411450,1449676412001,954,493,0,0,0,1,0,1,1,0004-00-0000-02.png,0005-00-0000-02.png
00000014,728,1,1449676413051,1449676413668,912,476,0,0,0,4,3,1,7,0001-00-0001-14.png,0002-00-0001-78.png
00000014,729,1,1449676414828,1449676415393,893,469,0,0,0,4,3,1,7,0001-00-0000-35.png,0002-00-0000-61.png
00000014,730,1,1449676416660,1449676417330,925,475,0,0,0,1,0,1,1,0004-00-0001-92.png,0005-00-0000-47.png
00000014,731,1,1449676418477,1449676418946,393,473,0,0,0,1,2,1,3,0004-00-0000-91.png,0003-00-0000-44.png
00000014,732,0,1449676420088,1449676420750,898,509,0,0,0,2,3,1,5,0003-00-0001-44.png,0002-00-0001-01.png
00000014,733,1,1449676423865,1449676424376,427,554,0,0,0,3,4,1,7,0002-00-0001-50.png,0001-00-0001-39.png
00000014,734,1,1449676425436,1449676425883,370,557,0,0,0,0,1,1,1,0005-00-0000-75.png,0004-00-0001-57.png
00000014,735,1,1449676427033,1449676428081,914,423,0,0,0,2,1,1,3,0003-00-0000-54.png,0004-00-0001-67.png
00000014,736,0,1449676429211,1449676429227,507,456,0,0,0,3,2,1,5,0002-00-0000-47.png,0003-00-0000-67.png
00000014,737,1,1449676432631,1449676432643,517,424,0,0,0,1,2,1,3,0004-00-0001-29.png,0003-00-0000-78.png
00000014,738,1,1449676433764,1449676434155,351,445,0,0,0,0,1,1,1,0005-00-0001-89.png,0004-00-0001-37.png
00000014,739,1,1449676435417,1449676435978,898,483,0,0,0,3,2,1,5,0002-00-0001-54.png,0003-00-0000-38.png
00000014,740,0,1449676437196,1449676438251,911,450,0,0,0,2,3,1,5,0003-00-0000-25.png,0002-00-0000-83.png
00000014,741,1,1449676441298,1449676441731,956,429,0,0,0,1,0,1,1,0004-00-0001-69.png,0005-00-0001-64.png
00000014,742,1,1449676442777,1449676443429,873,483,0,0,0,4,3,1,7,0001-00-0000-75.png,0002-00-0001-03.png
00000014,743,1,1449676444676,1449676444716,523,532,0,0,0,3,4,1,7,0002-00-0001-87.png,0001-00-0001-08.png
00000014,744,1,1449676445958,1449676446541,874,490,0,0,0,2,1,1,3,0003-00-0001-36.png,0004-00-0001-61.png
00000014,745,0,1449676447820,1449676447864,478,562,0,0,0,1,0,1,1,0004-00-0001-20.png,0005-00-0000-53.png
00000014,746,1,1449676451060,1449676451631,357,392,0,0,0,0,1,1,1,0005-00-0001-93.png,0004-00-0001-91.png
00000014,747,1,1449676452727,1449676453413,874,495,0,0,0,3,2,1,5,0002-00-0000-73.png,0003-00-0001-05.png
00000014,748,0,1449676454658,1449676455068,361,462,0,0,0,4,3,1,7,0001-00-0001-09.png,0002-00-0001-98.png
00000014,749,0,1449676458096,1449676458643,947,497,0,0,0,3,4,1,7,0002-00-0000-34.png,0001-00-0000-67.png
00000014,750,1,1449676461516,1449676462002,969,436,0,0,0,2,1,1,3,0003-00-0000-99.png,0004-00-0001-60.png
00000014,751,0,1449676463771,1449676464245,877,495,0,0,0,2,3,1,5,0003-00-0000-67.png,0002-00-0001-66.png
00000014,752,0,1449676467231,1449676467679,951,490,0,0,0,1,2,1,3,0004-00-0000-24.png,0003-00-0001-07.png
00000014,753,0,1449676470542,1449676471268,930,468,0,0,0,1,2,1,3,0004-00-0000-71.png,0003-00-0000-32.png
00000014,754,1,1449676474398,1449676474871,968,465,0,0,0,2,1,1,3,0003-00-0000-68.png,0004-00-0001-50.png
00000014,755,1,1449676475871,1449676476525,928,490,0,0,0,1,0,1,1,0004-00-0001-27.png,0005-00-0001-37.png
00000014,756,1,1449676477636,1449676479765,411,377,0,0,0,3,4,1,7,0002-00-0000-13.png,0001-00-0001-57.png
00000014,757,0,1449676480756,1449676481877,900,450,0,0,0,2,3,1,5,0003-00-0000-53.png,0002-00-0000-36.png
00000014,758,0,1449676486234,1449676486698,950,458,0,0,0,0,1,1,1,0005-00-0000-97.png,0004-00-0000-96.png
00000014,759,1,1449676489822,1449676490398,920,476,0,0,0,4,3,1,7,0001-00-0000-82.png,0002-00-0001-19.png
00000014,760,0,1449676491523,1449676491963,386,485,0,0,0,3,2,1,5,0002-00-0000-86.png,0003-00-0001-86.png
00000014,761,1,1449676495120,1449676495631,927,497,0,0,0,2,1,1,3,0003-00-0000-67.png,0004-00-0000-66.png
00000014,762,1,1449676496641,1449676497139,366,483,0,0,0,1,2,1,3,0004-00-0000-68.png,0003-00-0000-60.png
00000014,763,1,1449676498459,1449676498912,343,453,0,0,0,0,1,1,1,0005-00-0001-85.png,0004-00-0000-52.png
00000014,764,0,1449676500179,1449676500735,875,502,0,0,0,3,4,1,7,0002-00-0001-02.png,0001-00-0001-15.png
00000014,765,1,1449676503587,1449676504092,365,463,0,0,0,2,3,1,5,0003-00-0001-37.png,0002-00-0001-74.png
00000014,766,1,1449676505972,1449676506392,898,483,0,0,0,1,0,1,1,0004-00-0001-30.png,0005-00-0001-55.png
00000014,767,0,1449676507525,1449676507979,387,499,0,0,0,4,3,1,7,0001-00-0001-54.png,0002-00-0000-41.png
00000014,768,1,1449676517815,1449676518492,896,498,0,0,0,3,2,1,5,0002-00-0000-15.png,0003-00-0001-84.png
00000014,769,1,1449676519900,1449676520375,350,423,0,0,0,0,1,1,1,0005-00-0000-74.png,0004-00-0001-31.png
00000014,770,1,1449676521456,1449676521932,397,467,0,0,0,1,2,1,3,0004-00-0000-00.png,0003-00-0001-92.png
00000014,771,1,1449676523028,1449676523541,888,475,0,0,0,1,0,1,1,0004-00-0000-62.png,0005-00-0000-45.png
00000014,772,0,1449676524745,1449676525112,403,495,0,0,0,2,1,1,3,0003-00-0000-50.png,0004-00-0001-71.png
00000014,773,1,1449676528050,1449676528596,422,437,0,0,0,2,3,1,5,0003-00-0000-87.png,0002-00-0000-20.png
00000014,774,1,1449676529740,1449676530318,876,487,0,0,0,4,3,1,7,0001-00-0000-20.png,0002-00-0001-71.png
00000014,775,1,1449676531561,1449676532118,873,508,0,0,0,3,2,1,5,0002-00-0001-05.png,0003-00-0000-32.png
00000014,776,0,1449676533324,1449676533867,859,524,0,0,0,3,4,1,7,0002-00-0001-36.png,0001-00-0001-67.png
00000014,777,1,1449676536920,1449676537386,954,493,0,0,0,2,1,1,3,0003-00-0001-64.png,0004-00-0000-29.png
00000014,778,0,1449676538503,1449676539022,874,501,0,0,0,3,4,1,7,0002-00-0001-79.png,0001-00-0000-27.png
00000014,779,0,1449676542299,1449676542760,976,474,0,0,0,2,3,1,5,0003-00-0000-10.png,0002-00-0000-63.png
00000014,780,1,1449676545698,1449676546210,969,489,0,0,0,1,0,1,1,0004-00-0000-69.png,0005-00-0001-86.png
00000014,781,1,1449676547279,1449676548085,876,449,0,0,0,3,2,1,5,0002-00-0001-46.png,0003-00-0000-32.png
00000014,782,0,1449676549127,1449676549575,401,476,0,0,0,4,3,1,7,0001-00-0000-76.png,0002-00-0001-89.png
00000014,783,0,1449676552692,1449676553085,873,535,0,0,0,0,1,1,1,0005-00-0001-36.png,0004-00-0000-82.png
00000014,784,0,1449676556728,1449676557103,925,436,0,0,0,1,2,1,3,0004-00-0001-31.png,0003-00-0000-43.png
00000014,785,0,1449676560093,1449676560563,952,467,0,0,0,3,4,1,7,0002-00-0000-17.png,0001-00-0000-46.png
00000014,786,0,1449676563974,1449676564390,964,476,0,0,0,2,3,1,5,0003-00-0000-18.png,0002-00-0000-89.png
00000014,787,1,1449676567452,1449676568144,925,429,0,0,0,4,3,1,7,0001-00-0000-08.png,0002-00-0000-64.png
00000014,788,1,1449676569096,1449676569593,390,554,0,0,0,0,1,1,1,0005-00-0001-54.png,0004-00-0001-09.png
00000014,789,1,1449676570727,1449676571361,901,462,0,0,0,2,1,1,3,0003-00-0000-92.png,0004-00-0001-97.png
00000014,790,0,1449676572927,1449676573401,356,461,0,0,0,3,2,1,5,0002-00-0000-88.png,0003-00-0000-70.png
00000014,791,1,1449676576593,1449676577118,951,449,0,0,0,1,0,1,1,0004-00-0001-93.png,0005-00-0001-85.png
00000014,792,1,1449676578155,1449676578576,402,451,0,0,0,1,2,1,3,0004-00-0001-69.png,0003-00-0000-85.png
00000014,793,0,1449676579757,1449676580222,405,445,0,0,0,4,3,1,7,0001-00-0001-87.png,0002-00-0001-95.png
00000014,794,1,1449676585285,1449676585684,923,432,0,0,0,2,1,1,3,0003-00-0000-43.png,0004-00-0001-23.png
00000014,795,0,1449676586673,1449676587605,876,487,0,0,0,1,2,1,3,0004-00-0000-38.png,0003-00-0001-07.png
00000014,796,0,1449676590709,1449676591242,952,466,0,0,0,0,1,1,1,0005-00-0000-28.png,0004-00-0001-96.png
00000014,797,1,1449676594263,1449676594765,971,477,0,0,0,3,2,1,5,0002-00-0001-16.png,0003-00-0001-30.png
00000014,798,0,1449676595745,1449676596816,914,449,0,0,0,2,3,1,5,0003-00-0001-27.png,0002-00-0001-98.png
00000014,799,1,1449676599737,1449676600227,912,529,0,0,0,1,0,1,1,0004-00-0000-31.png,0005-00-0000-43.png
00000014,800,1,1449676601203,1449676601267,504,528,0,0,0,3,4,1,7,0002-00-0000-37.png,0001-00-0000-26.png
00000014,801,1,1449676602663,1449676603122,363,475,0,0,0,1,2,1,3,0004-00-0001-38.png,0003-00-0001-28.png
00000014,802,0,1449676604384,1449676604896,872,483,0,0,0,2,3,1,5,0003-00-0001-40.png,0002-00-0000-51.png
00000014,803,1,1449676607863,1449676608309,389,450,0,0,0,0,1,1,1,0005-00-0000-86.png,0004-00-0001-67.png
00000014,804,0,1449676609466,1449676609856,401,480,0,0,0,3,2,1,5,0002-00-0001-87.png,0003-00-0001-56.png
00000014,805,1,1449676613160,1449676613765,927,495,0,0,0,4,3,1,7,0001-00-0001-70.png,0002-00-0000-70.png
00000014,806,1,1449676614856,1449676615554,896,472,0,0,0,1,0,1,1,0004-00-0001-34.png,0005-00-0001-13.png
00000014,807,1,1449676616712,1449676617171,359,484,0,0,0,3,4,1,7,0002-00-0000-65.png,0001-00-0001-22.png
00000014,808,1,1449676618351,1449676619085,897,477,0,0,0,2,1,1,3,0003-00-0001-61.png,0004-00-0001-42.png
00000014,809,1,1449676620219,1449676621243,861,450,0,0,0,3,2,1,5,0002-00-0000-81.png,0003-00-0001-12.png
00000014,810,1,1449676622454,1449676622911,363,474,0,0,0,0,1,1,1,0005-00-0000-85.png,0004-00-0000-23.png
00000014,811,1,1449676624145,1449676624668,862,501,0,0,0,2,1,1,3,0003-00-0001-97.png,0004-00-0000-38.png
00000014,812,0,1449676625916,1449676625948,514,544,0,0,0,1,0,1,1,0004-00-0001-61.png,0005-00-0000-57.png
00000014,813,0,1449676628883,1449676629404,888,448,0,0,0,2,3,1,5,0003-00-0001-39.png,0002-00-0001-44.png
00000014,814,0,1449676632475,1449676632962,940,462,0,0,0,3,4,1,7,0002-00-0001-28.png,0001-00-0000-64.png
00000014,815,1,1449676635901,1449676636533,357,461,0,0,0,1,2,1,3,0004-00-0000-75.png,0003-00-0000-15.png
00000014,816,0,1449676637644,1449676638092,376,453,0,0,0,4,3,1,7,0001-00-0000-02.png,0002-00-0000-68.png
00000014,817,0,1449676641038,1449676641512,973,445,0,0,0,0,1,1,1,0005-00-0001-70.png,0004-00-0001-35.png
00000014,818,1,1449676645038,1449676645640,373,432,0,0,0,1,2,1,3,0004-00-0000-11.png,0003-00-0000-04.png
00000014,819,0,1449676646838,1449676647664,875,461,0,0,0,3,4,1,7,0002-00-0001-19.png,0001-00-0001-93.png
00000014,820,0,1449676650971,1449676651453,962,436,0,0,0,2,3,1,5,0003-00-0000-41.png,0002-00-0000-54.png
00000014,821,0,1449676654546,1449676655101,363,422,0,0,0,4,3,1,7,0001-00-0000-25.png,0002-00-0000-62.png
00000014,822,1,1449676658600,1449676659020,956,480,0,0,0,1,0,1,1,0004-00-0000-61.png,0005-00-0000-76.png
00000014,823,0,1449676660766,1449676661231,449,445,0,0,0,3,2,1,5,0002-00-0001-30.png,0003-00-0000-23.png
00000014,824,1,1449676664542,1449676665003,886,560,0,0,0,2,1,1,3,0003-00-0000-35.png,0004-00-0001-75.png
00000014,825,1,1449676666410,1449676667137,863,554,0,0,0,3,2,1,5,0002-00-0001-41.png,0003-00-0001-75.png
00000014,826,0,1449676668214,1449676668740,874,476,0,0,0,3,4,1,7,0002-00-0000-61.png,0001-00-0000-03.png
00000014,827,0,1449676671830,1449676672371,952,449,0,0,0,1,2,1,3,0004-00-0000-15.png,0003-00-0001-24.png
00000014,828,0,1449676675944,1449676675972,488,460,0,0,0,4,3,1,7,0001-00-0000-01.png,0002-00-0000-61.png
00000014,829,0,1449676678816,1449676679479,951,449,0,0,0,2,3,1,5,0003-00-0000-64.png,0002-00-0000-07.png
00000014,830,1,1449676682461,1449676682970,922,506,0,0,0,2,1,1,3,0003-00-0000-10.png,0004-00-0000-76.png
00000014,831,1,1449676684492,1449676684968,414,462,0,0,0,0,1,1,1,0005-00-0001-23.png,0004-00-0001-25.png
00000014,832,0,1449676686151,1449676686159,504,488,0,0,0,1,0,1,1,0004-00-0000-88.png,0005-00-0000-78.png
00000014,833,0,1449676689142,1449676689688,369,453,0,0,0,4,3,1,7,0001-00-0000-49.png,0002-00-0000-51.png
00000014,834,0,1449676692802,1449676693243,980,424,0,0,0,2,3,1,5,0003-00-0000-88.png,0002-00-0001-59.png
00000014,835,1,1449676696259,1449676696717,930,402,0,0,0,3,2,1,5,0002-00-0001-48.png,0003-00-0000-55.png
00000014,836,1,1449676697732,1449676698536,897,483,0,0,0,2,1,1,3,0003-00-0000-58.png,0004-00-0000-85.png
00000014,837,0,1449676699549,1449676700072,428,437,0,0,0,1,0,1,1,0004-00-0001-38.png,0005-00-0000-05.png
00000014,838,0,1449676703047,1449676703528,949,458,0,0,0,3,4,1,7,0002-00-0000-66.png,0001-00-0001-75.png
00000014,839,1,1449676706785,1449676707246,415,436,0,0,0,0,1,1,1,0005-00-0000-84.png,0004-00-0000-61.png
00000014,840,1,1449676708287,1449676708767,380,477,0,0,0,1,2,1,3,0004-00-0001-29.png,0003-00-0001-53.png
00000014,841,1,1449676710391,1449676711089,901,450,0,0,0,3,2,1,5,0002-00-0001-48.png,0003-00-0001-60.png
00000014,842,0,1449676712153,1449676713185,898,457,0,0,0,3,4,1,7,0002-00-0001-60.png,0001-00-0001-45.png
00000014,843,0,1449676716167,1449676716618,952,476,0,0,0,2,3,1,5,0003-00-0000-77.png,0002-00-0001-08.png
00000014,844,1,1449676719764,1449676720368,966,472,0,0,0,4,3,1,7,0001-00-0000-82.png,0002-00-0000-32.png
00000014,845,1,1449676721403,1449676722186,898,483,0,0,0,2,1,1,3,0003-00-0001-30.png,0004-00-0000-59.png
00000014,846,0,1449676723422,1449676724035,899,501,0,0,0,1,2,1,3,0004-00-0000-35.png,0003-00-0000-11.png
00000014,847,1,1449676726888,1449676727373,947,446,0,0,0,1,0,1,1,0004-00-0000-65.png,0005-00-0000-94.png
00000014,848,1,1449676728413,1449676728864,350,476,0,0,0,0,1,1,1,0005-00-0000-62.png,0004-00-0001-47.png
00000014,849,1,1449676730058,1449676730675,861,502,0,0,0,1,0,1,1,0004-00-0001-81.png,0005-00-0001-77.png
00000014,850,1,1449676731828,1449676732548,899,482,0,0,0,3,2,1,5,0002-00-0001-45.png,0003-00-0001-31.png
00000014,851,1,1449676733689,1449676734237,868,494,0,0,0,2,1,1,3,0003-00-0001-15.png,0004-00-0001-20.png
00000014,852,1,1449676735499,1449676735886,375,480,0,0,0,1,2,1,3,0004-00-0000-59.png,0003-00-0000-52.png
00000014,853,1,1449676737076,1449676737514,340,468,0,0,0,0,1,1,1,0005-00-0000-49.png,0004-00-0001-64.png
00000014,854,1,1449676738729,1449676739893,344,447,0,0,0,2,3,1,5,0003-00-0000-50.png,0002-00-0001-88.png
00000014,855,0,1449676741419,1449676742027,899,475,0,0,0,3,4,1,7,0002-00-0001-37.png,0001-00-0000-33.png
00000014,856,0,1449676745348,1449676745853,369,476,0,0,0,4,3,1,7,0001-00-0000-27.png,0002-00-0000-18.png
00000014,857,0,1449676753402,1449676753774,973,445,0,0,0,3,4,1,7,0002-00-0001-01.png,0001-00-0001-52.png
00000014,858,1,1449676756628,1449676757021,954,442,0,0,0,2,1,1,3,0003-00-0001-24.png,0004-00-0000-93.png
00000014,859,0,1449676757918,1449676758475,875,476,0,0,0,2,3,1,5,0003-00-0000-14.png,0002-00-0000-97.png
00000014,860,1,1449676761337,1449676761762,947,455,0,0,0,3,2,1,5,0002-00-0000-28.png,0003-00-0000-11.png
00000014,861,1,1449676762661,1449676763123,423,471,0,0,0,1,2,1,3,0004-00-0001-97.png,0003-00-0000-67.png
00000014,862,1,1449676764203,1449676764756,904,480,0,0,0,1,0,1,1,0004-00-0000-99.png,0005-00-0000-82.png
00000014,863,1,1449676765713,1449676766158,366,465,0,0,0,0,1,1,1,0005-00-0000-59.png,0004-00-0001-52.png
00000014,864,0,1449676767153,1449676767209,492,539,0,0,0,4,3,1,7,0001-00-0000-46.png,0002-00-0000-23.png
00000014,865,1,1449676771866,1449676772482,859,472,0,0,0,4,3,1,7,0001-00-0001-37.png,0002-00-0001-36.png
00000014,866,0,1449676774237,1449676774682,878,520,0,0,0,2,3,1,5,0003-00-0001-57.png,0002-00-0001-50.png
00000014,867,0,1449676777638,1449676778116,924,457,0,0,0,0,1,1,1,0005-00-0000-28.png,0004-00-0000-65.png
00000014,868,1,1449676781227,1449676781693,975,430,0,0,0,3,2,1,5,0002-00-0000-99.png,0003-00-0001-63.png
00000014,869,1,1449676782636,1449676783121,344,473,0,0,0,1,2,1,3,0004-00-0000-10.png,0003-00-0001-76.png
00000014,870,0,1449676784238,1449676784630,427,476,0,0,0,1,0,1,1,0004-00-0000-15.png,0005-00-0000-04.png
00000014,871,0,1449676787815,1449676788243,975,456,0,0,0,3,4,1,7,0002-00-0000-41.png,0001-00-0001-58.png
00000014,872,1,1449676792641,1449676793093,950,457,0,0,0,2,1,1,3,0003-00-0001-06.png,0004-00-0000-00.png
00000014,873,0,1449676794026,1449676794558,390,509,0,0,0,1,0,1,1,0004-00-0000-88.png,0005-00-0000-78.png
00000014,874,0,1449676805014,1449676805407,965,423,0,0,0,2,3,1,5,0003-00-0001-90.png,0002-00-0000-56.png
00000014,875,0,1449676808412,1449676809044,926,424,0,0,0,3,4,1,7,0002-00-0001-64.png,0001-00-0000-55.png
00000014,876,0,1449676812028,1449676812463,977,449,0,0,0,1,2,1,3,0004-00-0001-18.png,0003-00-0001-88.png
00000014,877,1,1449676815389,1449676815814,991,423,0,0,0,3,2,1,5,0002-00-0000-61.png,0003-00-0000-07.png
00000014,878,1,1449676816701,1449676817126,365,429,0,0,0,0,1,1,1,0005-00-0000-27.png,0004-00-0000-31.png
00000014,879,0,1449676818619,1449676819106,371,473,0,0,0,4,3,1,7,0001-00-0001-80.png,0002-00-0001-25.png
00000014,880,1,1449676822195,1449676822661,958,421,0,0,0,2,1,1,3,0003-00-0000-95.png,0004-00-0001-39.png
00000014,881,0,1449676823627,1449676824292,897,470,0,0,0,2,3,1,5,0003-00-0000-05.png,0002-00-0001-77.png
00000014,882,1,1449676827706,1449676828177,944,399,0,0,0,3,2,1,5,0002-00-0000-75.png,0003-00-0001-11.png
00000014,883,0,1449676829194,1449676829639,345,461,0,0,0,4,3,1,7,0001-00-0000-06.png,0002-00-0001-32.png
00000014,884,1,1449676832683,1449676833177,949,485,0,0,0,1,0,1,1,0004-00-0000-18.png,0005-00-0001-99.png
00000014,885,0,1449676834203,1449676834798,915,462,0,0,0,1,2,1,3,0004-00-0001-54.png,0003-00-0000-39.png
00000014,886,1,1449676837751,1449676838213,982,425,0,0,0,2,1,1,3,0003-00-0000-83.png,0004-00-0001-04.png
00000014,887,1,1449676839166,1449676839607,314,442,0,0,0,0,1,1,1,0005-00-0001-31.png,0004-00-0001-45.png
00000014,888,1,1449676840751,1449676840779,511,525,0,0,0,3,4,1,7,0002-00-0001-63.png,0001-00-0001-13.png
00000014,889,1,1449676842029,1449676842477,357,479,0,0,0,0,1,1,1,0005-00-0001-57.png,0004-00-0000-68.png
00000014,890,1,1449676843931,1449676844975,478,410,0,0,0,2,3,1,5,0003-00-0001-90.png,0002-00-0001-63.png
00000014,891,0,1449676845992,1449676846435,369,479,0,0,0,3,2,1,5,0002-00-0000-02.png,0003-00-0001-64.png
00000014,892,1,1449676849508,1449676849984,951,463,0,0,0,4,3,1,7,0001-00-0001-60.png,0002-00-0001-79.png
00000014,893,1,1449676850912,1449676851462,875,488,0,0,0,1,0,1,1,0004-00-0001-18.png,0005-00-0000-73.png
00000014,894,1,1449676852531,1449676852930,414,455,0,0,0,1,2,1,3,0004-00-0000-05.png,0003-00-0001-97.png
00000014,895,1,1449676853992,1449676854598,862,480,0,0,0,2,1,1,3,0003-00-0001-61.png,0004-00-0000-52.png
00000014,896,0,1449676855742,1449676856316,875,476,0,0,0,3,4,1,7,0002-00-0000-04.png,0001-00-0000-31.png
00000014,897,0,1449676859271,1449676859771,945,454,0,0,0,1,2,1,3,0004-00-0000-22.png,0003-00-0000-47.png
00000014,898,1,1449676862787,1449676863777,951,527,0,0,0,1,0,1,1,0004-00-0000-42.png,0005-00-0000-25.png
00000014,899,0,1449676864675,1449676865087,427,462,0,0,0,4,3,1,7,0001-00-0000-37.png,0002-00-0000-99.png
00000014,900,1,1449676870428,1449676870920,369,385,0,0,0,0,1,1,1,0005-00-0001-19.png,0004-00-0001-02.png
00000014,901,0,1449676872059,1449676872600,899,457,0,0,0,2,3,1,5,0003-00-0000-72.png,0002-00-0000-99.png
00000014,902,0,1449676875518,1449676875965,982,402,0,0,0,3,4,1,7,0002-00-0001-23.png,0001-00-0000-16.png
00000014,903,0,1449676879247,1449676879271,443,488,0,0,0,3,2,1,5,0002-00-0000-81.png,0003-00-0001-57.png
00000014,904,1,1449676882226,1449676882645,901,396,0,0,0,2,1,1,3,0003-00-0000-86.png,0004-00-0000-87.png
00000014,905,0,1449676883556,1449676884655,921,415,0,0,0,3,4,1,7,0002-00-0000-63.png,0001-00-0001-34.png
00000014,906,0,1449676889649,1449676890274,931,452,0,0,0,2,3,1,5,0003-00-0001-47.png,0002-00-0000-71.png
00000014,907,1,1449676893905,1449676894371,969,477,0,0,0,1,0,1,1,0004-00-0001-67.png,0005-00-0001-98.png
00000014,908,1,1449676895814,1449676896285,383,446,0,0,0,1,2,1,3,0004-00-0001-65.png,0003-00-0000-98.png
00000014,909,0,1449676897382,1449676897805,356,462,0,0,0,4,3,1,7,0001-00-0000-31.png,0002-00-0000-17.png
00000014,910,1,1449676900771,1449676900819,523,521,0,0,0,0,1,1,1,0005-00-0001-33.png,0004-00-0000-05.png
00000014,911,1,1449676901774,1449676902332,873,509,0,0,0,2,1,1,3,0003-00-0001-60.png,0004-00-0001-61.png
00000014,912,1,1449676903385,1449676903956,880,490,0,0,0,3,2,1,5,0002-00-0001-27.png,0003-00-0000-49.png
00000014,913,1,1449676905027,1449676905450,433,491,0,0,0,0,1,1,1,0005-00-0000-71.png,0004-00-0000-18.png
00000014,914,0,1449676906511,1449676907498,898,459,0,0,0,3,4,1,7,0002-00-0001-06.png,0001-00-0000-58.png
00000014,915,0,1449676910404,1449676910857,950,465,0,0,0,2,3,1,5,0003-00-0000-60.png,0002-00-0001-53.png
00000014,916,1,1449676914539,1449676915067,964,462,0,0,0,4,3,1,7,0001-00-0000-04.png,0002-00-0000-75.png
00000014,917,0,1449676916151,1449676916622,358,471,0,0,0,1,0,1,1,0004-00-0001-19.png,0005-00-0001-40.png
00000014,918,1,1449676919467,1449676919972,926,437,0,0,0,3,2,1,5,0002-00-0001-45.png,0003-00-0000-75.png
00000014,919,0,1449676920982,1449676921555,900,489,0,0,0,1,2,1,3,0004-00-0001-61.png,0003-00-0000-41.png
00000014,920,1,1449676925016,1449676925499,974,469,0,0,0,2,1,1,3,0003-00-0000-99.png,0004-00-0001-31.png
00000014,921,1,1449676926506,1449676926959,359,497,0,0,0,0,1,1,1,0005-00-0000-09.png,0004-00-0001-79.png
00000014,922,1,1449676928097,1449676928812,862,475,0,0,0,4,3,1,7,0001-00-0000-75.png,0002-00-0000-77.png
00000014,923,0,1449676929816,1449676930507,861,477,0,0,0,2,3,1,5,0003-00-0000-05.png,0002-00-0000-90.png
00000014,924,0,1449676933461,1449676933905,959,422,0,0,0,1,2,1,3,0004-00-0000-88.png,0003-00-0001-29.png
00000014,925,1,1449676937131,1449676937625,977,437,0,0,0,1,0,1,1,0004-00-0000-53.png,0005-00-0001-32.png
00000014,926,1,1449676938701,1449676939236,888,476,0,0,0,3,2,1,5,0002-00-0000-80.png,0003-00-0001-27.png
00000014,927,1,1449676940304,1449676940885,873,483,0,0,0,2,1,1,3,0003-00-0001-96.png,0004-00-0000-75.png
00000014,928,0,1449676942051,1449676942620,890,475,0,0,0,3,4,1,7,0002-00-0001-99.png,0001-00-0001-31.png
00000014,929,0,1449676945787,1449676946378,383,419,0,0,0,3,2,1,5,0002-00-0001-31.png,0003-00-0000-05.png
00000014,930,0,1449676949562,1449676950032,964,475,0,0,0,2,3,1,5,0003-00-0001-28.png,0002-00-0000-34.png
00000014,931,0,1449676953220,1449676953743,963,472,0,0,0,3,4,1,7,0002-00-0000-46.png,0001-00-0001-08.png
00000014,932,1,1449676956721,1449676956749,487,469,0,0,0,1,2,1,3,0004-00-0000-50.png,0003-00-0001-97.png
00000014,933,1,1449676957772,1449676958537,918,469,0,0,0,4,3,1,7,0001-00-0001-54.png,0002-00-0000-11.png
00000014,934,1,1449676959633,1449676960072,392,551,0,0,0,0,1,1,1,0005-00-0001-28.png,0004-00-0001-94.png
00000014,935,0,1449676961134,1449676961575,382,490,0,0,0,1,0,1,1,0004-00-0001-37.png,0005-00-0001-26.png
00000014,936,1,1449676964632,1449676965125,902,406,0,0,0,2,1,1,3,0003-00-0001-56.png,0004-00-0001-00.png
00000014,937,1,1449676966102,1449676967221,951,450,0,0,0,3,2,1,5,0002-00-0001-94.png,0003-00-0000-34.png
00000014,938,0,1449676968250,1449676969267,888,474,0,0,0,1,2,1,3,0004-00-0000-35.png,0003-00-0000-17.png
00000014,939,1,1449676972164,1449676972678,925,516,0,0,0,4,3,1,7,0001-00-0001-40.png,0002-00-0000-00.png
00000014,940,0,1449676973798,1449676974398,873,483,0,0,0,3,4,1,7,0002-00-0001-54.png,0001-00-0001-85.png
00000014,941,1,1449676977483,1449676977999,900,528,0,0,0,1,0,1,1,0004-00-0000-13.png,0005-00-0000-72.png
00000014,942,1,1449676979013,1449676980128,453,436,0,0,0,2,3,1,5,0003-00-0001-64.png,0002-00-0000-81.png
00000014,943,1,1449676981151,1449676981604,389,554,0,0,0,0,1,1,1,0005-00-0000-47.png,0004-00-0000-83.png
00000014,944,0,1449676982701,1449676983139,463,483,0,0,0,2,1,1,3,0003-00-0000-79.png,0004-00-0000-62.png
00000014,945,1,1449676986131,1449676986557,974,469,0,0,0,2,1,1,3,0003-00-0000-70.png,0004-00-0001-28.png
00000014,946,1,1449676987480,1449676987928,350,462,0,0,0,0,1,1,1,0005-00-0000-83.png,0004-00-0000-83.png
00000014,947,0,1449676988923,1449676989509,880,506,0,0,0,2,3,1,5,0003-00-0000-41.png,0002-00-0001-45.png
00000014,948,1,1449676992790,1449676993249,908,552,0,0,0,3,2,1,5,0002-00-0000-99.png,0003-00-0000-84.png
00000014,949,0,1449676994213,1449676994803,875,488,0,0,0,3,4,1,7,0002-00-0000-64.png,0001-00-0001-28.png
00000014,950,0,1449676997937,1449676998450,952,451,0,0,0,1,2,1,3,0004-00-0001-85.png,0003-00-0000-13.png
00000014,951,1,1449677001566,1449677002028,939,475,0,0,0,4,3,1,7,0001-00-0001-39.png,0002-00-0000-22.png
