subject_id,trial,correct_response,stim_time,response_time,x_coord,y_coord,trial_timeout,timeout_time,interTrial_timeout,left_rank,right_rank,distance,joint_rank,left_image,right_image
00000014,1,1,1449860948238,1449860949086,455,446,0,0,0,1,2,1,3,0004-00-0001-55.png,0003-00-0001-79.png
00000014,2,1,1449860950278,1449860950730,384,459,0,0,0,0,1,1,1,0005-00-0000-03.png,0004-00-0001-53.png
00000014,3,0,1449860951558,1449860952158,957,526,0,0,0,2,3,1,5,0003-00-0001-56.png,0002-00-0000-92.png
00000014,4,1,1449860955568,1449860955985,961,497,0,0,0,4,3,1,7,0001-00-0001-94.png,0002-00-0001-90.png
00000014,5,0,1449860956916,1449860957424,951,436,0,0,0,3,4,1,7,0002-00-0001-23.png,0001-00-0001-26.png
00000014,6,1,1449860960787,1449860961199,955,493,0,0,0,2,1,1,3,0003-00-0000-56.png,0004-00-0000-86.png
00000014,7,1,1449860962097,1449860962578,950,430,0,0,0,1,0,1,1,0004-00-0001-01.png,0005-00-0001-84.png
00000014,8,0,1449860963439,1449860963918,396,557,0,0,0,3,2,1,5,0002-00-0000-67.png,0003-00-0000-12.png
00000014,9,1,1449860966958,1449860967390,900,371,0,0,0,1,0,1,1,0004-00-0000-65.png,0005-00-0000-92.png
00000014,10,1,1449860968348,1449860968863,937,447,0,0,0,4,3,1,7,0001-00-0000-67.png,0002-00-0000-22.png
00000014,11,1,1449860969741,1449860970323,912,528,0,0,0,3,2,1,5,0002-00-0000-18.png,0003-00-0000-55.png
00000014,12,0,1449860971211,1449860971736,943,443,0,0,0,3,4,1,7,0002-00-0000-42.png,0001-00-0001-25.png
00000014,13,0,1449860974650,1449860975064,901,451,0,0,0,1,2,1,3,0004-00-0001-66.png,0003-00-0001-68.png
00000014,14,1,1449860977999,1449860978373,1003,449,0,0,0,2,1,1,3,0003-00-0001-03.png,0004-00-0000-11.png
00000014,15,0,1449860979240,1449860979817,886,535,0,0,0,2,3,1,5,0003-00-0001-73.png,0002-00-0000-03.png
00000014,16,0,1449860982838,1449860983216,924,491,0,0,0,0,1,1,1,0005-00-0000-15.png,0004-00-0001-78.png
00000014,17,0,1449860987680,1449860987773,481,534,0,0,0,2,1,1,3,0003-00-0001-50.png,0004-00-0001-03.png
00000014,18,1,1449860990752,1449860990780,520,333,0,0,0,1,2,1,3,0004-00-0001-42.png,0003-00-0001-83.png
00000014,19,1,1449860991686,1449860992297,874,528,0,0,0,1,0,1,1,0004-00-0001-55.png,0005-00-0001-54.png
00000014,20,0,1449860993922,1449860994300,907,553,0,0,0,3,4,1,7,0002-00-0001-37.png,0001-00-0000-88.png
00000014,21,1,1449860997611,1449860998022,902,494,0,0,0,3,2,1,5,0002-00-0001-03.png,0003-00-0001-08.png
00000014,22,1,1449860998908,1449860999356,392,537,0,0,0,0,1,1,1,0005-00-0000-20.png,0004-00-0001-09.png
00000014,23,0,1449861000231,1449861000692,386,471,0,0,0,4,3,1,7,0001-00-0000-06.png,0002-00-0001-92.png
00000014,24,0,1449861003671,1449861004103,935,522,0,0,0,2,3,1,5,0003-00-0000-94.png,0002-00-0000-01.png
00000014,25,0,1449861006969,1449861007391,924,483,0,0,0,0,1,1,1,0005-00-0000-22.png,0004-00-0001-79.png
00000014,26,1,1449861017251,1449861017665,975,408,0,0,0,2,1,1,3,0003-00-0001-03.png,0004-00-0000-48.png
00000014,27,1,1449861018667,1449861019293,945,455,0,0,0,4,3,1,7,0001-00-0001-19.png,0002-00-0001-49.png
00000014,28,1,1449861020208,1449861020755,876,547,0,0,0,3,2,1,5,0002-00-0000-35.png,0003-00-0001-92.png
00000014,29,1,1449861021641,1449861021690,511,456,0,0,0,2,3,1,5,0003-00-0000-89.png,0002-00-0001-36.png
00000014,30,0,1449861022865,1449861023413,901,462,0,0,0,1,2,1,3,0004-00-0000-13.png,0003-00-0001-01.png
00000014,31,1,1449861027577,1449861027970,1004,410,0,0,0,1,0,1,1,0004-00-0001-60.png,0005-00-0000-17.png
00000014,32,0,1449861028958,1449861029540,947,472,0,0,0,3,4,1,7,0002-00-0001-98.png,0001-00-0001-16.png
00000014,33,1,1449861032642,1449861033098,877,413,0,0,0,1,0,1,1,0004-00-0001-47.png,0005-00-0001-11.png
00000014,34,0,1449861034214,1449861034668,427,448,0,0,0,3,2,1,5,0002-00-0000-33.png,0003-00-0000-37.png
00000014,35,0,1449861039542,1449861039970,952,514,0,0,0,2,3,1,5,0003-00-0000-03.png,0002-00-0000-32.png
00000014,36,1,1449861043707,1449861044149,925,507,0,0,0,2,1,1,3,0003-00-0000-23.png,0004-00-0001-45.png
00000014,37,1,1449861045139,1449861045590,427,436,0,0,0,1,2,1,3,0004-00-0000-77.png,0003-00-0001-56.png
00000014,38,0,1449861046699,1449861047309,952,435,0,0,0,3,4,1,7,0002-00-0000-00.png,0001-00-0001-22.png
00000014,39,1,1449861050664,1449861051087,946,415,0,0,0,4,3,1,7,0001-00-0000-79.png,0002-00-0000-28.png
00000014,40,1,1449861052064,1449861052516,352,454,0,0,0,0,1,1,1,0005-00-0000-13.png,0004-00-0001-84.png
00000014,41,1,1449861053595,1449861053671,507,515,0,0,0,3,4,1,7,0002-00-0001-29.png,0001-00-0000-91.png
00000014,42,0,1449861054849,1449861055357,924,465,0,0,0,1,2,1,3,0004-00-0000-49.png,0003-00-0001-88.png
00000014,43,1,1449861058566,1449861059018,905,417,0,0,0,2,1,1,3,0003-00-0000-18.png,0004-00-0001-61.png
00000014,44,0,1449861059976,1449861060511,901,460,0,0,0,2,3,1,5,0003-00-0001-91.png,0002-00-0000-09.png
00000014,45,1,1449861063504,1449861063879,974,405,0,0,0,4,3,1,7,0001-00-0000-78.png,0002-00-0001-85.png
00000014,46,1,1449861064837,1449861065414,901,442,0,0,0,3,2,1,5,0002-00-0000-16.png,0003-00-0001-24.png
00000014,47,0,1449861066413,1449861066949,392,478,0,0,0,1,0,1,1,0004-00-0001-24.png,0005-00-0000-33.png
00000014,48,0,1449861070085,1449861070489,973,413,0,0,0,0,1,1,1,0005-00-0001-68.png,0004-00-0001-65.png
00000014,49,0,1449861073494,1449861073921,928,491,0,0,0,2,3,1,5,0003-00-0001-21.png,0002-00-0001-92.png
00000014,50,1,1449861076800,1449861077184,950,378,0,0,0,2,1,1,3,0003-00-0000-30.png,0004-00-0001-25.png
00000014,51,0,1449861078134,1449861078674,879,558,0,0,0,3,4,1,7,0002-00-0001-61.png,0001-00-0001-31.png
00000014,52,1,1449861081671,1449861082120,920,490,0,0,0,3,2,1,5,0002-00-0000-26.png,0003-00-0000-30.png
00000014,53,1,1449861083073,1449861083608,902,468,0,0,0,1,0,1,1,0004-00-0001-63.png,0005-00-0001-28.png
00000014,54,1,1449861084652,1449861085094,401,527,0,0,0,0,1,1,1,0005-00-0000-38.png,0004-00-0001-23.png
00000014,55,1,1449861086193,1449861086769,887,425,0,0,0,4,3,1,7,0001-00-0000-38.png,0002-00-0000-83.png
00000014,56,1,1449861088277,1449861088808,350,383,0,0,0,1,2,1,3,0004-00-0001-40.png,0003-00-0000-81.png
00000014,57,0,1449861089819,1449861090386,900,436,0,0,0,1,2,1,3,0004-00-0001-97.png,0003-00-0001-64.png
00000014,58,1,1449861093528,1449861093955,954,414,0,0,0,4,3,1,7,0001-00-0001-81.png,0002-00-0000-36.png
00000014,59,0,1449861094950,1449861095468,913,410,0,0,0,2,3,1,5,0003-00-0000-63.png,0002-00-0001-27.png
00000014,60,0,1449861098607,1449861099036,954,437,0,0,0,0,1,1,1,0005-00-0000-28.png,0004-00-0001-69.png
00000014,61,1,1449861101918,1449861102374,975,406,0,0,0,2,1,1,3,0003-00-0001-76.png,0004-00-0001-87.png
00000014,62,1,1449861103319,1449861103335,478,426,0,0,0,3,4,1,7,0002-00-0000-90.png,0001-00-0001-95.png
00000014,63,1,1449861104583,1449861105141,900,463,0,0,0,1,0,1,1,0004-00-0001-63.png,0005-00-0000-00.png
00000014,64,0,1449861106218,1449861106806,366,431,0,0,0,3,2,1,5,0002-00-0001-08.png,0003-00-0001-14.png
00000014,65,0,1449861109820,1449861110385,427,425,0,0,0,4,3,1,7,0001-00-0001-07.png,0002-00-0001-51.png
00000014,66,1,1449861113893,1449861114384,900,513,0,0,0,3,2,1,5,0002-00-0000-21.png,0003-00-0001-95.png
00000014,67,0,1449861115385,1449861115948,875,462,0,0,0,2,3,1,5,0003-00-0000-21.png,0002-00-0000-89.png
00000014,68,0,1449861119189,1449861119740,887,550,0,0,0,3,4,1,7,0002-00-0001-33.png,0001-00-0001-74.png
00000014,69,0,1449861122908,1449861123373,921,498,0,0,0,1,2,1,3,0004-00-0001-37.png,0003-00-0001-38.png
00000014,70,1,1449861126366,1449861126842,926,502,0,0,0,1,0,1,1,0004-00-0001-08.png,0005-00-0000-52.png
00000014,71,1,1449861127797,1449861128397,413,555,0,0,0,0,1,1,1,0005-00-0001-74.png,0004-00-0001-35.png
00000014,72,1,1449861129356,1449861129900,881,445,0,0,0,2,1,1,3,0003-00-0001-76.png,0004-00-0001-60.png
00000014,73,0,1449861130887,1449861131557,882,514,0,0,0,3,4,1,7,0002-00-0001-53.png,0001-00-0000-76.png
00000014,74,1,1449861138452,1449861138903,986,395,0,0,0,2,1,1,3,0003-00-0000-32.png,0004-00-0000-98.png
00000014,75,1,1449861139784,1449861140380,912,450,0,0,0,4,3,1,7,0001-00-0001-33.png,0002-00-0000-93.png
00000014,76,0,1449861141365,1449861141961,901,474,0,0,0,1,2,1,3,0004-00-0001-46.png,0003-00-0000-91.png
00000014,77,1,1449861145162,1449861145615,947,497,0,0,0,1,0,1,1,0004-00-0000-06.png,0005-00-0001-48.png
00000014,78,0,1449861146574,1449861147130,901,461,0,0,0,0,1,1,1,0005-00-0001-62.png,0004-00-0000-46.png
00000014,79,1,1449861150084,1449861150506,977,409,0,0,0,3,2,1,5,0002-00-0000-52.png,0003-00-0001-77.png
00000014,80,0,1449861151471,1449861152029,898,456,0,0,0,2,3,1,5,0003-00-0001-34.png,0002-00-0000-79.png
00000014,81,0,1449861155192,1449861155644,931,501,0,0,0,0,1,1,1,0005-00-0001-66.png,0004-00-0000-23.png
00000014,82,0,1449861158639,1449861159102,979,413,0,0,0,3,4,1,7,0002-00-0000-77.png,0001-00-0000-71.png
00000014,83,1,1449861162225,1449861162664,978,437,0,0,0,4,3,1,7,0001-00-0001-15.png,0002-00-0000-07.png
00000014,84,1,1449861163600,1449861164173,905,427,0,0,0,1,0,1,1,0004-00-0001-73.png,0005-00-0001-48.png
00000014,85,0,1449861165208,1449861165753,875,437,0,0,0,2,3,1,5,0003-00-0001-20.png,0002-00-0001-17.png
00000014,86,0,1449861168915,1449861169390,924,488,0,0,0,1,2,1,3,0004-00-0001-26.png,0003-00-0001-00.png
00000014,87,1,1449861172225,1449861172601,978,383,0,0,0,2,1,1,3,0003-00-0000-37.png,0004-00-0001-75.png
00000014,88,1,1449861173554,1449861174082,912,445,0,0,0,3,2,1,5,0002-00-0000-83.png,0003-00-0000-34.png
00000014,89,1,1449861175175,1449861175724,884,446,0,0,0,3,2,1,5,0002-00-0001-54.png,0003-00-0001-45.png
00000014,90,1,1449861176767,1449861177196,411,474,0,0,0,3,4,1,7,0002-00-0001-12.png,0001-00-0001-06.png
00000014,91,1,1449861178333,1449861178913,905,480,0,0,0,2,1,1,3,0003-00-0001-51.png,0004-00-0000-91.png
00000014,92,0,1449861180007,1449861180412,358,472,0,0,0,4,3,1,7,0001-00-0000-68.png,0002-00-0001-71.png
00000014,93,1,1449861184440,1449861184889,963,450,0,0,0,1,0,1,1,0004-00-0000-35.png,0005-00-0001-28.png
00000014,94,1,1449861185838,1449861185858,502,464,0,0,0,1,2,1,3,0004-00-0000-24.png,0003-00-0001-64.png
00000014,95,0,1449861187023,1449861187531,888,437,0,0,0,2,3,1,5,0003-00-0001-29.png,0002-00-0001-57.png
00000014,96,1,1449861190883,1449861191422,397,396,0,0,0,0,1,1,1,0005-00-0001-92.png,0004-00-0000-58.png
00000014,97,1,1449861192537,1449861193098,900,449,0,0,0,4,3,1,7,0001-00-0001-50.png,0002-00-0001-11.png
00000014,98,1,1449861194150,1449861194754,904,462,0,0,0,1,0,1,1,0004-00-0000-08.png,0005-00-0000-84.png
00000014,99,0,1449861195849,1449861196430,927,460,0,0,0,3,4,1,7,0002-00-0001-19.png,0001-00-0000-53.png
00000014,100,1,1449861199507,1449861200071,421,458,0,0,0,0,1,1,1,0005-00-0001-41.png,0004-00-0000-59.png
00000014,101,0,1449861201511,1449861201972,926,462,0,0,0,2,3,1,5,0003-00-0001-08.png,0002-00-0000-12.png
00000014,102,0,1449861204962,1449861205423,988,450,0,0,0,1,2,1,3,0004-00-0001-17.png,0003-00-0001-57.png
00000014,103,1,1449861208522,1449861208940,953,443,0,0,0,2,1,1,3,0003-00-0000-31.png,0004-00-0001-88.png
00000014,104,1,1449861209904,1449861210433,882,468,0,0,0,3,2,1,5,0002-00-0001-70.png,0003-00-0000-37.png
00000014,105,1,1449861211483,1449861212122,370,421,0,0,0,0,1,1,1,0005-00-0001-02.png,0004-00-0000-76.png
00000014,106,0,1449861213190,1449861213246,498,469,0,0,0,2,1,1,3,0003-00-0000-35.png,0004-00-0000-95.png
00000014,107,0,1449861216184,1449861216862,878,389,0,0,0,1,2,1,3,0004-00-0000-01.png,0003-00-0001-39.png
00000014,108,1,1449861219861,1449861220326,952,436,0,0,0,3,2,1,5,0002-00-0001-56.png,0003-00-0000-48.png
00000014,109,0,1449861221291,1449861221866,876,487,0,0,0,2,3,1,5,0003-00-0001-63.png,0002-00-0001-55.png
00000014,110,1,1449861224710,1449861225347,876,518,0,0,0,4,3,1,7,0001-00-0001-06.png,0002-00-0001-48.png
00000014,111,1,1449861226341,1449861226899,900,455,0,0,0,1,0,1,1,0004-00-0001-81.png,0005-00-0000-99.png
00000014,112,0,1449861227961,1449861228524,900,464,0,0,0,3,4,1,7,0002-00-0000-63.png,0001-00-0000-63.png
00000014,113,0,1449861234183,1449861234678,926,528,0,0,0,0,1,1,1,0005-00-0000-96.png,0004-00-0000-05.png
00000014,114,1,1449861238784,1449861239245,957,478,0,0,0,3,2,1,5,0002-00-0001-62.png,0003-00-0000-22.png
00000014,115,1,1449861240182,1449861240576,375,565,0,0,0,1,2,1,3,0004-00-0000-65.png,0003-00-0000-74.png
00000014,116,1,1449861241514,1449861241590,504,514,0,0,0,2,3,1,5,0003-00-0000-05.png,0002-00-0001-59.png
00000014,117,1,1449861242636,1449861243299,875,462,0,0,0,4,3,1,7,0001-00-0000-17.png,0002-00-0001-25.png
00000014,118,1,1449861244246,1449861244812,897,457,0,0,0,1,0,1,1,0004-00-0001-76.png,0005-00-0000-61.png
00000014,119,0,1449861245740,1449861246395,876,527,0,0,0,3,4,1,7,0002-00-0000-73.png,0001-00-0000-01.png
00000014,120,1,1449861251764,1449861252181,956,454,0,0,0,2,1,1,3,0003-00-0001-59.png,0004-00-0000-70.png
00000014,121,0,1449861253122,1449861253688,924,466,0,0,0,3,4,1,7,0002-00-0001-43.png,0001-00-0000-91.png
00000014,122,0,1449861257011,1449861257516,371,446,0,0,0,2,1,1,3,0003-00-0000-05.png,0004-00-0000-41.png
00000014,123,1,1449861260397,1449861260830,977,410,0,0,0,1,0,1,1,0004-00-0000-61.png,0005-00-0000-38.png
00000014,124,1,1449861261758,1449861262241,376,449,0,0,0,0,1,1,1,0005-00-0000-24.png,0004-00-0000-06.png
00000014,125,0,1449861263311,1449861263915,899,464,0,0,0,2,3,1,5,0003-00-0000-79.png,0002-00-0000-09.png
00000014,126,0,1449861266799,1449861267244,948,477,0,0,0,1,2,1,3,0004-00-0001-46.png,0003-00-0000-93.png
00000014,127,1,1449861270438,1449861270904,928,544,0,0,0,4,3,1,7,0001-00-0000-57.png,0002-00-0001-67.png
00000014,128,1,1449861271868,1449861272399,898,459,0,0,0,3,2,1,5,0002-00-0001-25.png,0003-00-0000-39.png
00000014,129,0,1449861273449,1449861274015,881,538,0,0,0,0,1,1,1,0005-00-0000-99.png,0004-00-0001-12.png
00000014,130,1,1449861277067,1449861277463,976,456,0,0,0,1,0,1,1,0004-00-0000-04.png,0005-00-0000-84.png
00000014,131,0,1449861278409,1449861278930,898,458,0,0,0,3,4,1,7,0002-00-0001-40.png,0001-00-0001-20.png
00000014,132,1,1449861281967,1449861282442,952,448,0,0,0,4,3,1,7,0001-00-0001-56.png,0002-00-0001-31.png
00000014,133,1,1449861283347,1449861283890,900,476,0,0,0,3,2,1,5,0002-00-0000-41.png,0003-00-0001-71.png
00000014,134,0,1449861285029,1449861285621,891,439,0,0,0,1,2,1,3,0004-00-0000-08.png,0003-00-0001-13.png
00000014,135,1,1449861288495,1449861288948,873,543,0,0,0,2,1,1,3,0003-00-0000-92.png,0004-00-0000-59.png
00000014,136,0,1449861289998,1449861290529,874,475,0,0,0,2,3,1,5,0003-00-0000-54.png,0002-00-0001-11.png
00000014,137,0,1449861293556,1449861294191,491,424,0,0,0,1,0,1,1,0004-00-0001-54.png,0005-00-0001-06.png
00000014,138,1,1449861297453,1449861297473,478,450,0,0,0,2,3,1,5,0003-00-0001-76.png,0002-00-0001-94.png
00000014,139,0,1449861298428,1449861298959,898,456,0,0,0,1,2,1,3,0004-00-0000-28.png,0003-00-0000-31.png
00000014,140,0,1449861303584,1449861304080,911,535,0,0,0,0,1,1,1,0005-00-0001-39.png,0004-00-0000-71.png
00000014,141,1,1449861308096,1449861308567,973,439,0,0,0,2,1,1,3,0003-00-0000-47.png,0004-00-0001-77.png
00000014,142,0,1449861309486,1449861309996,894,467,0,0,0,3,4,1,7,0002-00-0000-68.png,0001-00-0000-03.png
00000014,143,1,1449861313534,1449861314002,973,441,0,0,0,3,2,1,5,0002-00-0000-34.png,0003-00-0001-65.png
00000014,144,0,1449861314952,1449861315449,318,473,0,0,0,4,3,1,7,0001-00-0000-03.png,0002-00-0001-11.png
00000014,145,1,1449861318482,1449861318892,923,508,0,0,0,1,0,1,1,0004-00-0001-62.png,0005-00-0001-12.png
00000014,146,0,1449861319823,1449861320368,876,488,0,0,0,2,3,1,5,0003-00-0001-10.png,0002-00-0000-25.png
00000014,147,0,1449861323582,1449861324019,926,528,0,0,0,3,4,1,7,0002-00-0001-28.png,0001-00-0000-28.png
00000014,148,1,1449861328398,1449861328858,909,476,0,0,0,4,3,1,7,0001-00-0000-11.png,0002-00-0000-83.png
00000014,149,0,1449861329720,1449861330283,913,450,0,0,0,1,2,1,3,0004-00-0001-07.png,0003-00-0000-85.png
00000014,150,1,1449861334739,1449861335151,881,458,0,0,0,3,2,1,5,0002-00-0001-36.png,0003-00-0001-18.png
00000014,151,0,1449861335979,1449861336606,401,488,0,0,0,2,1,1,3,0003-00-0000-04.png,0004-00-0001-14.png
00000014,152,0,1449861342153,1449861342535,981,470,0,0,0,0,1,1,1,0005-00-0001-85.png,0004-00-0000-39.png
00000014,153,1,1449861347532,1449861347982,935,491,0,0,0,4,3,1,7,0001-00-0001-72.png,0002-00-0001-17.png
00000014,154,0,1449861348842,1449861349447,898,458,0,0,0,2,3,1,5,0003-00-0001-55.png,0002-00-0001-83.png
00000014,155,0,1449861353794,1449861354272,952,449,0,0,0,0,1,1,1,0005-00-0001-59.png,0004-00-0000-14.png
00000014,156,0,1449861357389,1449861358262,467,494,0,0,0,2,1,1,3,0003-00-0000-21.png,0004-00-0000-74.png
00000014,157,0,1449861361565,1449861362002,939,528,0,0,0,1,2,1,3,0004-00-0001-71.png,0003-00-0001-71.png
00000014,158,1,1449861365924,1449861366340,930,521,0,0,0,1,0,1,1,0004-00-0001-95.png,0005-00-0000-13.png
00000014,159,0,1449861367206,1449861368069,873,516,0,0,0,3,4,1,7,0002-00-0000-22.png,0001-00-0001-49.png
00000014,160,1,1449861371283,1449861371727,975,484,0,0,0,3,2,1,5,0002-00-0001-09.png,0003-00-0001-63.png
00000014,161,1,1449861372614,1449861373109,342,454,0,0,0,1,2,1,3,0004-00-0001-82.png,0003-00-0001-19.png
00000014,162,0,1449861374134,1449861374718,886,469,0,0,0,2,3,1,5,0003-00-0001-12.png,0002-00-0000-64.png
00000014,163,0,1449861378197,1449861378629,977,437,0,0,0,3,4,1,7,0002-00-0001-80.png,0001-00-0001-25.png
00000014,164,1,1449861381669,1449861382083,901,384,0,0,0,4,3,1,7,0001-00-0000-39.png,0002-00-0001-94.png
00000014,165,1,1449861382951,1449861383575,901,436,0,0,0,2,1,1,3,0003-00-0000-08.png,0004-00-0001-55.png
00000014,166,1,1449861384682,1449861385343,925,475,0,0,0,1,0,1,1,0004-00-0001-01.png,0005-00-0000-57.png
00000014,167,1,1449861386279,1449861386820,874,488,0,0,0,3,2,1,5,0002-00-0000-30.png,0003-00-0000-91.png
00000014,168,1,1449861387791,1449861388211,362,462,0,0,0,0,1,1,1,0005-00-0001-25.png,0004-00-0000-42.png
00000014,169,0,1449861389121,1449861389656,876,462,0,0,0,3,4,1,7,0002-00-0001-50.png,0001-00-0001-48.png
00000014,170,0,1449861394914,1449861395927,401,397,0,0,0,4,3,1,7,0001-00-0000-23.png,0002-00-0001-30.png
00000014,171,0,1449861400649,1449861401067,952,462,0,0,0,1,2,1,3,0004-00-0001-67.png,0003-00-0000-46.png
00000014,172,1,1449861403978,1449861404464,924,486,0,0,0,2,1,1,3,0003-00-0000-00.png,0004-00-0001-96.png
00000014,173,0,1449861405361,1449861405883,908,474,0,0,0,2,3,1,5,0003-00-0000-62.png,0002-00-0000-48.png
00000014,174,1,1449861409485,1449861409889,926,528,0,0,0,3,2,1,5,0002-00-0001-30.png,0003-00-0000-51.png
00000014,175,1,1449861410797,1449861411283,427,488,0,0,0,0,1,1,1,0005-00-0000-30.png,0004-00-0000-37.png
00000014,176,0,1449861412396,1449861412822,317,445,0,0,0,1,0,1,1,0004-00-0000-46.png,0005-00-0001-13.png
00000014,177,0,1449861416731,1449861416743,493,474,0,0,0,2,1,1,3,0003-00-0000-82.png,0004-00-0001-11.png
00000014,178,1,1449861420411,1449861420833,939,476,0,0,0,3,2,1,5,0002-00-0001-37.png,0003-00-0001-25.png
00000014,179,0,1449861421751,1449861422565,913,448,0,0,0,3,4,1,7,0002-00-0000-53.png,0001-00-0001-18.png
00000014,180,0,1449861426022,1449861426030,521,427,0,0,0,1,0,1,1,0004-00-0000-32.png,0005-00-0001-01.png
00000014,181,0,1449861429350,1449861429804,898,436,0,0,0,1,2,1,3,0004-00-0000-34.png,0003-00-0001-18.png
00000014,182,1,1449861432702,1449861433163,926,423,0,0,0,4,3,1,7,0001-00-0001-21.png,0002-00-0001-91.png
00000014,183,1,1449861434143,1449861434563,368,470,0,0,0,0,1,1,1,0005-00-0000-80.png,0004-00-0000-95.png
00000014,184,0,1449861435643,1449861436205,885,474,0,0,0,2,3,1,5,0003-00-0001-54.png,0002-00-0000-52.png
00000014,185,0,1449861439031,1449861439473,979,463,0,0,0,1,2,1,3,0004-00-0001-65.png,0003-00-0001-73.png
00000014,186,1,1449861442999,1449861443391,985,413,0,0,0,1,0,1,1,0004-00-0001-71.png,0005-00-0001-41.png
00000014,187,1,1449861444637,1449861445100,914,475,0,0,0,3,2,1,5,0002-00-0001-28.png,0003-00-0000-53.png
00000014,188,0,1449861446009,1449861446097,509,555,0,0,0,2,1,1,3,0003-00-0001-99.png,0004-00-0001-99.png
00000014,189,1,1449861450949,1449861451483,417,403,0,0,0,0,1,1,1,0005-00-0000-47.png,0004-00-0000-67.png
00000014,190,0,1449861452350,1449861452889,880,428,0,0,0,3,4,1,7,0002-00-0000-04.png,0001-00-0001-86.png
00000014,191,1,1449861458035,1449861458504,926,487,0,0,0,4,3,1,7,0001-00-0001-76.png,0002-00-0000-80.png
00000014,192,0,1449861459454,1449861459980,889,450,0,0,0,2,3,1,5,0003-00-0001-60.png,0002-00-0000-55.png
00000014,193,1,1449861464692,1449861465114,957,401,0,0,0,3,2,1,5,0002-00-0001-27.png,0003-00-0000-26.png
00000014,194,1,1449861466023,1449861466560,877,545,0,0,0,2,1,1,3,0003-00-0001-42.png,0004-00-0001-58.png
00000014,195,0,1449861467635,1449861468251,893,416,0,0,0,1,2,1,3,0004-00-0000-15.png,0003-00-0001-02.png
00000014,196,0,1449861471422,1449861471856,930,546,0,0,0,3,4,1,7,0002-00-0001-96.png,0001-00-0000-20.png
00000014,197,0,1449861475298,1449861475703,972,394,0,0,0,2,3,1,5,0003-00-0001-12.png,0002-00-0000-96.png
00000014,198,1,1449861479028,1449861479452,896,443,0,0,0,1,0,1,1,0004-00-0001-47.png,0005-00-0000-48.png
00000014,199,0,1449861480366,1449861480823,401,462,0,0,0,4,3,1,7,0001-00-0001-76.png,0002-00-0000-15.png
00000014,200,1,1449861484321,1449861484870,350,438,0,0,0,0,1,1,1,0005-00-0001-29.png,0004-00-0000-25.png
00000014,201,0,1449861485773,1449861486364,862,449,0,0,0,2,3,1,5,0003-00-0000-75.png,0002-00-0000-47.png
00000014,202,1,1449861489528,1449861490003,990,474,0,0,0,2,1,1,3,0003-00-0000-24.png,0004-00-0001-52.png
00000014,203,0,1449861490889,1449861491555,899,456,0,0,0,0,1,1,1,0005-00-0001-97.png,0004-00-0001-48.png
00000014,204,0,1449861494588,1449861495001,939,502,0,0,0,3,4,1,7,0002-00-0001-03.png,0001-00-0001-18.png
00000014,205,1,1449861497847,1449861498264,954,411,0,0,0,1,0,1,1,0004-00-0001-08.png,0005-00-0000-73.png
00000014,206,0,1449861499180,1449861499708,869,550,0,0,0,1,2,1,3,0004-00-0001-47.png,0003-00-0000-92.png
00000014,207,1,1449861502768,1449861503135,1002,423,0,0,0,3,2,1,5,0002-00-0001-79.png,0003-00-0000-68.png
00000014,208,1,1449861504041,1449861504561,901,461,0,0,0,4,3,1,7,0001-00-0000-39.png,0002-00-0000-85.png
00000014,209,1,1449861505719,1449861506133,415,475,0,0,0,1,2,1,3,0004-00-0001-37.png,0003-00-0000-63.png
00000014,210,0,1449861507222,1449861507693,877,469,0,0,0,3,4,1,7,0002-00-0001-19.png,0001-00-0000-90.png
00000014,211,0,1449861510660,1449861511050,981,467,0,0,0,2,3,1,5,0003-00-0000-91.png,0002-00-0000-58.png
00000014,212,1,1449861514137,1449861514565,946,501,0,0,0,2,1,1,3,0003-00-0000-80.png,0004-00-0000-25.png
00000014,213,1,1449861515489,1449861515902,394,453,0,0,0,0,1,1,1,0005-00-0001-58.png,0004-00-0001-71.png
00000014,214,1,1449861516891,1449861517415,895,446,0,0,0,4,3,1,7,0001-00-0000-17.png,0002-00-0001-85.png
00000014,215,1,1449861518533,1449861519156,887,450,0,0,0,3,2,1,5,0002-00-0000-50.png,0003-00-0000-26.png
00000014,216,1,1449861520341,1449861520832,896,446,0,0,0,1,0,1,1,0004-00-0000-58.png,0005-00-0001-39.png
00000014,217,0,1449861521890,1449861522462,861,528,0,0,0,2,3,1,5,0003-00-0001-74.png,0002-00-0000-46.png
00000014,218,0,1449861526124,1449861526519,864,458,0,0,0,3,4,1,7,0002-00-0000-76.png,0001-00-0001-26.png
00000014,219,1,1449861529820,1449861530209,950,483,0,0,0,1,0,1,1,0004-00-0001-49.png,0005-00-0000-42.png
00000014,220,1,1449861531133,1449861531671,919,483,0,0,0,2,1,1,3,0003-00-0000-19.png,0004-00-0001-20.png
00000014,221,1,1449861532743,1449861533335,898,455,0,0,0,4,3,1,7,0001-00-0001-98.png,0002-00-0000-45.png
00000014,222,0,1449861534442,1449861534964,889,449,0,0,0,0,1,1,1,0005-00-0001-98.png,0004-00-0000-98.png
00000014,223,0,1449861537881,1449861538263,927,424,0,0,0,1,2,1,3,0004-00-0001-59.png,0003-00-0001-75.png
00000014,224,1,1449861541231,1449861541596,975,404,0,0,0,3,2,1,5,0002-00-0001-30.png,0003-00-0001-20.png
00000014,225,0,1449861542532,1449861543045,896,446,0,0,0,2,3,1,5,0003-00-0001-67.png,0002-00-0000-58.png
00000014,226,1,1449861547036,1449861547044,522,449,0,0,0,1,2,1,3,0004-00-0000-59.png,0003-00-0001-97.png
00000014,227,1,1449861547998,1449861548493,901,450,0,0,0,3,2,1,5,0002-00-0001-25.png,0003-00-0001-00.png
00000014,228,1,1449861549559,1449861550103,912,450,0,0,0,4,3,1,7,0001-00-0001-63.png,0002-00-0000-47.png
00000014,229,0,1449861551129,1449861551672,900,462,0,0,0,3,4,1,7,0002-00-0001-75.png,0001-00-0001-72.png
00000014,230,1,1449861554617,1449861555015,977,449,0,0,0,1,0,1,1,0004-00-0001-32.png,0005-00-0000-73.png
00000014,231,1,1449861556040,1449861557006,416,549,0,0,0,0,1,1,1,0005-00-0001-45.png,0004-00-0000-80.png
00000014,232,1,1449861558005,1449861558527,891,464,0,0,0,2,1,1,3,0003-00-0000-85.png,0004-00-0000-44.png
00000014,233,1,1449861559558,1449861560201,878,441,0,0,0,4,3,1,7,0001-00-0001-79.png,0002-00-0000-38.png
00000014,234,0,1449861561227,1449861561745,876,460,0,0,0,1,2,1,3,0004-00-0001-42.png,0003-00-0001-98.png
00000014,235,0,1449861564776,1449861565213,980,442,0,0,0,2,3,1,5,0003-00-0001-31.png,0002-00-0001-69.png
00000014,236,1,1449861568055,1449861568563,952,410,0,0,0,1,0,1,1,0004-00-0000-27.png,0005-00-0001-15.png
00000014,237,1,1449861569474,1449861570214,876,547,0,0,0,3,2,1,5,0002-00-0001-48.png,0003-00-0001-18.png
00000014,238,1,1449861571217,1449861571670,878,443,0,0,0,2,1,1,3,0003-00-0001-18.png,0004-00-0001-79.png
00000014,239,1,1449861572727,1449861573128,389,476,0,0,0,0,1,1,1,0005-00-0001-41.png,0004-00-0000-00.png
00000014,240,0,1449861574199,1449861574722,900,463,0,0,0,3,4,1,7,0002-00-0001-27.png,0001-00-0001-91.png
00000014,241,0,1449861577786,1449861578335,948,488,0,0,0,1,2,1,3,0004-00-0000-56.png,0003-00-0000-22.png
00000014,242,1,1449861581181,1449861581635,989,449,0,0,0,4,3,1,7,0001-00-0001-12.png,0002-00-0001-98.png
00000014,243,1,1449861582576,1449861583153,912,450,0,0,0,3,2,1,5,0002-00-0001-85.png,0003-00-0001-74.png
00000014,244,0,1449861584136,1449861584689,887,450,0,0,0,2,3,1,5,0003-00-0000-69.png,0002-00-0000-17.png
00000014,245,0,1449861587520,1449861587954,973,438,0,0,0,3,4,1,7,0002-00-0000-43.png,0001-00-0000-21.png
00000014,246,1,1449861590972,1449861591422,971,454,0,0,0,1,0,1,1,0004-00-0000-63.png,0005-00-0000-15.png
00000014,247,1,1449861592335,1449861592868,381,480,0,0,0,0,1,1,1,0005-00-0001-08.png,0004-00-0000-66.png
00000014,248,0,1449861593875,1449861593903,504,488,0,0,0,2,1,1,3,0003-00-0000-53.png,0004-00-0001-44.png
00000014,249,1,1449861597594,1449861598224,357,445,0,0,0,3,4,1,7,0002-00-0001-97.png,0001-00-0001-11.png
00000014,250,1,1449861599190,1449861599607,386,560,0,0,0,0,1,1,1,0005-00-0000-80.png,0004-00-0001-15.png
00000014,251,1,1449861600763,1449861601267,901,488,0,0,0,1,0,1,1,0004-00-0000-70.png,0005-00-0001-02.png
00000014,252,0,1449861602295,1449861606465,357,451,0,0,0,3,2,1,5,0002-00-0000-27.png,0003-00-0000-28.png
00000014,253,1,1449861610576,1449861610985,1005,488,0,0,0,4,3,1,7,0001-00-0000-99.png,0002-00-0000-26.png
00000014,254,0,1449861611821,1449861612428,896,498,0,0,0,2,3,1,5,0003-00-0001-76.png,0002-00-0001-57.png
00000014,255,0,1449861615693,1449861616085,927,504,0,0,0,1,2,1,3,0004-00-0001-62.png,0003-00-0000-26.png
00000014,256,1,1449861619330,1449861619698,952,436,0,0,0,2,1,1,3,0003-00-0001-64.png,0004-00-0000-49.png
00000014,257,1,1449861620577,1449861621184,903,441,0,0,0,4,3,1,7,0001-00-0000-86.png,0002-00-0001-96.png
00000014,258,1,1449861622120,1449861622641,875,435,0,0,0,3,2,1,5,0002-00-0001-36.png,0003-00-0000-10.png
00000014,259,0,1449861623732,1449861624391,928,440,0,0,0,3,4,1,7,0002-00-0001-57.png,0001-00-0001-18.png
00000014,260,1,1449861627875,1449861628292,1014,424,0,0,0,2,1,1,3,0003-00-0001-23.png,0004-00-0001-87.png
00000014,261,0,1449861629268,1449861629818,900,464,0,0,0,1,2,1,3,0004-00-0000-96.png,0003-00-0000-94.png
00000014,262,1,1449861633103,1449861633496,876,433,0,0,0,1,0,1,1,0004-00-0001-71.png,0005-00-0000-40.png
00000014,263,1,1449861634373,1449861634820,384,446,0,0,0,0,1,1,1,0005-00-0001-52.png,0004-00-0000-47.png
00000014,264,0,1449861635846,1449861636352,880,480,0,0,0,2,3,1,5,0003-00-0000-08.png,0002-00-0001-16.png
00000014,265,1,1449861639255,1449861639651,1028,436,0,0,0,2,1,1,3,0003-00-0001-79.png,0004-00-0000-77.png
00000014,266,1,1449861640623,1449861641155,895,428,0,0,0,3,2,1,5,0002-00-0001-49.png,0003-00-0001-51.png
00000014,267,0,1449861642189,1449861642769,874,528,0,0,0,1,2,1,3,0004-00-0001-38.png,0003-00-0000-75.png
00000014,268,0,1449861645643,1449861646050,956,402,0,0,0,2,3,1,5,0003-00-0001-23.png,0002-00-0001-53.png
00000014,269,1,1449861648976,1449861649468,440,416,0,0,0,0,1,1,1,0005-00-0000-27.png,0004-00-0000-22.png
00000014,270,1,1449861650356,1449861650927,888,450,0,0,0,4,3,1,7,0001-00-0001-12.png,0002-00-0000-18.png
00000014,271,0,1449861651886,1449861652411,875,475,0,0,0,3,4,1,7,0002-00-0000-35.png,0001-00-0000-02.png
00000014,272,1,1449861655477,1449861655891,986,475,0,0,0,1,0,1,1,0004-00-0000-58.png,0005-00-0000-64.png
00000014,273,1,1449861657505,1449861657935,874,541,0,0,0,4,3,1,7,0001-00-0000-74.png,0002-00-0000-87.png
00000014,274,1,1449861658984,1449861659445,325,447,0,0,0,0,1,1,1,0005-00-0000-39.png,0004-00-0001-29.png
00000014,275,0,1449861660525,1449861661015,894,456,0,0,0,2,3,1,5,0003-00-0001-40.png,0002-00-0001-03.png
00000014,276,1,1449861664789,1449861665193,963,447,0,0,0,1,0,1,1,0004-00-0001-61.png,0005-00-0000-38.png
00000014,277,1,1449861666160,1449861666605,406,565,0,0,0,1,2,1,3,0004-00-0001-94.png,0003-00-0000-68.png
00000014,278,0,1449861667670,1449861668125,376,474,0,0,0,3,2,1,5,0002-00-0000-76.png,0003-00-0001-94.png
00000014,279,1,1449861671140,1449861671584,913,528,0,0,0,2,1,1,3,0003-00-0001-98.png,0004-00-0000-50.png
00000014,280,0,1449861672531,1449861673108,900,462,0,0,0,3,4,1,7,0002-00-0001-65.png,0001-00-0001-24.png
00000014,281,0,1449861676953,1449861677390,965,449,0,0,0,1,2,1,3,0004-00-0001-73.png,0003-00-0000-04.png
00000014,282,0,1449861680300,1449861680664,997,415,0,0,0,0,1,1,1,0005-00-0000-05.png,0004-00-0001-21.png
00000014,283,1,1449861683592,1449861684047,888,358,0,0,0,4,3,1,7,0001-00-0000-76.png,0002-00-0000-73.png
00000014,284,0,1449861684981,1449861685575,895,524,0,0,0,3,4,1,7,0002-00-0000-67.png,0001-00-0000-32.png
00000014,285,1,1449861688789,1449861689178,977,463,0,0,0,2,1,1,3,0003-00-0000-59.png,0004-00-0000-42.png
00000014,286,0,1449861690152,1449861690624,900,463,0,0,0,2,3,1,5,0003-00-0000-26.png,0002-00-0000-50.png
00000014,287,1,1449861693690,1449861694113,899,490,0,0,0,3,2,1,5,0002-00-0001-03.png,0003-00-0001-18.png
00000014,288,1,1449861695028,1449861695563,881,565,0,0,0,1,0,1,1,0004-00-0000-25.png,0005-00-0000-60.png
00000014,289,0,1449861696613,1449861697204,897,433,0,0,0,3,4,1,7,0002-00-0001-87.png,0001-00-0001-24.png
00000014,290,1,1449861700249,1449861700660,963,424,0,0,0,3,2,1,5,0002-00-0000-58.png,0003-00-0000-79.png
00000014,291,0,1449861701682,1449861702251,870,524,0,0,0,2,3,1,5,0003-00-0001-70.png,0002-00-0000-93.png
00000014,292,0,1449861705308,1449861705739,926,508,0,0,0,1,2,1,3,0004-00-0001-00.png,0003-00-0000-92.png
00000014,293,1,1449861708849,1449861709267,939,492,0,0,0,4,3,1,7,0001-00-0000-93.png,0002-00-0001-01.png
00000014,294,1,1449861710190,1449861710686,381,551,0,0,0,0,1,1,1,0005-00-0000-66.png,0004-00-0000-03.png
00000014,295,1,1449861711711,1449861712220,904,453,0,0,0,2,1,1,3,0003-00-0001-31.png,0004-00-0001-46.png
00000014,296,1,1449861713212,1449861713754,923,457,0,0,0,1,0,1,1,0004-00-0000-21.png,0005-00-0000-47.png
00000014,297,1,1449861714791,1449861715187,350,460,0,0,0,1,2,1,3,0004-00-0001-35.png,0003-00-0000-57.png
00000014,298,1,1449861716707,1449861717136,416,457,0,0,0,0,1,1,1,0005-00-0001-25.png,0004-00-0001-41.png
00000014,299,1,1449861718130,1449861718675,868,535,0,0,0,2,1,1,3,0003-00-0001-16.png,0004-00-0000-93.png
00000014,300,0,1449861719711,1449861720170,358,497,0,0,0,4,3,1,7,0001-00-0000-41.png,0002-00-0001-47.png
00000014,301,0,1449861723027,1449861723470,899,435,0,0,0,3,4,1,7,0002-00-0000-92.png,0001-00-0001-39.png
00000014,302,0,1449861726396,1449861726761,964,410,0,0,0,2,3,1,5,0003-00-0001-16.png,0002-00-0001-11.png
00000014,303,1,1449861730236,1449861730648,952,410,0,0,0,1,0,1,1,0004-00-0001-44.png,0005-00-0000-76.png
00000014,304,1,1449861731538,1449861732170,887,450,0,0,0,3,2,1,5,0002-00-0001-32.png,0003-00-0000-98.png
00000014,305,0,1449861733223,1449861733801,874,541,0,0,0,1,2,1,3,0004-00-0000-16.png,0003-00-0000-46.png
00000014,306,0,1449861736841,1449861737308,957,474,0,0,0,3,4,1,7,0002-00-0000-19.png,0001-00-0000-52.png
00000014,307,0,1449861740152,1449861740673,951,410,0,0,0,2,3,1,5,0003-00-0000-80.png,0002-00-0000-73.png
00000014,308,0,1449861743572,1449861743974,960,395,0,0,0,0,1,1,1,0005-00-0001-31.png,0004-00-0001-74.png
00000014,309,1,1449861746864,1449861747368,940,498,0,0,0,1,0,1,1,0004-00-0001-10.png,0005-00-0000-30.png
00000014,310,1,1449861748252,1449861748787,903,467,0,0,0,4,3,1,7,0001-00-0001-30.png,0002-00-0000-89.png
00000014,311,1,1449861749842,1449861750366,922,446,0,0,0,2,1,1,3,0003-00-0001-75.png,0004-00-0001-37.png
00000014,312,0,1449861751376,1449861751870,412,492,0,0,0,3,2,1,5,0002-00-0001-72.png,0003-00-0000-71.png
00000014,313,1,1449861754914,1449861755326,899,501,0,0,0,3,2,1,5,0002-00-0000-67.png,0003-00-0001-90.png
00000014,314,1,1449861756254,1449861756801,875,450,0,0,0,4,3,1,7,0001-00-0001-86.png,0002-00-0000-57.png
00000014,315,1,1449861757847,1449861758271,406,490,0,0,0,0,1,1,1,0005-00-0001-48.png,0004-00-0001-04.png
00000014,316,1,1449861759278,1449861759772,898,458,0,0,0,1,0,1,1,0004-00-0001-51.png,0005-00-0001-48.png
00000014,317,0,1449861760818,1449861761319,898,456,0,0,0,3,4,1,7,0002-00-0001-11.png,0001-00-0001-48.png
00000014,318,1,1449861764217,1449861764773,965,397,0,0,0,2,1,1,3,0003-00-0001-94.png,0004-00-0001-28.png
00000014,319,1,1449861765764,1449861766283,358,471,0,0,0,1,2,1,3,0004-00-0000-13.png,0003-00-0000-28.png
00000014,320,1,1449861767266,1449861767314,504,479,0,0,0,2,3,1,5,0003-00-0001-82.png,0002-00-0001-93.png
00000014,321,1,1449861768460,1449861768975,893,468,0,0,0,2,1,1,3,0003-00-0001-96.png,0004-00-0001-89.png
00000014,322,1,1449861770020,1449861770607,870,524,0,0,0,3,2,1,5,0002-00-0001-85.png,0003-00-0000-29.png
00000014,323,1,1449861771683,1449861772124,333,471,0,0,0,0,1,1,1,0005-00-0000-38.png,0004-00-0001-18.png
00000014,324,0,1449861773161,1449861773582,331,489,0,0,0,4,3,1,7,0001-00-0001-12.png,0002-00-0001-80.png
00000014,325,0,1449861776610,1449861777018,976,411,0,0,0,1,2,1,3,0004-00-0000-46.png,0003-00-0001-46.png
00000014,326,0,1449861780206,1449861780615,977,462,0,0,0,3,4,1,7,0002-00-0001-26.png,0001-00-0001-86.png
00000014,327,0,1449861783538,1449861783972,957,470,0,0,0,2,3,1,5,0003-00-0001-04.png,0002-00-0001-43.png
00000014,328,1,1449861787094,1449861787549,962,474,0,0,0,1,0,1,1,0004-00-0000-53.png,0005-00-0000-28.png
00000014,329,1,1449861788546,1449861789071,877,547,0,0,0,4,3,1,7,0001-00-0001-19.png,0002-00-0001-22.png
00000014,330,1,1449861790045,1449861790568,926,464,0,0,0,2,1,1,3,0003-00-0001-72.png,0004-00-0000-42.png
00000014,331,1,1449861791570,1449861792168,904,474,0,0,0,3,2,1,5,0002-00-0001-16.png,0003-00-0000-51.png
00000014,332,1,1449861793066,1449861793480,414,462,0,0,0,3,4,1,7,0002-00-0000-57.png,0001-00-0000-75.png
00000014,333,1,1449861794517,1449861795089,443,536,0,0,0,0,1,1,1,0005-00-0001-10.png,0004-00-0000-59.png
00000014,334,0,1449861795999,1449861796064,506,542,0,0,0,1,0,1,1,0004-00-0001-79.png,0005-00-0001-51.png
00000014,335,0,1449861802987,1449861803386,924,564,0,0,0,2,3,1,5,0003-00-0000-34.png,0002-00-0001-19.png
00000014,336,0,1449861807142,1449861807585,952,540,0,0,0,1,2,1,3,0004-00-0001-50.png,0003-00-0000-17.png
00000014,337,1,1449861811763,1449861812159,930,427,0,0,0,3,2,1,5,0002-00-0001-59.png,0003-00-0001-32.png
00000014,338,1,1449861813054,1449861814053,952,435,0,0,0,1,0,1,1,0004-00-0001-99.png,0005-00-0001-17.png
00000014,339,1,1449861815032,1449861815511,414,462,0,0,0,0,1,1,1,0005-00-0000-70.png,0004-00-0001-68.png
00000014,340,1,1449861816452,1449861817013,899,491,0,0,0,4,3,1,7,0001-00-0001-23.png,0002-00-0001-78.png
00000014,341,0,1449861817983,1449861818480,879,480,0,0,0,3,4,1,7,0002-00-0001-47.png,0001-00-0001-81.png
00000014,342,1,1449861821651,1449861822035,988,476,0,0,0,2,1,1,3,0003-00-0000-43.png,0004-00-0000-49.png
00000014,343,1,1449861822992,1449861823443,368,480,0,0,0,1,2,1,3,0004-00-0001-78.png,0003-00-0001-00.png
00000014,344,0,1449861824399,1449861824929,869,467,0,0,0,2,3,1,5,0003-00-0000-74.png,0002-00-0000-04.png
00000014,345,0,1449861828520,1449861828904,932,484,0,0,0,0,1,1,1,0005-00-0000-73.png,0004-00-0001-60.png
00000014,346,1,1449861832096,1449861832516,951,490,0,0,0,2,1,1,3,0003-00-0001-47.png,0004-00-0001-08.png
00000014,347,1,1449861833403,1449861833911,356,464,0,0,0,1,2,1,3,0004-00-0001-16.png,0003-00-0000-56.png
00000014,348,0,1449861834917,1449861835430,888,502,0,0,0,3,4,1,7,0002-00-0001-80.png,0001-00-0001-56.png
00000014,349,1,1449861838621,1449861839080,964,447,0,0,0,3,2,1,5,0002-00-0001-57.png,0003-00-0000-63.png
00000014,350,0,1449861840397,1449861840839,869,524,0,0,0,2,3,1,5,0003-00-0000-54.png,0002-00-0000-63.png
00000014,351,1,1449861843704,1449861844147,956,440,0,0,0,4,3,1,7,0001-00-0000-87.png,0002-00-0001-73.png
00000014,352,0,1449861845094,1449861845514,427,437,0,0,0,1,0,1,1,0004-00-0000-15.png,0005-00-0001-94.png
00000014,353,1,1449861851748,1449861852271,367,428,0,0,0,0,1,1,1,0005-00-0001-11.png,0004-00-0000-62.png
00000014,354,1,1449861853224,1449861853240,491,479,0,0,0,1,2,1,3,0004-00-0001-21.png,0003-00-0001-72.png
00000014,355,1,1449861854328,1449861854348,504,478,0,0,0,3,4,1,7,0002-00-0001-33.png,0001-00-0000-05.png
00000014,356,0,1449861855471,1449861856044,876,462,0,0,0,2,3,1,5,0003-00-0001-27.png,0002-00-0001-65.png
00000014,357,1,1449861859015,1449861859502,927,465,0,0,0,4,3,1,7,0001-00-0001-18.png,0002-00-0001-70.png
00000014,358,1,1449861860426,1449861860967,874,501,0,0,0,3,2,1,5,0002-00-0001-64.png,0003-00-0000-79.png
00000014,359,1,1449861861902,1449861862463,927,476,0,0,0,1,0,1,1,0004-00-0000-95.png,0005-00-0001-46.png
00000014,360,1,1449861863499,1449861864047,893,469,0,0,0,2,1,1,3,0003-00-0000-08.png,0004-00-0001-89.png
00000014,361,1,1449861864981,1449861866008,918,453,0,0,0,4,3,1,7,0001-00-0000-61.png,0002-00-0001-97.png
00000014,362,1,1449861866980,1449861867499,875,462,0,0,0,3,2,1,5,0002-00-0001-74.png,0003-00-0001-98.png
00000014,363,0,1449861868501,1449861869104,898,456,0,0,0,3,4,1,7,0002-00-0000-70.png,0001-00-0001-70.png
00000014,364,1,1449861872168,1449861872618,444,454,0,0,0,0,1,1,1,0005-00-0000-20.png,0004-00-0000-77.png
00000014,365,1,1449861873500,1449861874044,896,472,0,0,0,2,1,1,3,0003-00-0000-56.png,0004-00-0000-18.png
00000014,366,0,1449861875010,1449861875495,877,443,0,0,0,2,3,1,5,0003-00-0001-15.png,0002-00-0000-05.png
00000014,367,0,1449861878448,1449861878903,869,464,0,0,0,1,2,1,3,0004-00-0000-04.png,0003-00-0001-12.png
00000014,368,1,1449861881808,1449861882240,971,440,0,0,0,1,0,1,1,0004-00-0001-55.png,0005-00-0001-21.png
00000014,369,1,1449861883096,1449861883545,365,468,0,0,0,0,1,1,1,0005-00-0000-84.png,0004-00-0001-70.png
00000014,370,0,1449861884511,1449861885030,875,469,0,0,0,2,3,1,5,0003-00-0000-64.png,0002-00-0001-49.png
00000014,371,1,1449861888267,1449861888700,922,540,0,0,0,3,2,1,5,0002-00-0000-56.png,0003-00-0000-00.png
00000014,372,1,1449861889615,1449861890186,350,475,0,0,0,3,4,1,7,0002-00-0001-08.png,0001-00-0001-48.png
00000014,373,0,1449861891234,1449861891298,482,549,0,0,0,4,3,1,7,0001-00-0000-73.png,0002-00-0000-44.png
00000014,374,0,1449861896051,1449861896470,977,463,0,0,0,1,2,1,3,0004-00-0001-69.png,0003-00-0000-19.png
00000014,375,1,1449861899379,1449861899894,937,477,0,0,0,1,0,1,1,0004-00-0000-73.png,0005-00-0001-60.png
00000014,376,1,1449861900800,1449861901304,875,554,0,0,0,2,1,1,3,0003-00-0000-32.png,0004-00-0001-21.png
00000014,377,1,1449861902250,1449861902800,897,456,0,0,0,4,3,1,7,0001-00-0001-54.png,0002-00-0000-21.png
00000014,378,1,1449861903821,1449861904251,437,483,0,0,0,1,2,1,3,0004-00-0000-74.png,0003-00-0001-94.png
00000014,379,0,1449861905260,1449861905905,881,471,0,0,0,2,3,1,5,0003-00-0000-76.png,0002-00-0001-44.png
00000014,380,1,1449861909126,1449861909564,976,494,0,0,0,1,0,1,1,0004-00-0000-98.png,0005-00-0001-19.png
00000014,381,0,1449861910511,1449861911073,924,464,0,0,0,0,1,1,1,0005-00-0000-40.png,0004-00-0001-35.png
00000014,382,0,1449861914355,1449861914792,964,449,0,0,0,3,4,1,7,0002-00-0000-84.png,0001-00-0001-43.png
00000014,383,1,1449861917814,1449861918212,981,493,0,0,0,2,1,1,3,0003-00-0000-78.png,0004-00-0001-15.png
00000014,384,1,1449861919158,1449861919622,905,479,0,0,0,3,2,1,5,0002-00-0000-53.png,0003-00-0001-37.png
00000014,385,0,1449861920608,1449861921106,862,462,0,0,0,2,3,1,5,0003-00-0000-19.png,0002-00-0001-51.png
00000014,386,0,1449861923997,1449861924464,958,498,0,0,0,1,2,1,3,0004-00-0000-33.png,0003-00-0001-00.png
00000014,387,1,1449861929532,1449861929945,919,469,0,0,0,3,2,1,5,0002-00-0001-99.png,0003-00-0001-12.png
00000014,388,1,1449861930809,1449861931266,345,486,0,0,0,0,1,1,1,0005-00-0001-46.png,0004-00-0000-91.png
00000014,389,1,1449861932120,1449861932765,874,463,0,0,0,4,3,1,7,0001-00-0001-61.png,0002-00-0001-23.png
00000014,390,1,1449861933694,1449861934235,874,542,0,0,0,1,0,1,1,0004-00-0001-68.png,0005-00-0000-67.png
00000014,391,0,1449861935093,1449861935540,410,483,0,0,0,2,1,1,3,0003-00-0001-34.png,0004-00-0001-36.png
00000014,392,0,1449861940665,1449861941150,995,454,0,0,0,3,4,1,7,0002-00-0000-14.png,0001-00-0000-80.png
00000014,393,0,1449861944627,1449861945001,926,397,0,0,0,3,4,1,7,0002-00-0000-10.png,0001-00-0001-73.png
00000014,394,1,1449861948034,1449861948438,873,410,0,0,0,3,2,1,5,0002-00-0000-07.png,0003-00-0001-91.png
00000014,395,1,1449861949317,1449861950007,923,458,0,0,0,4,3,1,7,0001-00-0000-69.png,0002-00-0000-68.png
00000014,396,1,1449861951039,1449861951509,866,560,0,0,0,1,0,1,1,0004-00-0001-60.png,0005-00-0001-99.png
00000014,397,0,1449861952449,1449861952995,877,467,0,0,0,2,3,1,5,0003-00-0001-78.png,0002-00-0001-36.png
00000014,398,0,1449861956919,1449861957311,883,403,0,0,0,1,2,1,3,0004-00-0000-81.png,0003-00-0000-31.png
00000014,399,1,1449861960367,1449861960837,989,424,0,0,0,2,1,1,3,0003-00-0000-42.png,0004-00-0001-96.png
00000014,400,1,1449861961746,1449861962236,401,475,0,0,0,0,1,1,1,0005-00-0000-06.png,0004-00-0000-26.png
00000014,401,1,1449861963138,1449861963723,896,446,0,0,0,3,2,1,5,0002-00-0001-12.png,0003-00-0001-43.png
00000014,402,1,1449861964660,1449861965112,411,460,0,0,0,0,1,1,1,0005-00-0001-14.png,0004-00-0000-87.png
00000014,403,1,1449861966138,1449861966689,861,471,0,0,0,2,1,1,3,0003-00-0001-18.png,0004-00-0000-90.png
00000014,404,1,1449861967661,1449861968095,441,475,0,0,0,1,2,1,3,0004-00-0000-68.png,0003-00-0001-16.png
00000014,405,0,1449861969092,1449861969641,875,436,0,0,0,3,4,1,7,0002-00-0000-91.png,0001-00-0000-32.png
00000014,406,0,1449861972519,1449861972934,947,420,0,0,0,2,3,1,5,0003-00-0001-61.png,0002-00-0001-89.png
00000014,407,1,1449861975780,1449861976212,902,521,0,0,0,4,3,1,7,0001-00-0001-32.png,0002-00-0000-17.png
00000014,408,1,1449861977123,1449861977701,921,470,0,0,0,1,0,1,1,0004-00-0001-04.png,0005-00-0000-35.png
00000014,409,1,1449861978682,1449861979636,913,554,0,0,0,1,0,1,1,0004-00-0000-10.png,0005-00-0001-92.png
00000014,410,1,1449861980570,1449861981153,901,441,0,0,0,3,2,1,5,0002-00-0001-29.png,0003-00-0000-98.png
00000014,411,0,1449861982131,1449861982147,508,458,0,0,0,4,3,1,7,0001-00-0000-90.png,0002-00-0001-89.png
00000014,412,0,1449861985302,1449861985723,952,449,0,0,0,3,4,1,7,0002-00-0001-60.png,0001-00-0000-64.png
00000014,413,0,1449861988912,1449861989319,876,442,0,0,0,1,2,1,3,0004-00-0000-21.png,0003-00-0000-48.png
00000014,414,0,1449861992517,1449861992947,971,440,0,0,0,0,1,1,1,0005-00-0000-63.png,0004-00-0001-53.png
00000014,415,1,1449861996709,1449861997129,972,442,0,0,0,2,1,1,3,0003-00-0000-94.png,0004-00-0000-21.png
00000014,416,0,1449861998009,1449861998575,875,462,0,0,0,2,3,1,5,0003-00-0000-13.png,0002-00-0000-88.png
00000014,417,1,1449862001476,1449862001986,925,501,0,0,0,3,2,1,5,0002-00-0001-76.png,0003-00-0000-54.png
00000014,418,0,1449862002990,1449862003478,914,475,0,0,0,3,4,1,7,0002-00-0001-59.png,0001-00-0000-08.png
00000014,419,0,1449862007534,1449862007937,964,475,0,0,0,2,3,1,5,0003-00-0001-18.png,0002-00-0000-29.png
00000014,420,1,1449862011063,1449862011484,926,530,0,0,0,4,3,1,7,0001-00-0000-50.png,0002-00-0000-54.png
00000014,421,0,1449862012391,1449862012916,876,555,0,0,0,0,1,1,1,0005-00-0000-43.png,0004-00-0000-68.png
00000014,422,1,1449862016070,1449862016595,450,407,0,0,0,1,2,1,3,0004-00-0001-35.png,0003-00-0001-03.png
00000014,423,0,1449862017541,1449862017557,518,436,0,0,0,1,0,1,1,0004-00-0000-26.png,0005-00-0000-53.png
00000014,424,1,1449862020847,1449862021276,951,541,0,0,0,2,1,1,3,0003-00-0000-23.png,0004-00-0001-68.png
00000014,425,1,1449862022173,1449862022721,923,458,0,0,0,2,1,1,3,0003-00-0000-87.png,0004-00-0001-16.png
00000014,426,0,1449862023674,1449862024185,871,469,0,0,0,2,3,1,5,0003-00-0001-64.png,0002-00-0000-63.png
00000014,427,0,1449862027173,1449862027550,907,526,0,0,0,0,1,1,1,0005-00-0000-73.png,0004-00-0001-85.png
00000014,428,1,1449862030671,1449862031079,966,415,0,0,0,1,0,1,1,0004-00-0001-87.png,0005-00-0000-78.png
00000014,429,1,1449862031981,1449862032514,905,480,0,0,0,4,3,1,7,0001-00-0001-35.png,0002-00-0000-39.png
00000014,430,0,1449862033522,1449862034137,889,475,0,0,0,1,2,1,3,0004-00-0001-79.png,0003-00-0001-39.png
00000014,431,1,1449862037131,1449862037548,937,442,0,0,0,3,2,1,5,0002-00-0001-59.png,0003-00-0001-44.png
00000014,432,1,1449862038471,1449862038898,427,514,0,0,0,3,4,1,7,0002-00-0000-55.png,0001-00-0000-66.png
00000014,433,0,1449862040377,1449862040869,896,445,0,0,0,1,2,1,3,0004-00-0001-07.png,0003-00-0001-01.png
00000014,434,0,1449862044007,1449862044035,492,477,0,0,0,2,1,1,3,0003-00-0001-71.png,0004-00-0001-47.png
00000014,435,1,1449862047021,1449862047401,990,410,0,0,0,1,0,1,1,0004-00-0000-48.png,0005-00-0000-84.png
00000014,436,1,1449862048361,1449862048818,356,463,0,0,0,0,1,1,1,0005-00-0000-88.png,0004-00-0000-23.png
00000014,437,1,1449862049792,1449862050364,930,453,0,0,0,4,3,1,7,0001-00-0000-53.png,0002-00-0000-59.png
00000014,438,0,1449862051382,1449862051806,391,484,0,0,0,3,2,1,5,0002-00-0001-15.png,0003-00-0001-74.png
00000014,439,0,1449862054902,1449862055306,877,543,0,0,0,2,3,1,5,0003-00-0000-16.png,0002-00-0000-23.png
00000014,440,0,1449862059005,1449862059436,964,424,0,0,0,3,4,1,7,0002-00-0001-73.png,0001-00-0001-04.png
00000014,441,1,1449862063199,1449862063611,976,410,0,0,0,4,3,1,7,0001-00-0000-41.png,0002-00-0001-24.png
00000014,442,1,1449862064467,1449862064917,427,461,0,0,0,0,1,1,1,0005-00-0001-58.png,0004-00-0000-03.png
00000014,443,1,1449862066509,1449862066935,421,470,0,0,0,1,2,1,3,0004-00-0000-36.png,0003-00-0000-35.png
00000014,444,1,1449862067848,1449862068334,393,473,0,0,0,2,3,1,5,0003-00-0001-15.png,0002-00-0001-14.png
00000014,445,0,1449862069320,1449862069749,383,498,0,0,0,1,0,1,1,0004-00-0000-21.png,0005-00-0000-31.png
00000014,446,1,1449862074648,1449862075213,375,445,0,0,0,3,4,1,7,0002-00-0001-83.png,0001-00-0001-35.png
00000014,447,0,1449862076146,1449862076182,501,494,0,0,0,2,1,1,3,0003-00-0000-91.png,0004-00-0000-56.png
00000014,448,1,1449862080095,1449862080468,940,423,0,0,0,3,2,1,5,0002-00-0000-28.png,0003-00-0000-80.png
00000014,449,1,1449862081434,1449862081995,900,463,0,0,0,1,0,1,1,0004-00-0000-25.png,0005-00-0001-70.png
00000014,450,1,1449862082998,1449862083578,886,477,0,0,0,3,2,1,5,0002-00-0001-45.png,0003-00-0001-44.png
00000014,451,1,1449862084606,1449862085329,896,441,0,0,0,4,3,1,7,0001-00-0000-45.png,0002-00-0001-53.png
00000014,452,1,1449862086393,1449862087009,876,433,0,0,0,2,1,1,3,0003-00-0001-78.png,0004-00-0000-54.png
00000014,453,0,1449862088037,1449862088575,898,456,0,0,0,2,3,1,5,0003-00-0001-33.png,0002-00-0000-63.png
00000014,454,1,1449862091674,1449862092158,441,462,0,0,0,0,1,1,1,0005-00-0000-67.png,0004-00-0001-45.png
00000014,455,0,1449862093063,1449862093640,874,489,0,0,0,3,4,1,7,0002-00-0000-35.png,0001-00-0000-04.png
00000014,456,0,1449862097336,1449862097773,974,462,0,0,0,1,2,1,3,0004-00-0000-28.png,0003-00-0000-16.png
00000014,457,1,1449862100807,1449862101322,440,469,0,0,0,0,1,1,1,0005-00-0001-52.png,0004-00-0001-41.png
00000014,458,0,1449862102328,1449862102988,903,467,0,0,0,1,2,1,3,0004-00-0000-93.png,0003-00-0001-79.png
00000014,459,1,1449862106424,1449862106885,952,466,0,0,0,4,3,1,7,0001-00-0001-18.png,0002-00-0001-66.png
00000014,460,1,1449862107823,1449862108347,905,454,0,0,0,3,2,1,5,0002-00-0000-64.png,0003-00-0000-80.png
00000014,461,0,1449862109352,1449862109880,901,462,0,0,0,3,4,1,7,0002-00-0000-77.png,0001-00-0001-74.png
00000014,462,0,1449862113332,1449862113792,928,517,0,0,0,2,3,1,5,0003-00-0000-16.png,0002-00-0001-61.png
00000014,463,1,1449862117146,1449862117551,970,500,0,0,0,2,1,1,3,0003-00-0000-15.png,0004-00-0001-49.png
00000014,464,1,1449862118474,1449862119009,857,553,0,0,0,1,0,1,1,0004-00-0000-17.png,0005-00-0000-56.png
00000014,465,0,1449862120030,1449862120509,900,463,0,0,0,1,2,1,3,0004-00-0001-73.png,0003-00-0001-23.png
00000014,466,1,1449862123775,1449862124212,1001,433,0,0,0,3,2,1,5,0002-00-0001-14.png,0003-00-0000-25.png
00000014,467,0,1449862125210,1449862125703,900,463,0,0,0,2,3,1,5,0003-00-0001-72.png,0002-00-0001-96.png
00000014,468,1,1449862128737,1449862129181,967,453,0,0,0,1,0,1,1,0004-00-0001-50.png,0005-00-0001-31.png
00000014,469,1,1449862130106,1449862130685,899,464,0,0,0,2,1,1,3,0003-00-0000-89.png,0004-00-0000-91.png
00000014,470,0,1449862131727,1449862132330,896,446,0,0,0,3,4,1,7,0002-00-0000-26.png,0001-00-0000-17.png
00000014,471,0,1449862136218,1449862136629,926,528,0,0,0,0,1,1,1,0005-00-0001-21.png,0004-00-0000-46.png
00000014,472,1,1449862139780,1449862140192,897,405,0,0,0,4,3,1,7,0001-00-0001-60.png,0002-00-0001-55.png
00000014,473,1,1449862141119,1449862141621,401,488,0,0,0,0,1,1,1,0005-00-0001-61.png,0004-00-0001-06.png
00000014,474,1,1449862142659,1449862142734,488,558,0,0,0,3,4,1,7,0002-00-0001-69.png,0001-00-0000-54.png
00000014,475,1,1449862143832,1449862144379,901,476,0,0,0,1,0,1,1,0004-00-0000-30.png,0005-00-0001-90.png
00000014,476,1,1449862145433,1449862145964,877,466,0,0,0,2,1,1,3,0003-00-0001-24.png,0004-00-0000-29.png
00000014,477,1,1449862146933,1449862147945,472,540,0,0,0,2,3,1,5,0003-00-0000-20.png,0002-00-0001-87.png
00000014,478,1,1449862148967,1449862149446,862,450,0,0,0,4,3,1,7,0001-00-0000-48.png,0002-00-0000-35.png
00000014,479,0,1449862150553,1449862151531,383,445,0,0,0,3,2,1,5,0002-00-0000-78.png,0003-00-0001-04.png
00000014,480,0,1449862155540,1449862155968,946,488,0,0,0,1,2,1,3,0004-00-0000-66.png,0003-00-0000-61.png
00000014,481,0,1449862159437,1449862159822,940,396,0,0,0,3,4,1,7,0002-00-0000-09.png,0001-00-0001-78.png
00000014,482,1,1449862163412,1449862163915,443,415,0,0,0,0,1,1,1,0005-00-0001-49.png,0004-00-0000-00.png
00000014,483,1,1449862164897,1449862165465,888,462,0,0,0,4,3,1,7,0001-00-0001-34.png,0002-00-0001-48.png
00000014,484,1,1449862166493,1449862167010,862,451,0,0,0,3,2,1,5,0002-00-0001-94.png,0003-00-0001-86.png
00000014,485,0,1449862167984,1449862168639,875,443,0,0,0,1,2,1,3,0004-00-0000-96.png,0003-00-0001-32.png
00000014,486,0,1449862171790,1449862172193,941,443,0,0,0,2,3,1,5,0003-00-0001-08.png,0002-00-0001-20.png
00000014,487,1,1449862175301,1449862175744,975,448,0,0,0,2,1,1,3,0003-00-0001-93.png,0004-00-0001-47.png
00000014,488,1,1449862176689,1449862177299,913,462,0,0,0,1,0,1,1,0004-00-0001-07.png,0005-00-0001-57.png
00000014,489,1,1449862178220,1449862178718,871,524,0,0,0,1,0,1,1,0004-00-0001-15.png,0005-00-0000-16.png
00000014,490,0,1449862179761,1449862180282,887,476,0,0,0,2,3,1,5,0003-00-0000-99.png,0002-00-0001-73.png
00000014,491,1,1449862183439,1449862183871,942,426,0,0,0,3,2,1,5,0002-00-0001-81.png,0003-00-0000-49.png
00000014,492,1,1449862184850,1449862185773,391,426,0,0,0,1,2,1,3,0004-00-0001-37.png,0003-00-0001-35.png
00000014,493,1,1449862187257,1449862187830,875,476,0,0,0,4,3,1,7,0001-00-0001-47.png,0002-00-0000-58.png
00000014,494,1,1449862188806,1449862189229,401,475,0,0,0,0,1,1,1,0005-00-0000-93.png,0004-00-0001-45.png
00000014,495,0,1449862190195,1449862190833,876,488,0,0,0,3,4,1,7,0002-00-0001-45.png,0001-00-0000-92.png
00000014,496,1,1449862195059,1449862195501,952,507,0,0,0,2,1,1,3,0003-00-0001-40.png,0004-00-0000-86.png
00000014,497,0,1449862196550,1449862197056,900,489,0,0,0,2,3,1,5,0003-00-0000-22.png,0002-00-0001-23.png
00000014,498,1,1449862200821,1449862201292,949,488,0,0,0,2,1,1,3,0003-00-0001-97.png,0004-00-0001-82.png
00000014,499,1,1449862202252,1449862202773,913,488,0,0,0,1,0,1,1,0004-00-0000-89.png,0005-00-0001-70.png
00000014,500,1,1449862203818,1449862204226,407,488,0,0,0,0,1,1,1,0005-00-0000-39.png,0004-00-0001-43.png
00000014,501,1,1449862205285,1449862205814,862,450,0,0,0,3,2,1,5,0002-00-0000-15.png,0003-00-0000-10.png
00000014,502,1,1449862206837,1449862207275,350,475,0,0,0,1,2,1,3,0004-00-0000-02.png,0003-00-0001-88.png
00000014,503,0,1449862208342,1449862209067,895,488,0,0,0,3,4,1,7,0002-00-0000-99.png,0001-00-0000-99.png
00000014,504,1,1449862212758,1449862213191,863,435,0,0,0,4,3,1,7,0001-00-0000-45.png,0002-00-0000-75.png
00000014,505,1,1449862214138,1449862214574,369,479,0,0,0,0,1,1,1,0005-00-0001-88.png,0004-00-0000-42.png
00000014,506,0,1449862215599,1449862216217,866,465,0,0,0,3,4,1,7,0002-00-0000-60.png,0001-00-0001-14.png
00000014,507,0,1449862219255,1449862219690,931,480,0,0,0,2,3,1,5,0003-00-0000-15.png,0002-00-0001-85.png
00000014,508,0,1449862222806,1449862223294,924,479,0,0,0,1,2,1,3,0004-00-0001-85.png,0003-00-0000-94.png
00000014,509,1,1449862226384,1449862226823,877,516,0,0,0,4,3,1,7,0001-00-0001-11.png,0002-00-0000-99.png
00000014,510,1,1449862227845,1449862228348,916,479,0,0,0,2,1,1,3,0003-00-0001-53.png,0004-00-0000-28.png
00000014,511,0,1449862229742,1449862230154,440,488,0,0,0,3,2,1,5,0002-00-0001-30.png,0003-00-0001-48.png
00000014,512,1,1449862233868,1449862234322,952,462,0,0,0,1,0,1,1,0004-00-0000-10.png,0005-00-0000-97.png
00000014,513,0,1449862235318,1449862236007,922,474,0,0,0,0,1,1,1,0005-00-0001-75.png,0004-00-0001-33.png
00000014,514,1,1449862239247,1449862239674,889,438,0,0,0,2,1,1,3,0003-00-0001-61.png,0004-00-0001-40.png
00000014,515,0,1449862240586,1449862241121,913,500,0,0,0,3,4,1,7,0002-00-0000-19.png,0001-00-0001-62.png
00000014,516,1,1449862244125,1449862244553,952,462,0,0,0,3,2,1,5,0002-00-0000-60.png,0003-00-0001-55.png
00000014,517,1,1449862245468,1449862246041,920,467,0,0,0,1,0,1,1,0004-00-0001-69.png,0005-00-0001-08.png
00000014,518,0,1449862247025,1449862247556,872,482,0,0,0,2,3,1,5,0003-00-0000-27.png,0002-00-0001-11.png
00000014,519,1,1449862250621,1449862251019,900,566,0,0,0,4,3,1,7,0001-00-0000-65.png,0002-00-0000-00.png
00000014,520,1,1449862251936,1449862252868,361,423,0,0,0,1,2,1,3,0004-00-0000-20.png,0003-00-0000-43.png
00000014,521,1,1449862254269,1449862254786,365,439,0,0,0,0,1,1,1,0005-00-0000-99.png,0004-00-0000-75.png
00000014,522,0,1449862255781,1449862255825,475,520,0,0,0,4,3,1,7,0001-00-0001-65.png,0002-00-0001-46.png
00000014,523,1,1449862258732,1449862259164,925,438,0,0,0,3,2,1,5,0002-00-0000-05.png,0003-00-0001-35.png
00000014,524,1,1449862260095,1449862260545,350,489,0,0,0,1,2,1,3,0004-00-0001-22.png,0003-00-0000-26.png
00000014,525,1,1449862261566,1449862262058,904,480,0,0,0,1,0,1,1,0004-00-0001-73.png,0005-00-0001-84.png
00000014,526,0,1449862263009,1449862263524,875,464,0,0,0,3,4,1,7,0002-00-0000-52.png,0001-00-0000-37.png
00000014,527,0,1449862266365,1449862266824,971,417,0,0,0,2,3,1,5,0003-00-0000-65.png,0002-00-0001-41.png
00000014,528,1,1449862269802,1449862270210,931,453,0,0,0,2,1,1,3,0003-00-0001-69.png,0004-00-0001-56.png
00000014,529,1,1449862271096,1449862271574,350,464,0,0,0,0,1,1,1,0005-00-0000-62.png,0004-00-0001-91.png
00000014,530,1,1449862272578,1449862272980,459,493,0,0,0,3,4,1,7,0002-00-0001-08.png,0001-00-0000-82.png
00000014,531,0,1449862274089,1449862274652,901,464,0,0,0,2,3,1,5,0003-00-0000-87.png,0002-00-0001-43.png
00000014,532,1,1449862278432,1449862278824,915,504,0,0,0,3,2,1,5,0002-00-0000-79.png,0003-00-0000-24.png
00000014,533,0,1449862279753,1449862280267,875,462,0,0,0,1,2,1,3,0004-00-0000-24.png,0003-00-0000-78.png
00000014,534,1,1449862283225,1449862283677,959,447,0,0,0,4,3,1,7,0001-00-0001-88.png,0002-00-0000-31.png
00000014,535,0,1449862284628,1449862285074,343,479,0,0,0,1,0,1,1,0004-00-0001-22.png,0005-00-0001-10.png
00000014,536,1,1449862288149,1449862288575,964,474,0,0,0,2,1,1,3,0003-00-0000-99.png,0004-00-0000-17.png
00000014,537,0,1449862289440,1449862290442,482,444,0,0,0,3,2,1,5,0002-00-0000-97.png,0003-00-0001-85.png
00000014,538,1,1449862293398,1449862293806,958,474,0,0,0,4,3,1,7,0001-00-0000-91.png,0002-00-0000-97.png
00000014,539,1,1449862294726,1449862295298,900,462,0,0,0,1,0,1,1,0004-00-0000-98.png,0005-00-0001-48.png
00000014,540,1,1449862296319,1449862296813,382,461,0,0,0,1,2,1,3,0004-00-0001-04.png,0003-00-0000-06.png
00000014,541,1,1449862297840,1449862298367,886,476,0,0,0,2,1,1,3,0003-00-0000-33.png,0004-00-0001-75.png
00000014,542,0,1449862299371,1449862300364,897,430,0,0,0,2,3,1,5,0003-00-0000-49.png,0002-00-0001-93.png
00000014,543,0,1449862303424,1449862303839,970,466,0,0,0,3,4,1,7,0002-00-0000-14.png,0001-00-0001-04.png
00000014,544,1,1449862306983,1449862307468,425,401,0,0,0,0,1,1,1,0005-00-0000-64.png,0004-00-0000-58.png
00000014,545,0,1449862308655,1449862309215,901,476,0,0,0,1,2,1,3,0004-00-0000-29.png,0003-00-0000-65.png
00000014,546,1,1449862312129,1449862312549,907,525,0,0,0,1,0,1,1,0004-00-0000-09.png,0005-00-0001-71.png
00000014,547,0,1449862313555,1449862314120,881,469,0,0,0,0,1,1,1,0005-00-0001-87.png,0004-00-0000-69.png
00000014,548,0,1449862318502,1449862318890,985,448,0,0,0,3,4,1,7,0002-00-0001-16.png,0001-00-0000-11.png
00000014,549,1,1449862327193,1449862327581,977,422,0,0,0,3,2,1,5,0002-00-0001-71.png,0003-00-0001-54.png
00000014,550,1,1449862328931,1449862329341,925,483,0,0,0,2,1,1,3,0003-00-0001-21.png,0004-00-0001-44.png
00000014,551,0,1449862330287,1449862330797,900,487,0,0,0,2,3,1,5,0003-00-0000-80.png,0002-00-0000-93.png
00000014,552,1,1449862333764,1449862334348,926,462,0,0,0,4,3,1,7,0001-00-0001-93.png,0002-00-0000-83.png
00000014,553,1,1449862335332,1449862335817,879,504,0,0,0,1,0,1,1,0004-00-0000-85.png,0005-00-0000-28.png
00000014,554,1,1449862336811,1449862337315,879,479,0,0,0,2,1,1,3,0003-00-0001-79.png,0004-00-0000-07.png
00000014,555,0,1449862338344,1449862338862,877,467,0,0,0,2,3,1,5,0003-00-0001-51.png,0002-00-0001-30.png
00000014,556,0,1449862342044,1449862342469,960,473,0,0,0,3,4,1,7,0002-00-0000-54.png,0001-00-0000-92.png
00000014,557,1,1449862345630,1449862346156,900,554,0,0,0,3,2,1,5,0002-00-0000-23.png,0003-00-0000-28.png
00000014,558,0,1449862347090,1449862347545,363,475,0,0,0,4,3,1,7,0001-00-0000-69.png,0002-00-0001-14.png
00000014,559,1,1449862351037,1449862351589,376,384,0,0,0,0,1,1,1,0005-00-0000-25.png,0004-00-0001-79.png
00000014,560,1,1449862352488,1449862352552,513,558,0,0,0,1,2,1,3,0004-00-0000-43.png,0003-00-0001-70.png
00000014,561,1,1449862353640,1449862354044,376,436,0,0,0,0,1,1,1,0005-00-0000-20.png,0004-00-0001-73.png
00000014,562,0,1449862355141,1449862355669,875,496,0,0,0,3,4,1,7,0002-00-0001-31.png,0001-00-0001-10.png
00000014,563,1,1449862358729,1449862359146,955,490,0,0,0,4,3,1,7,0001-00-0000-19.png,0002-00-0001-34.png
00000014,564,0,1449862360118,1449862360564,363,475,0,0,0,1,0,1,1,0004-00-0000-18.png,0005-00-0001-98.png
00000014,565,0,1449862363866,1449862364321,982,523,0,0,0,2,3,1,5,0003-00-0001-52.png,0002-00-0000-68.png
00000014,566,0,1449862367245,1449862367696,900,541,0,0,0,1,2,1,3,0004-00-0000-87.png,0003-00-0000-97.png
00000014,567,1,1449862373777,1449862374162,997,468,0,0,0,2,1,1,3,0003-00-0001-39.png,0004-00-0001-21.png
00000014,568,1,1449862375164,1449862375678,892,464,0,0,0,3,2,1,5,0002-00-0000-40.png,0003-00-0001-23.png
00000014,569,0,1449862376705,1449862377281,876,495,0,0,0,3,4,1,7,0002-00-0000-80.png,0001-00-0001-44.png
00000014,570,0,1449862380350,1449862380881,980,500,0,0,0,2,3,1,5,0003-00-0001-42.png,0002-00-0000-09.png
00000014,571,1,1449862383840,1449862384368,453,410,0,0,0,1,2,1,3,0004-00-0000-56.png,0003-00-0000-65.png
00000014,572,0,1449862385341,1449862385994,901,467,0,0,0,0,1,1,1,0005-00-0000-71.png,0004-00-0001-68.png
00000014,573,1,1449862388878,1449862389277,953,410,0,0,0,1,0,1,1,0004-00-0000-68.png,0005-00-0000-00.png
00000014,574,0,1449862390262,1449862390702,421,468,0,0,0,4,3,1,7,0001-00-0000-02.png,0002-00-0001-94.png
00000014,575,1,1449862393741,1449862394180,911,398,0,0,0,2,1,1,3,0003-00-0000-31.png,0004-00-0001-86.png
00000014,576,0,1449862395206,1449862395222,511,496,0,0,0,3,2,1,5,0002-00-0001-97.png,0003-00-0000-92.png
00000014,577,0,1449862398481,1449862398951,973,466,0,0,0,0,1,1,1,0005-00-0001-68.png,0004-00-0000-41.png
00000014,578,1,1449862401925,1449862402356,950,517,0,0,0,2,1,1,3,0003-00-0001-76.png,0004-00-0001-31.png
00000014,579,1,1449862403321,1449862403878,900,490,0,0,0,3,2,1,5,0002-00-0001-51.png,0003-00-0001-33.png
00000014,580,1,1449862405343,1449862405897,344,427,0,0,0,2,3,1,5,0003-00-0001-89.png,0002-00-0001-46.png
00000014,581,0,1449862406960,1449862407431,401,476,0,0,0,1,0,1,1,0004-00-0000-78.png,0005-00-0000-77.png
00000014,582,1,1449862410386,1449862410823,941,417,0,0,0,4,3,1,7,0001-00-0001-71.png,0002-00-0000-23.png
00000014,583,0,1449862411801,1449862412650,899,483,0,0,0,1,2,1,3,0004-00-0001-88.png,0003-00-0001-28.png
00000014,584,0,1449862415490,1449862415970,930,465,0,0,0,3,4,1,7,0002-00-0000-84.png,0001-00-0000-16.png
00000014,585,0,1449862418923,1449862419356,951,475,0,0,0,3,4,1,7,0002-00-0000-00.png,0001-00-0000-23.png
00000014,586,0,1449862422425,1449862422937,971,454,0,0,0,0,1,1,1,0005-00-0000-70.png,0004-00-0000-40.png
00000014,587,0,1449862425970,1449862426386,954,490,0,0,0,1,2,1,3,0004-00-0000-51.png,0003-00-0000-62.png
00000014,588,0,1449862429231,1449862429724,363,414,0,0,0,4,3,1,7,0001-00-0000-68.png,0002-00-0000-49.png
00000014,589,1,1449862432974,1449862433401,959,500,0,0,0,1,0,1,1,0004-00-0000-75.png,0005-00-0001-98.png
00000014,590,0,1449862434351,1449862434863,897,498,0,0,0,2,3,1,5,0003-00-0000-80.png,0002-00-0001-05.png
00000014,591,1,1449862437797,1449862438211,905,402,0,0,0,2,1,1,3,0003-00-0000-19.png,0004-00-0000-75.png
00000014,592,1,1449862439156,1449862439736,874,490,0,0,0,3,2,1,5,0002-00-0001-68.png,0003-00-0001-28.png
00000014,593,1,1449862440781,1449862441331,888,476,0,0,0,3,2,1,5,0002-00-0001-30.png,0003-00-0000-18.png
00000014,594,0,1449862442288,1449862443052,936,496,0,0,0,0,1,1,1,0005-00-0000-10.png,0004-00-0000-24.png
00000014,595,1,1449862445976,1449862446371,899,501,0,0,0,4,3,1,7,0001-00-0001-56.png,0002-00-0000-87.png
00000014,596,0,1449862447684,1449862448125,899,483,0,0,0,3,4,1,7,0002-00-0000-16.png,0001-00-0000-84.png
00000014,597,1,1449862450975,1449862451367,913,502,0,0,0,2,1,1,3,0003-00-0000-81.png,0004-00-0000-75.png
00000014,598,0,1449862452288,1449862452877,890,472,0,0,0,2,3,1,5,0003-00-0000-91.png,0002-00-0000-95.png
00000014,599,1,1449862455814,1449862456259,939,476,0,0,0,1,0,1,1,0004-00-0001-66.png,0005-00-0001-05.png
00000014,600,1,1449862457683,1449862458085,388,475,0,0,0,1,2,1,3,0004-00-0000-89.png,0003-00-0001-13.png
00000014,601,0,1449862459275,1449862459780,877,494,0,0,0,2,3,1,5,0003-00-0001-58.png,0002-00-0001-06.png
00000014,602,0,1449862462729,1449862463160,963,450,0,0,0,3,4,1,7,0002-00-0001-63.png,0001-00-0001-42.png
00000014,603,0,1449862466125,1449862466547,951,438,0,0,0,1,2,1,3,0004-00-0001-40.png,0003-00-0000-56.png
00000014,604,1,1449862469418,1449862469905,952,464,0,0,0,3,2,1,5,0002-00-0001-54.png,0003-00-0000-32.png
00000014,605,1,1449862470830,1449862471348,900,489,0,0,0,4,3,1,7,0001-00-0000-13.png,0002-00-0001-20.png
00000014,606,1,1449862472421,1449862472883,401,476,0,0,0,0,1,1,1,0005-00-0000-34.png,0004-00-0000-67.png
00000014,607,1,1449862473925,1449862474414,888,488,0,0,0,2,1,1,3,0003-00-0000-58.png,0004-00-0000-19.png
00000014,608,1,1449862475445,1449862476087,895,472,0,0,0,1,0,1,1,0004-00-0001-97.png,0005-00-0001-10.png
00000014,609,1,1449862477094,1449862477492,394,479,0,0,0,0,1,1,1,0005-00-0001-60.png,0004-00-0000-13.png
00000014,610,0,1449862478558,1449862479029,328,487,0,0,0,4,3,1,7,0001-00-0001-29.png,0002-00-0000-81.png
00000014,611,1,1449862482016,1449862482475,970,477,0,0,0,3,2,1,5,0002-00-0001-95.png,0003-00-0001-97.png
00000014,612,1,1449862483526,1449862484055,888,502,0,0,0,1,0,1,1,0004-00-0001-39.png,0005-00-0001-68.png
00000014,613,1,1449862485079,1449862486056,370,409,0,0,0,3,4,1,7,0002-00-0000-68.png,0001-00-0001-95.png
00000014,614,0,1449862487156,1449862487610,873,483,0,0,0,2,3,1,5,0003-00-0000-53.png,0002-00-0000-68.png
00000014,615,1,1449862491050,1449862491487,969,494,0,0,0,2,1,1,3,0003-00-0000-97.png,0004-00-0000-95.png
00000014,616,0,1449862492454,1449862493010,896,472,0,0,0,1,2,1,3,0004-00-0001-46.png,0003-00-0001-61.png
00000014,617,1,1449862496619,1449862497081,438,439,0,0,0,0,1,1,1,0005-00-0000-03.png,0004-00-0001-14.png
00000014,618,0,1449862498079,1449862498602,873,458,0,0,0,3,4,1,7,0002-00-0001-73.png,0001-00-0000-74.png
00000014,619,0,1449862501830,1449862502316,927,512,0,0,0,1,2,1,3,0004-00-0001-29.png,0003-00-0000-74.png
00000014,620,1,1449862505604,1449862506128,900,491,0,0,0,4,3,1,7,0001-00-0001-81.png,0002-00-0001-57.png
00000014,621,1,1449862507076,1449862507555,873,510,0,0,0,2,1,1,3,0003-00-0001-24.png,0004-00-0001-91.png
00000014,622,1,1449862508463,1449862508945,401,476,0,0,0,2,3,1,5,0003-00-0001-74.png,0002-00-0001-86.png
00000014,623,1,1449862509897,1449862510420,862,475,0,0,0,1,0,1,1,0004-00-0000-83.png,0005-00-0000-88.png
00000014,624,0,1449862511295,1449862512299,459,464,0,0,0,3,2,1,5,0002-00-0001-19.png,0003-00-0000-70.png
00000014,625,1,1449862516900,1449862517404,977,437,0,0,0,4,3,1,7,0001-00-0000-56.png,0002-00-0000-66.png
00000014,626,0,1449862518532,1449862519056,900,501,0,0,0,1,2,1,3,0004-00-0001-50.png,0003-00-0000-52.png
00000014,627,1,1449862521958,1449862522548,943,428,0,0,0,1,0,1,1,0004-00-0001-72.png,0005-00-0000-68.png
00000014,628,0,1449862523529,1449862524057,888,476,0,0,0,2,3,1,5,0003-00-0001-64.png,0002-00-0001-28.png
00000014,629,0,1449862527611,1449862528078,880,566,0,0,0,0,1,1,1,0005-00-0001-81.png,0004-00-0000-41.png
00000014,630,1,1449862531202,1449862531705,931,428,0,0,0,3,2,1,5,0002-00-0000-02.png,0003-00-0000-73.png
00000014,631,1,1449862532721,1449862533266,872,509,0,0,0,2,1,1,3,0003-00-0001-48.png,0004-00-0001-23.png
00000014,632,0,1449862534340,1449862534862,874,490,0,0,0,3,4,1,7,0002-00-0000-10.png,0001-00-0001-86.png
00000014,633,1,1449862538089,1449862538518,950,482,0,0,0,3,2,1,5,0002-00-0001-80.png,0003-00-0001-83.png
00000014,634,0,1449862539537,1449862540073,875,476,0,0,0,1,2,1,3,0004-00-0001-41.png,0003-00-0000-00.png
00000014,635,0,1449862543174,1449862543708,901,502,0,0,0,0,1,1,1,0005-00-0001-10.png,0004-00-0000-71.png
00000014,636,1,1449862546703,1449862547125,969,451,0,0,0,2,1,1,3,0003-00-0000-55.png,0004-00-0000-24.png
00000014,637,1,1449862548425,1449862548919,873,562,0,0,0,1,0,1,1,0004-00-0001-79.png,0005-00-0001-17.png
00000014,638,0,1449862549837,1449862550274,427,488,0,0,0,4,3,1,7,0001-00-0000-06.png,0002-00-0000-87.png
00000014,639,0,1449862553291,1449862553692,952,463,0,0,0,2,3,1,5,0003-00-0001-71.png,0002-00-0000-33.png
00000014,640,0,1449862557025,1449862557450,952,435,0,0,0,3,4,1,7,0002-00-0000-45.png,0001-00-0001-08.png
00000014,641,1,1449862560517,1449862560946,867,429,0,0,0,2,1,1,3,0003-00-0000-99.png,0004-00-0001-15.png
00000014,642,0,1449862561870,1449862562362,896,472,0,0,0,1,2,1,3,0004-00-0001-51.png,0003-00-0001-79.png
00000014,643,1,1449862565449,1449862565934,359,407,0,0,0,0,1,1,1,0005-00-0001-17.png,0004-00-0000-34.png
00000014,644,0,1449862566822,1449862567332,872,483,0,0,0,2,3,1,5,0003-00-0000-12.png,0002-00-0001-49.png
00000014,645,1,1449862571048,1449862571469,921,468,0,0,0,3,2,1,5,0002-00-0001-50.png,0003-00-0001-41.png
00000014,646,1,1449862572427,1449862572460,494,514,0,0,0,3,4,1,7,0002-00-0001-98.png,0001-00-0001-56.png
00000014,647,0,1449862573617,1449862574059,330,488,0,0,0,1,0,1,1,0004-00-0001-45.png,0005-00-0001-74.png
00000014,648,0,1449862577095,1449862577610,444,455,0,0,0,4,3,1,7,0001-00-0001-31.png,0002-00-0001-16.png
00000014,649,1,1449862580635,1449862581000,888,398,0,0,0,2,1,1,3,0003-00-0000-98.png,0004-00-0000-98.png
00000014,650,1,1449862581956,1449862582472,869,542,0,0,0,1,0,1,1,0004-00-0000-55.png,0005-00-0000-07.png
00000014,651,1,1449862583468,1449862583958,880,480,0,0,0,3,2,1,5,0002-00-0000-57.png,0003-00-0001-31.png
00000014,652,1,1449862585028,1449862585432,431,482,0,0,0,1,2,1,3,0004-00-0001-68.png,0003-00-0001-19.png
00000014,653,1,1449862586541,1449862586972,401,488,0,0,0,0,1,1,1,0005-00-0000-10.png,0004-00-0000-98.png
00000014,654,0,1449862588011,1449862588545,874,462,0,0,0,2,3,1,5,0003-00-0001-80.png,0002-00-0000-60.png
00000014,655,1,1449862591419,1449862591934,873,527,0,0,0,4,3,1,7,0001-00-0000-94.png,0002-00-0001-19.png
00000014,656,0,1449862592893,1449862593413,887,476,0,0,0,3,4,1,7,0002-00-0000-73.png,0001-00-0001-46.png
00000014,657,0,1449862596697,1449862597097,919,467,0,0,0,3,4,1,7,0002-00-0001-15.png,0001-00-0000-10.png
00000014,658,0,1449862600124,1449862600879,372,427,0,0,0,4,3,1,7,0001-00-0000-03.png,0002-00-0001-45.png
00000014,659,0,1449862604089,1449862604486,958,473,0,0,0,2,3,1,5,0003-00-0000-77.png,0002-00-0000-67.png
00000014,660,1,1449862607402,1449862607992,453,410,0,0,0,0,1,1,1,0005-00-0001-83.png,0004-00-0000-64.png
00000014,661,1,1449862608980,1449862609620,922,472,0,0,0,1,0,1,1,0004-00-0000-91.png,0005-00-0001-36.png
00000014,662,1,1449862610633,1449862611168,894,463,0,0,0,3,2,1,5,0002-00-0001-07.png,0003-00-0001-81.png
00000014,663,1,1449862612131,1449862612669,868,482,0,0,0,2,1,1,3,0003-00-0001-03.png,0004-00-0000-79.png
00000014,664,0,1449862613713,1449862614387,879,558,0,0,0,1,2,1,3,0004-00-0001-54.png,0003-00-0001-19.png
00000014,665,0,1449862617341,1449862617797,952,475,0,0,0,2,3,1,5,0003-00-0001-23.png,0002-00-0001-70.png
00000014,666,1,1449862621259,1449862621679,957,471,0,0,0,1,0,1,1,0004-00-0001-46.png,0005-00-0000-34.png
00000014,667,0,1449862622618,1449862623201,896,446,0,0,0,1,2,1,3,0004-00-0001-52.png,0003-00-0001-04.png
00000014,668,1,1449862626262,1449862626721,954,483,0,0,0,3,2,1,5,0002-00-0001-73.png,0003-00-0000-21.png
00000014,669,1,1449862627657,1449862628108,315,469,0,0,0,0,1,1,1,0005-00-0000-17.png,0004-00-0001-71.png
00000014,670,1,1449862629129,1449862629702,876,461,0,0,0,2,1,1,3,0003-00-0000-40.png,0004-00-0001-22.png
00000014,671,1,1449862630728,1449862631282,875,476,0,0,0,4,3,1,7,0001-00-0001-93.png,0002-00-0001-45.png
00000014,672,0,1449862632310,1449862632878,862,488,0,0,0,3,4,1,7,0002-00-0001-25.png,0001-00-0001-33.png
00000014,673,0,1449862636047,1449862636452,936,457,0,0,0,1,2,1,3,0004-00-0000-48.png,0003-00-0001-17.png
00000014,674,1,1449862639873,1449862640284,977,450,0,0,0,1,0,1,1,0004-00-0001-09.png,0005-00-0000-81.png
00000014,675,1,1449862641184,1449862641731,865,562,0,0,0,2,1,1,3,0003-00-0001-33.png,0004-00-0000-76.png
00000014,676,0,1449862642724,1449862643663,918,470,0,0,0,3,4,1,7,0002-00-0000-73.png,0001-00-0001-33.png
00000014,677,0,1449862646949,1449862647341,864,458,0,0,0,2,3,1,5,0003-00-0001-34.png,0002-00-0000-95.png
00000014,678,1,1449862650588,1449862650970,922,418,0,0,0,4,3,1,7,0001-00-0000-55.png,0002-00-0000-87.png
00000014,679,1,1449862651868,1449862652318,437,468,0,0,0,0,1,1,1,0005-00-0001-49.png,0004-00-0000-85.png
00000014,680,0,1449862653240,1449862653284,504,514,0,0,0,3,2,1,5,0002-00-0000-68.png,0003-00-0001-47.png
00000014,681,0,1449862656477,1449862656884,886,529,0,0,0,2,3,1,5,0003-00-0000-71.png,0002-00-0001-49.png
00000014,682,0,1449862660305,1449862661363,932,496,0,0,0,3,4,1,7,0002-00-0001-19.png,0001-00-0001-03.png
00000014,683,1,1449862665166,1449862665582,892,531,0,0,0,1,0,1,1,0004-00-0000-75.png,0005-00-0000-98.png
00000014,684,1,1449862666687,1449862667168,922,472,0,0,0,2,1,1,3,0003-00-0000-28.png,0004-00-0000-81.png
00000014,685,0,1449862668149,1449862668662,897,457,0,0,0,1,2,1,3,0004-00-0001-18.png,0003-00-0001-66.png
00000014,686,0,1449862671826,1449862672271,938,494,0,0,0,0,1,1,1,0005-00-0000-02.png,0004-00-0000-70.png
00000014,687,1,1449862675879,1449862676275,926,502,0,0,0,3,2,1,5,0002-00-0001-53.png,0003-00-0001-23.png
00000014,688,1,1449862677190,1449862677831,875,461,0,0,0,4,3,1,7,0001-00-0000-62.png,0002-00-0000-34.png
00000014,689,1,1449862678791,1449862679333,868,489,0,0,0,3,2,1,5,0002-00-0000-75.png,0003-00-0001-06.png
00000014,690,0,1449862680331,1449862680829,860,476,0,0,0,1,2,1,3,0004-00-0001-64.png,0003-00-0000-06.png
00000014,691,1,1449862684209,1449862684581,873,535,0,0,0,1,0,1,1,0004-00-0000-48.png,0005-00-0001-17.png
00000014,692,1,1449862685529,1449862686105,875,502,0,0,0,4,3,1,7,0001-00-0000-82.png,0002-00-0000-03.png
00000014,693,0,1449862687089,1449862687606,877,470,0,0,0,2,3,1,5,0003-00-0000-42.png,0002-00-0000-85.png
00000014,694,0,1449862692725,1449862693160,952,488,0,0,0,0,1,1,1,0005-00-0001-61.png,0004-00-0001-71.png
00000014,695,0,1449862696048,1449862696527,899,542,0,0,0,3,4,1,7,0002-00-0001-21.png,0001-00-0001-51.png
00000014,696,1,1449862699472,1449862699987,928,492,0,0,0,2,1,1,3,0003-00-0000-92.png,0004-00-0000-70.png
00000014,697,1,1449862701002,1449862701506,897,510,0,0,0,1,0,1,1,0004-00-0001-33.png,0005-00-0001-88.png
00000014,698,1,1449862702561,1449862703110,869,493,0,0,0,2,1,1,3,0003-00-0001-72.png,0004-00-0001-98.png
00000014,699,1,1449862704123,1449862704777,886,451,0,0,0,3,2,1,5,0002-00-0000-88.png,0003-00-0001-60.png
00000014,700,1,1449862705835,1449862706281,335,475,0,0,0,0,1,1,1,0005-00-0001-27.png,0004-00-0000-31.png
00000014,701,0,1449862707296,1449862707961,913,476,0,0,0,1,2,1,3,0004-00-0000-30.png,0003-00-0000-36.png
00000014,702,0,1449862711492,1449862711935,966,475,0,0,0,2,3,1,5,0003-00-0001-31.png,0002-00-0001-59.png
00000014,703,1,1449862715030,1449862715594,876,554,0,0,0,4,3,1,7,0001-00-0000-06.png,0002-00-0000-46.png
00000014,704,0,1449862716591,1449862717201,892,480,0,0,0,3,4,1,7,0002-00-0001-54.png,0001-00-0000-77.png
00000014,705,1,1449862720544,1449862721002,898,538,0,0,0,3,2,1,5,0002-00-0001-74.png,0003-00-0000-35.png
00000014,706,1,1449862722542,1449862723024,900,476,0,0,0,4,3,1,7,0001-00-0000-50.png,0002-00-0000-38.png
00000014,707,0,1449862724115,1449862724557,401,462,0,0,0,1,0,1,1,0004-00-0001-23.png,0005-00-0001-63.png
00000014,708,1,1449862727713,1449862728144,952,462,0,0,0,2,1,1,3,0003-00-0001-51.png,0004-00-0001-23.png
00000014,709,0,1449862729183,1449862729642,895,493,0,0,0,3,4,1,7,0002-00-0000-83.png,0001-00-0000-81.png
00000014,710,0,1449862733446,1449862733917,900,423,0,0,0,0,1,1,1,0005-00-0000-76.png,0004-00-0000-28.png
00000014,711,0,1449862737540,1449862737948,963,476,0,0,0,2,3,1,5,0003-00-0000-68.png,0002-00-0000-14.png
00000014,712,0,1449862740907,1449862741334,874,555,0,0,0,1,2,1,3,0004-00-0001-82.png,0003-00-0000-15.png
00000014,713,1,1449862744368,1449862744790,890,470,0,0,0,2,1,1,3,0003-00-0001-19.png,0004-00-0001-45.png
00000014,714,1,1449862745780,1449862746327,921,479,0,0,0,1,0,1,1,0004-00-0001-61.png,0005-00-0000-13.png
00000014,715,1,1449862747296,1449862747833,886,502,0,0,0,3,2,1,5,0002-00-0000-11.png,0003-00-0000-56.png
00000014,716,1,1449862748891,1449862748907,513,497,0,0,0,2,3,1,5,0003-00-0000-54.png,0002-00-0001-93.png
00000014,717,1,1449862750134,1449862750588,377,495,0,0,0,0,1,1,1,0005-00-0001-35.png,0004-00-0000-47.png
00000014,718,0,1449862751656,1449862752167,873,508,0,0,0,3,4,1,7,0002-00-0000-36.png,0001-00-0000-82.png
00000014,719,1,1449862755062,1449862756163,414,410,0,0,0,1,2,1,3,0004-00-0000-88.png,0003-00-0000-25.png
00000014,720,0,1449862757139,1449862757618,366,507,0,0,0,4,3,1,7,0001-00-0001-42.png,0002-00-0000-86.png
00000014,721,1,1449862760670,1449862761186,367,436,0,0,0,0,1,1,1,0005-00-0000-86.png,0004-00-0000-71.png
00000014,722,1,1449862762167,1449862762791,913,527,0,0,0,2,1,1,3,0003-00-0001-98.png,0004-00-0000-66.png
00000014,723,1,1449862763833,1449862764749,376,448,0,0,0,1,2,1,3,0004-00-0001-63.png,0003-00-0001-15.png
00000014,724,0,1449862766303,1449862766795,869,471,0,0,0,3,4,1,7,0002-00-0001-75.png,0001-00-0001-45.png
00000014,725,1,1449862770033,1449862770448,931,453,0,0,0,3,2,1,5,0002-00-0000-38.png,0003-00-0000-28.png
00000014,726,1,1449862771431,1449862772057,899,465,0,0,0,1,0,1,1,0004-00-0001-65.png,0005-00-0000-54.png
00000014,727,0,1449862773085,1449862773523,401,462,0,0,0,4,3,1,7,0001-00-0000-09.png,0002-00-0001-40.png
00000014,728,0,1449862776852,1449862777276,901,528,0,0,0,2,3,1,5,0003-00-0000-37.png,0002-00-0000-84.png
00000014,729,0,1449862780228,1449862780703,952,423,0,0,0,2,3,1,5,0003-00-0000-84.png,0002-00-0000-61.png
00000014,730,0,1449862783709,1449862784144,874,527,0,0,0,3,4,1,7,0002-00-0000-89.png,0001-00-0001-28.png
00000014,731,1,1449862787417,1449862787824,900,507,0,0,0,1,0,1,1,0004-00-0000-66.png,0005-00-0001-06.png
00000014,732,1,1449862788795,1449862789255,411,560,0,0,0,0,1,1,1,0005-00-0000-85.png,0004-00-0000-06.png
00000014,733,1,1449862790198,1449862790242,520,488,0,0,0,1,2,1,3,0004-00-0000-09.png,0003-00-0000-05.png
00000014,734,1,1449862791363,1449862792176,874,475,0,0,0,3,2,1,5,0002-00-0000-64.png,0003-00-0000-04.png
00000014,735,1,1449862793270,1449862793814,900,490,0,0,0,2,1,1,3,0003-00-0001-84.png,0004-00-0000-65.png
00000014,736,0,1449862795063,1449862796141,395,435,0,0,0,4,3,1,7,0001-00-0001-47.png,0002-00-0000-12.png
00000014,737,1,1449862799732,1449862800239,954,493,0,0,0,3,2,1,5,0002-00-0000-91.png,0003-00-0001-57.png
00000014,738,1,1449862801274,1449862801957,446,430,0,0,0,0,1,1,1,0005-00-0001-69.png,0004-00-0001-57.png
00000014,739,1,1449862803091,1449862803542,385,497,0,0,0,3,4,1,7,0002-00-0001-08.png,0001-00-0000-24.png
00000014,740,0,1449862804620,1449862805375,422,444,0,0,0,4,3,1,7,0001-00-0000-23.png,0002-00-0000-19.png
00000014,741,0,1449862808606,1449862809034,976,410,0,0,0,2,3,1,5,0003-00-0001-13.png,0002-00-0001-09.png
00000014,742,1,1449862811955,1449862812404,911,529,0,0,0,2,1,1,3,0003-00-0001-20.png,0004-00-0001-98.png
00000014,743,1,1449862813842,1449862814409,901,488,0,0,0,1,0,1,1,0004-00-0001-92.png,0005-00-0000-95.png
00000014,744,0,1449862815395,1449862815942,913,502,0,0,0,1,2,1,3,0004-00-0001-84.png,0003-00-0001-14.png
00000014,745,1,1449862818874,1449862819369,438,462,0,0,0,0,1,1,1,0005-00-0000-19.png,0004-00-0000-06.png
00000014,746,0,1449862820414,1449862821176,908,474,0,0,0,3,4,1,7,0002-00-0001-43.png,0001-00-0001-51.png
00000014,747,1,1449862824667,1449862825097,938,474,0,0,0,4,3,1,7,0001-00-0000-20.png,0002-00-0000-37.png
00000014,748,1,1449862826120,1449862826636,888,502,0,0,0,2,1,1,3,0003-00-0001-21.png,0004-00-0000-41.png
00000014,749,1,1449862828056,1449862828569,355,487,0,0,0,1,2,1,3,0004-00-0001-13.png,0003-00-0001-28.png
00000014,750,1,1449862829668,1449862830588,389,424,0,0,0,2,3,1,5,0003-00-0000-94.png,0002-00-0000-73.png
00000014,751,1,1449862831646,1449862832154,888,475,0,0,0,3,2,1,5,0002-00-0000-25.png,0003-00-0000-05.png
00000014,752,1,1449862833177,1449862833709,886,476,0,0,0,1,0,1,1,0004-00-0000-63.png,0005-00-0001-29.png
00000014,753,1,1449862834737,1449862835284,427,436,0,0,0,1,2,1,3,0004-00-0000-88.png,0003-00-0000-05.png
00000014,754,0,1449862836374,1449862837335,876,435,0,0,0,2,3,1,5,0003-00-0001-34.png,0002-00-0000-69.png
00000014,755,1,1449862840562,1449862840934,905,401,0,0,0,3,2,1,5,0002-00-0000-60.png,0003-00-0001-89.png
00000014,756,1,1449862841970,1449862842377,407,483,0,0,0,0,1,1,1,0005-00-0000-68.png,0004-00-0001-97.png
00000014,757,1,1449862843394,1449862843989,890,492,0,0,0,2,1,1,3,0003-00-0001-01.png,0004-00-0000-26.png
00000014,758,1,1449862844962,1449862845491,873,458,0,0,0,1,0,1,1,0004-00-0001-33.png,0005-00-0001-69.png
00000014,759,0,1449862846572,1449862847605,926,450,0,0,0,3,4,1,7,0002-00-0001-62.png,0001-00-0000-32.png
00000014,760,1,1449862850548,1449862851046,961,472,0,0,0,4,3,1,7,0001-00-0000-89.png,0002-00-0001-68.png
00000014,761,0,1449862852018,1449862852592,880,480,0,0,0,3,4,1,7,0002-00-0000-64.png,0001-00-0001-90.png
00000014,762,0,1449862855849,1449862856286,951,463,0,0,0,2,3,1,5,0003-00-0000-70.png,0002-00-0001-33.png
00000014,763,1,1449862859345,1449862859759,941,422,0,0,0,1,0,1,1,0004-00-0000-39.png,0005-00-0001-95.png
00000014,764,0,1449862860744,1449862861392,900,463,0,0,0,0,1,1,1,0005-00-0001-53.png,0004-00-0001-10.png
00000014,765,1,1449862864551,1449862865048,947,489,0,0,0,4,3,1,7,0001-00-0001-35.png,0002-00-0001-17.png
00000014,766,1,1449862866033,1449862866900,876,500,0,0,0,3,2,1,5,0002-00-0001-45.png,0003-00-0000-60.png
00000014,767,1,1449862867961,1449862868506,894,480,0,0,0,2,1,1,3,0003-00-0000-12.png,0004-00-0000-65.png
00000014,768,0,1449862869555,1449862870087,875,450,0,0,0,1,2,1,3,0004-00-0001-62.png,0003-00-0001-29.png
00000014,769,1,1449862873064,1449862873511,863,419,0,0,0,2,1,1,3,0003-00-0000-29.png,0004-00-0000-58.png
00000014,770,1,1449862874494,1449862874974,367,465,0,0,0,0,1,1,1,0005-00-0001-93.png,0004-00-0000-89.png
00000014,771,1,1449862876031,1449862876478,377,488,0,0,0,1,2,1,3,0004-00-0000-89.png,0003-00-0001-01.png
00000014,772,1,1449862877692,1449862878207,873,483,0,0,0,4,3,1,7,0001-00-0001-50.png,0002-00-0000-82.png
00000014,773,1,1449862879204,1449862880247,924,483,0,0,0,3,2,1,5,0002-00-0000-07.png,0003-00-0000-52.png
00000014,774,0,1449862881274,1449862881715,362,475,0,0,0,1,0,1,1,0004-00-0000-77.png,0005-00-0001-64.png
00000014,775,0,1449862884883,1449862885339,899,541,0,0,0,3,4,1,7,0002-00-0001-76.png,0001-00-0001-83.png
00000014,776,0,1449862892193,1449862892596,951,464,0,0,0,2,3,1,5,0003-00-0000-91.png,0002-00-0000-79.png
00000014,777,1,1449862895882,1449862896376,365,440,0,0,0,0,1,1,1,0005-00-0001-39.png,0004-00-0000-73.png
00000014,778,1,1449862897363,1449862897931,898,483,0,0,0,3,2,1,5,0002-00-0001-59.png,0003-00-0001-85.png
00000014,779,1,1449862898925,1449862899487,877,466,0,0,0,4,3,1,7,0001-00-0000-77.png,0002-00-0001-45.png
00000014,780,1,1449862900494,1449862900925,370,487,0,0,0,3,4,1,7,0002-00-0001-22.png,0001-00-0001-24.png
00000014,781,1,1449862902005,1449862902428,318,473,0,0,0,1,2,1,3,0004-00-0000-07.png,0003-00-0001-97.png
00000014,782,0,1449862903506,1449862904183,889,490,0,0,0,2,3,1,5,0003-00-0000-09.png,0002-00-0000-89.png
00000014,783,0,1449862907329,1449862908339,474,407,0,0,0,2,1,1,3,0003-00-0000-73.png,0004-00-0001-83.png
00000014,784,1,1449862911206,1449862911594,900,503,0,0,0,1,0,1,1,0004-00-0000-66.png,0005-00-0001-21.png
00000014,785,1,1449862912588,1449862913386,865,565,0,0,0,3,2,1,5,0002-00-0000-42.png,0003-00-0001-32.png
00000014,786,1,1449862914401,1449862915331,396,461,0,0,0,2,3,1,5,0003-00-0001-46.png,0002-00-0001-16.png
00000014,787,0,1449862916337,1449862916844,896,472,0,0,0,3,4,1,7,0002-00-0001-07.png,0001-00-0000-28.png
00000014,788,1,1449862919954,1449862920370,958,482,0,0,0,1,0,1,1,0004-00-0001-39.png,0005-00-0001-04.png
00000014,789,1,1449862921369,1449862921814,346,473,0,0,0,1,2,1,3,0004-00-0000-60.png,0003-00-0001-88.png
00000014,790,1,1449862922854,1449862923379,900,501,0,0,0,4,3,1,7,0001-00-0000-51.png,0002-00-0001-69.png
00000014,791,0,1449862924358,1449862925037,926,489,0,0,0,0,1,1,1,0005-00-0000-89.png,0004-00-0001-26.png
00000014,792,1,1449862928465,1449862928901,950,458,0,0,0,2,1,1,3,0003-00-0001-14.png,0004-00-0000-61.png
00000014,793,1,1449862929857,1449862930298,401,475,0,0,0,1,2,1,3,0004-00-0000-94.png,0003-00-0001-84.png
00000014,794,0,1449862931402,1449862931908,860,490,0,0,0,2,3,1,5,0003-00-0000-85.png,0002-00-0001-14.png
00000014,795,1,1449862934992,1449862935419,965,423,0,0,0,2,1,1,3,0003-00-0000-83.png,0004-00-0001-27.png
00000014,796,1,1449862936444,1449862936873,461,490,0,0,0,0,1,1,1,0005-00-0000-12.png,0004-00-0001-04.png
00000014,797,1,1449862937903,1449862938411,900,489,0,0,0,1,0,1,1,0004-00-0000-39.png,0005-00-0000-07.png
00000014,798,1,1449862939509,1449862939920,376,497,0,0,0,3,4,1,7,0002-00-0001-68.png,0001-00-0000-87.png
00000014,799,1,1449862941057,1449862941585,872,483,0,0,0,4,3,1,7,0001-00-0000-39.png,0002-00-0001-00.png
00000014,800,1,1449862942757,1449862943343,901,476,0,0,0,3,2,1,5,0002-00-0000-26.png,0003-00-0000-33.png
00000014,801,0,1449862944398,1449862944985,901,469,0,0,0,1,2,1,3,0004-00-0001-91.png,0003-00-0000-00.png
00000014,802,1,1449862947835,1449862948306,951,475,0,0,0,1,0,1,1,0004-00-0000-19.png,0005-00-0001-78.png
00000014,803,1,1449862949344,1449862949847,876,494,0,0,0,2,1,1,3,0003-00-0000-27.png,0004-00-0001-72.png
00000014,804,1,1449862951286,1449862951741,427,514,0,0,0,3,4,1,7,0002-00-0001-91.png,0001-00-0001-75.png
00000014,805,1,1449862952926,1449862953536,381,447,0,0,0,0,1,1,1,0005-00-0001-59.png,0004-00-0001-96.png
00000014,806,1,1449862954714,1449862955215,873,483,0,0,0,3,2,1,5,0002-00-0000-49.png,0003-00-0000-34.png
00000014,807,0,1449862956235,1449862957264,944,468,0,0,0,2,3,1,5,0003-00-0000-80.png,0002-00-0001-96.png
00000014,808,1,1449862960309,1449862960746,873,461,0,0,0,4,3,1,7,0001-00-0001-90.png,0002-00-0001-55.png
00000014,809,0,1449862961771,1449862962314,863,492,0,0,0,2,3,1,5,0003-00-0001-15.png,0002-00-0001-57.png
00000014,810,1,1449862965268,1449862965776,444,443,0,0,0,0,1,1,1,0005-00-0000-24.png,0004-00-0001-30.png
00000014,811,1,1449862966729,1449862967256,874,542,0,0,0,1,0,1,1,0004-00-0000-28.png,0005-00-0001-19.png
00000014,812,1,1449862968470,1449862968990,872,484,0,0,0,3,2,1,5,0002-00-0000-04.png,0003-00-0001-03.png
00000014,813,1,1449862970328,1449862970936,907,500,0,0,0,4,3,1,7,0001-00-0000-21.png,0002-00-0000-41.png
00000014,814,1,1449862972694,1449862973156,899,475,0,0,0,2,1,1,3,0003-00-0000-12.png,0004-00-0001-52.png
00000014,815,0,1449862974435,1449862974913,874,475,0,0,0,3,4,1,7,0002-00-0001-67.png,0001-00-0001-86.png
00000014,816,0,1449862978418,1449862978796,939,475,0,0,0,1,2,1,3,0004-00-0001-79.png,0003-00-0001-72.png
00000014,817,0,1449862981977,1449862982353,964,424,0,0,0,3,4,1,7,0002-00-0001-34.png,0001-00-0001-81.png
00000014,818,1,1449862985904,1449862986316,951,464,0,0,0,1,0,1,1,0004-00-0000-32.png,0005-00-0000-86.png
00000014,819,1,1449862987485,1449862988006,926,488,0,0,0,2,1,1,3,0003-00-0000-16.png,0004-00-0001-48.png
00000014,820,0,1449862989025,1449862989418,386,507,0,0,0,3,2,1,5,0002-00-0000-20.png,0003-00-0001-52.png
00000014,821,1,1449862992333,1449862992925,427,410,0,0,0,1,2,1,3,0004-00-0000-90.png,0003-00-0001-14.png
00000014,822,0,1449862993894,1449862994427,877,495,0,0,0,2,3,1,5,0003-00-0001-40.png,0002-00-0000-62.png
00000014,823,1,1449862997733,1449862998132,878,458,0,0,0,4,3,1,7,0001-00-0000-35.png,0002-00-0000-31.png
00000014,824,1,1449862999141,1449862999572,401,476,0,0,0,0,1,1,1,0005-00-0000-75.png,0004-00-0001-16.png
00000014,825,1,1449863000620,1449863001118,876,487,0,0,0,3,2,1,5,0002-00-0000-78.png,0003-00-0000-14.png
00000014,826,0,1449863002102,1449863003039,470,446,0,0,0,4,3,1,7,0001-00-0000-71.png,0002-00-0001-03.png
00000014,827,0,1449863005961,1449863006390,924,521,0,0,0,2,3,1,5,0003-00-0001-35.png,0002-00-0001-24.png
00000014,828,0,1449863010063,1449863010527,901,554,0,0,0,3,4,1,7,0002-00-0000-82.png,0001-00-0000-80.png
00000014,829,1,1449863014495,1449863014934,930,495,0,0,0,2,1,1,3,0003-00-0000-42.png,0004-00-0000-18.png
00000014,830,0,1449863015996,1449863016542,899,500,0,0,0,1,2,1,3,0004-00-0001-93.png,0003-00-0001-49.png
00000014,831,1,1449863020002,1449863020420,952,488,0,0,0,1,0,1,1,0004-00-0001-11.png,0005-00-0001-34.png
00000014,832,1,1449863021553,1449863021951,410,467,0,0,0,0,1,1,1,0005-00-0000-27.png,0004-00-0000-21.png
00000014,833,1,1449863023013,1449863023458,897,481,0,0,0,1,0,1,1,0004-00-0001-97.png,0005-00-0000-86.png
00000014,834,1,1449863024537,1449863025068,888,501,0,0,0,3,2,1,5,0002-00-0000-75.png,0003-00-0000-18.png
00000014,835,0,1449863026078,1449863026588,874,463,0,0,0,2,3,1,5,0003-00-0000-33.png,0002-00-0000-30.png
00000014,836,1,1449863029734,1449863030119,953,443,0,0,0,2,1,1,3,0003-00-0000-81.png,0004-00-0000-33.png
00000014,837,1,1449863031166,1449863031609,464,502,0,0,0,0,1,1,1,0005-00-0000-28.png,0004-00-0001-65.png
00000014,838,0,1449863032807,1449863033381,879,480,0,0,0,3,4,1,7,0002-00-0001-68.png,0001-00-0000-83.png
00000014,839,0,1449863036752,1449863037130,914,501,0,0,0,1,2,1,3,0004-00-0001-72.png,0003-00-0000-28.png
00000014,840,1,1449863040308,1449863040708,876,436,0,0,0,4,3,1,7,0001-00-0000-05.png,0002-00-0001-37.png
00000014,841,1,1449863041687,1449863042201,900,490,0,0,0,1,0,1,1,0004-00-0000-35.png,0005-00-0000-35.png
00000014,842,0,1449863043263,1449863043797,862,485,0,0,0,3,4,1,7,0002-00-0000-21.png,0001-00-0000-78.png
00000014,843,1,1449863046768,1449863047196,904,558,0,0,0,3,2,1,5,0002-00-0001-46.png,0003-00-0000-79.png
00000014,844,1,1449863048242,1449863048833,465,555,0,0,0,0,1,1,1,0005-00-0000-50.png,0004-00-0001-11.png
00000014,845,0,1449863049921,1449863050376,338,501,0,0,0,4,3,1,7,0001-00-0001-66.png,0002-00-0001-76.png
00000014,846,0,1449863053340,1449863053758,939,476,0,0,0,2,3,1,5,0003-00-0001-36.png,0002-00-0001-91.png
00000014,847,1,1449863057057,1449863057479,915,530,0,0,0,2,1,1,3,0003-00-0001-10.png,0004-00-0000-18.png
00000014,848,1,1449863058520,1449863058947,446,479,0,0,0,1,2,1,3,0004-00-0000-02.png,0003-00-0000-08.png
00000014,849,1,1449863060381,1449863060779,415,475,0,0,0,0,1,1,1,0005-00-0001-34.png,0004-00-0001-37.png
00000014,850,0,1449863061868,1449863062317,478,527,0,0,0,4,3,1,7,0001-00-0000-89.png,0002-00-0001-12.png
00000014,851,1,1449863065355,1449863065791,899,543,0,0,0,2,1,1,3,0003-00-0001-46.png,0004-00-0001-26.png
00000014,852,1,1449863066793,1449863067459,372,480,0,0,0,1,2,1,3,0004-00-0000-90.png,0003-00-0001-89.png
00000014,853,0,1449863068524,1449863069052,887,477,0,0,0,2,3,1,5,0003-00-0000-82.png,0002-00-0000-01.png
00000014,854,0,1449863072441,1449863072886,862,473,0,0,0,3,4,1,7,0002-00-0001-98.png,0001-00-0000-01.png
00000014,855,1,1449863076166,1449863076610,939,492,0,0,0,1,0,1,1,0004-00-0001-52.png,0005-00-0000-22.png
00000014,856,1,1449863077559,1449863078041,922,498,0,0,0,3,2,1,5,0002-00-0001-19.png,0003-00-0000-66.png
00000014,857,1,1449863079218,1449863079665,387,446,0,0,0,0,1,1,1,0005-00-0000-45.png,0004-00-0000-74.png
00000014,858,1,1449863080723,1449863081205,427,462,0,0,0,1,2,1,3,0004-00-0001-25.png,0003-00-0001-69.png
00000014,859,1,1449863082330,1449863082889,899,483,0,0,0,4,3,1,7,0001-00-0000-65.png,0002-00-0001-51.png
00000014,860,1,1449863084455,1449863084911,875,502,0,0,0,1,0,1,1,0004-00-0000-35.png,0005-00-0000-42.png
00000014,861,0,1449863085921,1449863086862,401,554,0,0,0,3,2,1,5,0002-00-0001-86.png,0003-00-0000-53.png
00000014,862,0,1449863090244,1449863090675,896,551,0,0,0,3,4,1,7,0002-00-0001-37.png,0001-00-0001-42.png
00000014,863,1,1449863093623,1449863094048,950,457,0,0,0,2,1,1,3,0003-00-0001-96.png,0004-00-0000-16.png
00000014,864,0,1449863095073,1449863095602,875,560,0,0,0,2,3,1,5,0003-00-0001-24.png,0002-00-0001-05.png
00000014,865,0,1449863098439,1449863098937,896,498,0,0,0,3,4,1,7,0002-00-0000-55.png,0001-00-0001-79.png
00000014,866,1,1449863101800,1449863102325,964,398,0,0,0,2,1,1,3,0003-00-0001-03.png,0004-00-0000-25.png
00000014,867,1,1449863103293,1449863103747,339,451,0,0,0,1,2,1,3,0004-00-0001-13.png,0003-00-0000-25.png
00000014,868,1,1449863104805,1449863105362,901,488,0,0,0,4,3,1,7,0001-00-0000-88.png,0002-00-0001-15.png
00000014,869,1,1449863106365,1449863106928,896,472,0,0,0,1,0,1,1,0004-00-0000-37.png,0005-00-0001-38.png
00000014,870,0,1449863107904,1449863108366,367,520,0,0,0,3,2,1,5,0002-00-0001-25.png,0003-00-0000-63.png
00000014,871,0,1449863111443,1449863112231,904,427,0,0,0,2,3,1,5,0003-00-0001-93.png,0002-00-0001-20.png
00000014,872,0,1449863115450,1449863115871,949,486,0,0,0,0,1,1,1,0005-00-0001-15.png,0004-00-0001-65.png
00000014,873,1,1449863119221,1449863119616,943,477,0,0,0,3,2,1,5,0002-00-0000-34.png,0003-00-0001-11.png
00000014,874,0,1449863120646,1449863121171,899,490,0,0,0,3,4,1,7,0002-00-0001-43.png,0001-00-0000-17.png
00000014,875,1,1449863124404,1449863124870,940,469,0,0,0,2,1,1,3,0003-00-0001-77.png,0004-00-0001-71.png
00000014,876,0,1449863125875,1449863125899,504,505,0,0,0,4,3,1,7,0001-00-0001-52.png,0002-00-0001-13.png
00000014,877,1,1449863129095,1449863129611,390,550,0,0,0,0,1,1,1,0005-00-0001-96.png,0004-00-0000-34.png
00000014,878,1,1449863130647,1449863131274,382,456,0,0,0,1,2,1,3,0004-00-0001-72.png,0003-00-0000-89.png
00000014,879,0,1449863132336,1449863132880,887,502,0,0,0,2,3,1,5,0003-00-0001-44.png,0002-00-0001-79.png
00000014,880,1,1449863136121,1449863136557,972,497,0,0,0,1,0,1,1,0004-00-0000-41.png,0005-00-0001-67.png
00000014,881,1,1449863137553,1449863138071,898,509,0,0,0,3,2,1,5,0002-00-0001-19.png,0003-00-0001-81.png
00000014,882,1,1449863139057,1449863139790,367,438,0,0,0,3,4,1,7,0002-00-0000-71.png,0001-00-0001-30.png
00000014,883,1,1449863140810,1449863140838,504,514,0,0,0,2,3,1,5,0003-00-0000-66.png,0002-00-0001-56.png
00000014,884,1,1449863142046,1449863142474,417,514,0,0,0,1,2,1,3,0004-00-0000-44.png,0003-00-0000-75.png
00000014,885,1,1449863143694,1449863144248,875,514,0,0,0,1,0,1,1,0004-00-0001-79.png,0005-00-0001-21.png
00000014,886,0,1449863145397,1449863145849,358,522,0,0,0,4,3,1,7,0001-00-0001-77.png,0002-00-0001-13.png
00000014,887,1,1449863148694,1449863149156,420,445,0,0,0,0,1,1,1,0005-00-0000-47.png,0004-00-0000-38.png
00000014,888,1,1449863150228,1449863150748,898,481,0,0,0,2,1,1,3,0003-00-0001-11.png,0004-00-0000-16.png
00000014,889,1,1449863152234,1449863152760,899,490,0,0,0,2,1,1,3,0003-00-0001-19.png,0004-00-0000-55.png
00000014,890,1,1449863153876,1449863154393,901,496,0,0,0,1,0,1,1,0004-00-0001-88.png,0005-00-0001-06.png
00000014,891,0,1449863155418,1449863155958,875,490,0,0,0,2,3,1,5,0003-00-0000-19.png,0002-00-0001-84.png
00000014,892,0,1449863158962,1449863159449,974,486,0,0,0,1,2,1,3,0004-00-0001-12.png,0003-00-0000-70.png
00000014,893,1,1449863163037,1449863163561,931,529,0,0,0,4,3,1,7,0001-00-0000-98.png,0002-00-0000-20.png
00000014,894,0,1449863164538,1449863165179,898,535,0,0,0,0,1,1,1,0005-00-0000-71.png,0004-00-0001-12.png
00000014,895,0,1449863168325,1449863168740,959,475,0,0,0,3,4,1,7,0002-00-0001-01.png,0001-00-0000-72.png
00000014,896,1,1449863172262,1449863172676,953,467,0,0,0,3,2,1,5,0002-00-0000-45.png,0003-00-0000-67.png
00000014,897,1,1449863173670,1449863174234,875,489,0,0,0,4,3,1,7,0001-00-0000-77.png,0002-00-0001-37.png
00000014,898,0,1449863175192,1449863176153,891,466,0,0,0,2,3,1,5,0003-00-0001-18.png,0002-00-0000-07.png
00000014,899,0,1449863179098,1449863179513,952,462,0,0,0,3,4,1,7,0002-00-0001-15.png,0001-00-0001-10.png
00000014,900,1,1449863182457,1449863182884,993,429,0,0,0,2,1,1,3,0003-00-0000-04.png,0004-00-0000-76.png
00000014,901,0,1449863183911,1449863184363,338,476,0,0,0,3,2,1,5,0002-00-0000-50.png,0003-00-0000-89.png
00000014,902,1,1449863187508,1449863188035,364,451,0,0,0,1,2,1,3,0004-00-0000-60.png,0003-00-0001-67.png
00000014,903,1,1449863189336,1449863189764,354,480,0,0,0,0,1,1,1,0005-00-0000-78.png,0004-00-0000-25.png
00000014,904,1,1449863190719,1449863191309,901,488,0,0,0,1,0,1,1,0004-00-0000-64.png,0005-00-0001-12.png
00000014,905,1,1449863192286,1449863192713,413,508,0,0,0,2,3,1,5,0003-00-0001-87.png,0002-00-0001-95.png
00000014,906,0,1449863193780,1449863194298,873,481,0,0,0,3,4,1,7,0002-00-0000-02.png,0001-00-0000-03.png
00000014,907,1,1449863201751,1449863202237,896,489,0,0,0,4,3,1,7,0001-00-0000-62.png,0002-00-0001-17.png
00000014,908,0,1449863203347,1449863203817,391,498,0,0,0,1,0,1,1,0004-00-0000-28.png,0005-00-0001-21.png
00000014,909,0,1449863208817,1449863209253,951,465,0,0,0,0,1,1,1,0005-00-0000-89.png,0004-00-0000-20.png
00000014,910,1,1449863213925,1449863214371,923,487,0,0,0,2,1,1,3,0003-00-0000-12.png,0004-00-0000-46.png
00000014,911,1,1449863215872,1449863216428,899,483,0,0,0,3,2,1,5,0002-00-0000-79.png,0003-00-0001-15.png
00000014,912,0,1449863217451,1449863218008,876,486,0,0,0,1,2,1,3,0004-00-0001-63.png,0003-00-0001-80.png
00000014,913,0,1449863223947,1449863224397,918,428,0,0,0,2,3,1,5,0003-00-0000-54.png,0002-00-0000-54.png
00000014,914,1,1449863233378,1449863233770,902,467,0,0,0,3,2,1,5,0002-00-0000-48.png,0003-00-0001-12.png
00000014,915,1,1449863235002,1449863235519,399,539,0,0,0,1,2,1,3,0004-00-0000-55.png,0003-00-0000-69.png
00000014,916,1,1449863236986,1449863237451,920,473,0,0,0,1,0,1,1,0004-00-0001-89.png,0005-00-0001-01.png
00000014,917,0,1449863238330,1449863238846,863,449,0,0,0,3,4,1,7,0002-00-0001-59.png,0001-00-0000-37.png
00000014,918,1,1449863243965,1449863244442,414,462,0,0,0,0,1,1,1,0005-00-0001-90.png,0004-00-0001-06.png
00000014,919,0,1449863245607,1449863246568,439,543,0,0,0,2,1,1,3,0003-00-0001-58.png,0004-00-0000-97.png
00000014,920,0,1449863249899,1449863250494,375,462,0,0,0,4,3,1,7,0001-00-0001-18.png,0002-00-0001-54.png
00000014,921,0,1449863253507,1449863254046,927,450,0,0,0,3,4,1,7,0002-00-0000-25.png,0001-00-0001-78.png
00000014,922,1,1449863257533,1449863257998,938,473,0,0,0,1,0,1,1,0004-00-0001-40.png,0005-00-0000-15.png
00000014,923,0,1449863259655,1449863260206,899,491,0,0,0,0,1,1,1,0005-00-0001-39.png,0004-00-0000-93.png
00000014,924,0,1449863263645,1449863264128,387,452,0,0,0,2,1,1,3,0003-00-0001-97.png,0004-00-0001-08.png
00000014,925,1,1449863268976,1449863269479,926,463,0,0,0,3,2,1,5,0002-00-0001-27.png,0003-00-0000-70.png
00000014,926,1,1449863270769,1449863272116,401,412,0,0,0,2,3,1,5,0003-00-0000-90.png,0002-00-0001-88.png
00000014,927,0,1449863273820,1449863274318,907,496,0,0,0,1,2,1,3,0004-00-0000-95.png,0003-00-0000-19.png
00000014,928,0,1449863278344,1449863278783,408,438,0,0,0,4,3,1,7,0001-00-0001-18.png,0002-00-0000-78.png
00000014,929,0,1449863282129,1449863282908,388,396,0,0,0,3,2,1,5,0002-00-0001-33.png,0003-00-0001-23.png
00000014,930,1,1449863286579,1449863287091,369,461,0,0,0,0,1,1,1,0005-00-0001-90.png,0004-00-0000-60.png
00000014,931,1,1449863288637,1449863289254,863,553,0,0,0,4,3,1,7,0001-00-0000-18.png,0002-00-0000-39.png
00000014,932,1,1449863290642,1449863291168,918,471,0,0,0,2,1,1,3,0003-00-0001-08.png,0004-00-0000-03.png
00000014,933,1,1449863292134,1449863293061,387,422,0,0,0,3,4,1,7,0002-00-0001-99.png,0001-00-0001-97.png
00000014,934,0,1449863294098,1449863294539,905,506,0,0,0,2,3,1,5,0003-00-0000-18.png,0002-00-0001-85.png
00000014,935,0,1449863300667,1449863301044,951,438,0,0,0,1,2,1,3,0004-00-0001-18.png,0003-00-0000-85.png
00000014,936,1,1449863304802,1449863305270,925,498,0,0,0,1,0,1,1,0004-00-0001-16.png,0005-00-0000-80.png
00000014,937,1,1449863306482,1449863307064,927,511,0,0,0,2,1,1,3,0003-00-0001-35.png,0004-00-0000-28.png
00000014,938,1,1449863308999,1449863309421,922,470,0,0,0,3,2,1,5,0002-00-0001-71.png,0003-00-0000-21.png
00000014,939,1,1449863310576,1449863311070,911,503,0,0,0,1,0,1,1,0004-00-0001-52.png,0005-00-0000-80.png
00000014,940,1,1449863312107,1449863312554,363,477,0,0,0,0,1,1,1,0005-00-0000-39.png,0004-00-0001-10.png
00000014,941,0,1449863313661,1449863314175,898,482,0,0,0,2,3,1,5,0003-00-0001-68.png,0002-00-0000-48.png
00000014,942,0,1449863318578,1449863319031,875,423,0,0,0,3,4,1,7,0002-00-0000-40.png,0001-00-0001-22.png
00000014,943,1,1449863322601,1449863323015,956,480,0,0,0,4,3,1,7,0001-00-0001-52.png,0002-00-0000-40.png
00000014,944,0,1449863324116,1449863324621,898,484,0,0,0,1,2,1,3,0004-00-0000-40.png,0003-00-0001-01.png
00000014,945,0,1449863327861,1449863328611,951,463,0,0,0,3,4,1,7,0002-00-0001-06.png,0001-00-0000-43.png
00000014,946,0,1449863332226,1449863332658,942,493,0,0,0,2,3,1,5,0003-00-0000-69.png,0002-00-0000-19.png
00000014,947,1,1449863336659,1449863337140,948,489,0,0,0,2,1,1,3,0003-00-0001-50.png,0004-00-0000-71.png
00000014,948,1,1449863338316,1449863338799,900,463,0,0,0,3,2,1,5,0002-00-0001-71.png,0003-00-0000-44.png
00000014,949,0,1449863339910,1449863340843,446,531,0,0,0,4,3,1,7,0001-00-0001-17.png,0002-00-0000-51.png
00000014,950,1,1449863343899,1449863344373,883,472,0,0,0,1,0,1,1,0004-00-0001-63.png,0005-00-0001-66.png
00000014,951,1,1449863345799,1449863346271,422,486,0,0,0,1,2,1,3,0004-00-0000-93.png,0003-00-0001-32.png
