subject_id,trial,correct_response,stim_time,response_time,x_coord,y_coord,trial_timeout,timeout_time,interTrial_timeout,left_rank,right_rank,distance,joint_rank,left_image,right_image
00000009,1,1,1449677425495,1449677425503,867,275,0,0,0,4,3,1,7,0001-00-0000-68.png,0002-00-0000-32.png
00000009,2,1,1449677426781,1449677426809,916,311,0,0,0,2,1,1,3,0003-00-0000-36.png,0004-00-0001-56.png
00000009,3,0,1449677427844,1449677427860,864,289,0,0,0,2,3,1,5,0003-00-0000-04.png,0002-00-0001-14.png
00000009,4,0,1449677430985,1449677431780,961,355,0,0,0,0,1,1,1,0005-00-0000-92.png,0004-00-0000-29.png
00000009,5,0,1449677434860,1449677435387,1041,244,0,0,0,3,4,1,7,0002-00-0001-80.png,0001-00-0001-92.png
00000009,6,0,1449677438557,1449677439272,1066,275,0,0,0,1,2,1,3,0004-00-0001-19.png,0003-00-0000-56.png
00000009,7,1,1449677442314,1449677442334,870,306,0,0,0,1,0,1,1,0004-00-0001-34.png,0005-00-0000-45.png
00000009,8,1,1449677443429,1449677444445,964,331,0,0,0,3,2,1,5,0002-00-0000-06.png,0003-00-0001-87.png
00000009,9,1,1449677445583,1449677445715,874,558,0,0,0,2,1,1,3,0003-00-0000-75.png,0004-00-0001-44.png
00000009,10,1,1449677446816,1449677447941,1036,262,0,0,0,3,2,1,5,0002-00-0001-83.png,0003-00-0000-99.png
00000009,11,0,1449677448954,1449677449887,952,351,0,0,0,3,4,1,7,0002-00-0001-80.png,0001-00-0000-48.png
00000009,12,0,1449677452838,1449677452866,1008,367,0,0,0,0,1,1,1,0005-00-0001-32.png,0004-00-0001-61.png
00000009,13,0,1449677455929,1449677455937,911,307,0,0,0,2,3,1,5,0003-00-0001-15.png,0002-00-0000-09.png
00000009,14,1,1449677458788,1449677458804,862,358,0,0,0,4,3,1,7,0001-00-0000-55.png,0002-00-0000-30.png
00000009,15,1,1449677459838,1449677460690,939,370,0,0,0,1,0,1,1,0004-00-0001-50.png,0005-00-0001-77.png
00000009,16,1,1449677461615,1449677462782,455,219,0,0,0,1,2,1,3,0004-00-0000-81.png,0003-00-0001-19.png
00000009,17,1,1449677463731,1449677464676,461,252,0,0,0,3,4,1,7,0002-00-0001-04.png,0001-00-0001-99.png
00000009,18,1,1449677465638,1449677466555,939,303,0,0,0,4,3,1,7,0001-00-0000-10.png,0002-00-0000-49.png
00000009,19,0,1449677467587,1449677468344,494,250,0,0,0,1,0,1,1,0004-00-0000-36.png,0005-00-0000-84.png
00000009,20,1,1449677471611,1449677471639,892,266,0,0,0,3,2,1,5,0002-00-0001-98.png,0003-00-0001-00.png
00000009,21,1,1449677472595,1449677473278,473,260,0,0,0,1,2,1,3,0004-00-0000-42.png,0003-00-0000-04.png
00000009,22,1,1449677474216,1449677474954,918,312,0,0,0,2,1,1,3,0003-00-0001-67.png,0004-00-0001-35.png
00000009,23,1,1449677475944,1449677476713,462,384,0,0,0,0,1,1,1,0005-00-0000-47.png,0004-00-0001-72.png
00000009,24,1,1449677477702,1449677478785,469,248,0,0,0,2,3,1,5,0003-00-0000-60.png,0002-00-0001-27.png
00000009,25,1,1449677479751,1449677480678,989,227,0,0,0,2,1,1,3,0003-00-0001-15.png,0004-00-0000-06.png
00000009,26,0,1449677481806,1449677482729,922,332,0,0,0,2,3,1,5,0003-00-0001-67.png,0002-00-0001-48.png
00000009,27,0,1449677485943,1449677486665,963,359,0,0,0,0,1,1,1,0005-00-0001-88.png,0004-00-0001-35.png
00000009,28,0,1449677489765,1449677489940,880,430,0,0,0,1,2,1,3,0004-00-0000-02.png,0003-00-0000-40.png
00000009,29,0,1449677493116,1449677493726,1067,317,0,0,0,3,4,1,7,0002-00-0000-84.png,0001-00-0000-84.png
00000009,30,1,1449677496881,1449677496901,875,322,0,0,0,3,2,1,5,0002-00-0000-61.png,0003-00-0000-89.png
00000009,31,1,1449677497884,1449677498825,905,332,0,0,0,4,3,1,7,0001-00-0001-20.png,0002-00-0000-31.png
00000009,32,1,1449677499771,1449677500534,913,314,0,0,0,1,0,1,1,0004-00-0000-65.png,0005-00-0001-90.png
00000009,33,1,1449677501600,1449677501680,869,428,0,0,0,4,3,1,7,0001-00-0001-67.png,0002-00-0000-75.png
00000009,34,1,1449677502820,1449677503812,486,246,0,0,0,2,3,1,5,0003-00-0001-22.png,0002-00-0000-55.png
00000009,35,1,1449677504763,1449677505456,875,294,0,0,0,1,0,1,1,0004-00-0001-00.png,0005-00-0000-56.png
00000009,36,1,1449677506438,1449677507330,457,233,0,0,0,1,2,1,3,0004-00-0001-64.png,0003-00-0000-70.png
00000009,37,1,1449677508396,1449677509242,900,316,0,0,0,3,2,1,5,0002-00-0000-68.png,0003-00-0000-79.png
00000009,38,1,1449677510212,1449677510972,412,377,0,0,0,3,4,1,7,0002-00-0000-39.png,0001-00-0000-92.png
00000009,39,1,1449677511984,1449677512806,994,253,0,0,0,2,1,1,3,0003-00-0001-49.png,0004-00-0000-47.png
00000009,40,1,1449677513752,1449677514551,371,374,0,0,0,0,1,1,1,0005-00-0000-29.png,0004-00-0001-16.png
00000009,41,1,1449677515581,1449677516275,939,344,0,0,0,2,1,1,3,0003-00-0001-78.png,0004-00-0001-20.png
00000009,42,0,1449677517360,1449677517404,883,418,0,0,0,0,1,1,1,0005-00-0000-30.png,0004-00-0001-79.png
00000009,43,0,1449677520564,1449677520604,893,384,0,0,0,3,4,1,7,0002-00-0001-38.png,0001-00-0000-59.png
00000009,44,1,1449677523681,1449677523908,953,383,0,0,0,3,2,1,5,0002-00-0000-84.png,0003-00-0001-47.png
00000009,45,1,1449677524916,1449677525551,512,262,0,0,0,1,2,1,3,0004-00-0001-59.png,0003-00-0000-54.png
00000009,46,1,1449677527070,1449677527626,960,469,0,0,0,1,0,1,1,0004-00-0001-43.png,0005-00-0000-49.png
00000009,47,1,1449677528526,1449677529502,1016,241,0,0,0,4,3,1,7,0001-00-0001-90.png,0002-00-0001-07.png
00000009,48,1,1449677530490,1449677531339,472,228,0,0,0,2,3,1,5,0003-00-0001-52.png,0002-00-0000-55.png
00000009,49,0,1449677532398,1449677533069,427,384,0,0,0,1,0,1,1,0004-00-0000-17.png,0005-00-0001-18.png
00000009,50,0,1449677536211,1449677536239,869,300,0,0,0,3,4,1,7,0002-00-0000-37.png,0001-00-0000-81.png
00000009,51,0,1449677539226,1449677539266,957,309,0,0,0,1,2,1,3,0004-00-0000-87.png,0003-00-0000-41.png
00000009,52,1,1449677542173,1449677542779,962,428,0,0,0,2,1,1,3,0003-00-0001-34.png,0004-00-0000-76.png
00000009,53,1,1449677543667,1449677544662,964,306,0,0,0,3,2,1,5,0002-00-0001-79.png,0003-00-0001-13.png
00000009,54,0,1449677545573,1449677546341,383,325,0,0,0,4,3,1,7,0001-00-0000-66.png,0002-00-0000-38.png
00000009,55,0,1449677549501,1449677549585,919,273,0,0,0,2,3,1,5,0003-00-0000-19.png,0002-00-0000-16.png
00000009,56,0,1449677552603,1449677553219,963,410,0,0,0,0,1,1,1,0005-00-0001-78.png,0004-00-0001-25.png
00000009,57,1,1449677557323,1449677557809,990,263,0,0,0,1,0,1,1,0004-00-0000-04.png,0005-00-0001-47.png
00000009,58,0,1449677558659,1449677559436,1018,236,0,0,0,3,4,1,7,0002-00-0000-60.png,0001-00-0000-92.png
00000009,59,1,1449677562362,1449677562457,862,410,0,0,0,3,2,1,5,0002-00-0001-71.png,0003-00-0000-89.png
00000009,60,1,1449677563465,1449677564145,466,226,0,0,0,0,1,1,1,0005-00-0000-60.png,0004-00-0000-34.png
00000009,61,1,1449677565115,1449677565651,913,271,0,0,0,2,1,1,3,0003-00-0000-03.png,0004-00-0000-08.png
00000009,62,1,1449677569826,1449677570432,422,436,0,0,0,1,2,1,3,0004-00-0000-35.png,0003-00-0001-90.png
00000009,63,0,1449677571342,1449677571846,869,346,0,0,0,2,3,1,5,0003-00-0001-88.png,0002-00-0000-08.png
00000009,64,1,1449677574993,1449677575517,916,351,0,0,0,4,3,1,7,0001-00-0000-52.png,0002-00-0001-41.png
00000009,65,1,1449677576980,1449677577775,913,394,0,0,0,3,2,1,5,0002-00-0000-59.png,0003-00-0001-20.png
00000009,66,1,1449677578769,1449677579692,488,230,0,0,0,3,4,1,7,0002-00-0001-06.png,0001-00-0001-11.png
00000009,67,1,1449677580585,1449677581372,449,235,0,0,0,1,2,1,3,0004-00-0001-45.png,0003-00-0000-64.png
00000009,68,0,1449677582307,1449677583425,919,428,0,0,0,0,1,1,1,0005-00-0000-11.png,0004-00-0001-60.png
00000009,69,0,1449677599131,1449677609375,375,489,0,0,0,1,0,1,1,0004-00-0000-20.png,0005-00-0001-11.png
00000009,70,1,1449677612261,1449677612306,928,258,0,0,0,2,1,1,3,0003-00-0000-86.png,0004-00-0001-83.png
00000009,71,0,1449677613246,1449677614096,887,343,0,0,0,2,3,1,5,0003-00-0000-63.png,0002-00-0000-33.png
00000009,72,1,1449677617059,1449677617183,857,487,0,0,0,4,3,1,7,0001-00-0000-89.png,0002-00-0001-31.png
00000009,73,0,1449677618123,1449677618135,523,560,0,0,0,4,3,1,7,0001-00-0000-19.png,0002-00-0000-39.png
00000009,74,0,1449677621261,1449677621885,452,279,0,0,0,2,1,1,3,0003-00-0000-33.png,0004-00-0000-44.png
00000009,75,0,1449677624819,1449677624847,902,313,0,0,0,0,1,1,1,0005-00-0001-91.png,0004-00-0001-69.png
00000009,76,1,1449677627972,1449677628240,976,309,0,0,0,1,0,1,1,0004-00-0001-22.png,0005-00-0000-60.png
00000009,77,1,1449677629174,1449677629872,468,220,0,0,0,1,2,1,3,0004-00-0001-23.png,0003-00-0001-95.png
00000009,78,0,1449677630821,1449677631743,450,234,0,0,0,3,2,1,5,0002-00-0000-04.png,0003-00-0001-30.png
00000009,79,1,1449677634929,1449677635592,395,391,0,0,0,2,3,1,5,0003-00-0001-41.png,0002-00-0001-17.png
00000009,80,1,1449677636468,1449677636476,519,465,0,0,0,3,4,1,7,0002-00-0000-47.png,0001-00-0000-30.png
00000009,81,1,1449677637463,1449677638476,917,345,0,0,0,4,3,1,7,0001-00-0000-50.png,0002-00-0001-49.png
00000009,82,0,1449677639420,1449677640263,444,223,0,0,0,1,0,1,1,0004-00-0000-47.png,0005-00-0000-84.png
00000009,83,0,1449677643586,1449677644192,1016,271,0,0,0,0,1,1,1,0005-00-0000-26.png,0004-00-0001-01.png
00000009,84,0,1449677647231,1449677647857,1011,253,0,0,0,1,2,1,3,0004-00-0001-97.png,0003-00-0001-20.png
00000009,85,1,1449677662373,1449677663112,905,376,0,0,0,3,2,1,5,0002-00-0000-68.png,0003-00-0001-73.png
00000009,86,1,1449677664033,1449677665009,435,271,0,0,0,2,3,1,5,0003-00-0000-91.png,0002-00-0001-18.png
00000009,87,0,1449677665952,1449677666918,906,314,0,0,0,3,4,1,7,0002-00-0000-54.png,0001-00-0000-45.png
00000009,88,0,1449677669996,1449677670602,384,378,0,0,0,2,1,1,3,0003-00-0000-00.png,0004-00-0001-56.png
00000009,89,0,1449677673462,1449677674108,454,287,0,0,0,2,1,1,3,0003-00-0000-49.png,0004-00-0001-69.png
00000009,90,0,1449677677229,1449677677762,1041,276,0,0,0,3,4,1,7,0002-00-0001-95.png,0001-00-0000-43.png
00000009,91,0,1449677680689,1449677680746,888,332,0,0,0,2,3,1,5,0003-00-0000-40.png,0002-00-0001-81.png
00000009,92,0,1449677683868,1449677683956,893,241,0,0,0,0,1,1,1,0005-00-0001-34.png,0004-00-0001-46.png
00000009,93,1,1449677686817,1449677687439,1041,306,0,0,0,4,3,1,7,0001-00-0000-74.png,0002-00-0000-68.png
00000009,94,0,1449677688351,1449677689144,375,341,0,0,0,1,0,1,1,0004-00-0001-08.png,0005-00-0001-22.png
00000009,95,0,1449677692017,1449677692100,906,274,0,0,0,1,2,1,3,0004-00-0000-35.png,0003-00-0000-48.png
00000009,96,1,1449677695281,1449677695952,990,253,0,0,0,3,2,1,5,0002-00-0001-17.png,0003-00-0001-05.png
00000009,97,0,1449677696946,1449677697693,458,236,0,0,0,1,0,1,1,0004-00-0001-55.png,0005-00-0001-12.png
00000009,98,1,1449677700770,1449677701747,451,251,0,0,0,2,3,1,5,0003-00-0001-55.png,0002-00-0001-66.png
00000009,99,1,1449677702754,1449677703580,1020,253,0,0,0,2,1,1,3,0003-00-0001-84.png,0004-00-0000-87.png
00000009,100,1,1449677704587,1449677705407,479,238,0,0,0,0,1,1,1,0005-00-0000-75.png,0004-00-0001-53.png
00000009,101,1,1449677706367,1449677707607,939,306,0,0,0,4,3,1,7,0001-00-0000-66.png,0002-00-0001-05.png
00000009,102,0,1449677708636,1449677709388,990,245,0,0,0,3,4,1,7,0002-00-0000-87.png,0001-00-0001-01.png
00000009,103,1,1449677712637,1449677713353,1016,243,0,0,0,3,2,1,5,0002-00-0000-39.png,0003-00-0001-42.png
00000009,104,1,1449677714307,1449677715050,469,231,0,0,0,1,2,1,3,0004-00-0001-65.png,0003-00-0000-58.png
00000009,105,1,1449677716033,1449677716920,461,241,0,0,0,2,3,1,5,0003-00-0001-52.png,0002-00-0001-55.png
00000009,106,0,1449677717924,1449677718942,479,271,0,0,0,2,1,1,3,0003-00-0000-39.png,0004-00-0000-26.png
00000009,107,0,1449677721888,1449677721972,929,465,0,0,0,0,1,1,1,0005-00-0001-35.png,0004-00-0001-85.png
00000009,108,0,1449677725196,1449677725955,1019,252,0,0,0,3,4,1,7,0002-00-0001-55.png,0001-00-0001-02.png
00000009,109,1,1449677728801,1449677729394,473,266,0,0,0,1,2,1,3,0004-00-0000-57.png,0003-00-0000-50.png
00000009,110,0,1449677730924,1449677731475,498,258,0,0,0,1,0,1,1,0004-00-0000-12.png,0005-00-0001-14.png
00000009,111,0,1449677734580,1449677735253,439,266,0,0,0,3,2,1,5,0002-00-0001-72.png,0003-00-0001-07.png
00000009,112,1,1449677738216,1449677738311,908,327,0,0,0,4,3,1,7,0001-00-0001-24.png,0002-00-0001-98.png
00000009,113,1,1449677739300,1449677740155,469,242,0,0,0,0,1,1,1,0005-00-0000-33.png,0004-00-0000-34.png
00000009,114,1,1449677741138,1449677741901,899,334,0,0,0,2,1,1,3,0003-00-0001-62.png,0004-00-0001-72.png
00000009,115,1,1449677743057,1449677744071,891,332,0,0,0,4,3,1,7,0001-00-0001-65.png,0002-00-0000-21.png
00000009,116,0,1449677745023,1449677745855,462,248,0,0,0,3,2,1,5,0002-00-0000-85.png,0003-00-0001-68.png
00000009,117,0,1449677748937,1449677749052,892,288,0,0,0,1,2,1,3,0004-00-0000-24.png,0003-00-0000-08.png
00000009,118,1,1449677752180,1449677752343,888,399,0,0,0,1,0,1,1,0004-00-0001-75.png,0005-00-0001-81.png
00000009,119,1,1449677753331,1449677753411,522,550,0,0,0,2,3,1,5,0003-00-0000-06.png,0002-00-0000-22.png
00000009,120,1,1449677754425,1449677755407,463,237,0,0,0,3,4,1,7,0002-00-0001-63.png,0001-00-0000-78.png
00000009,121,1,1449677756414,1449677757472,913,399,0,0,0,4,3,1,7,0001-00-0000-85.png,0002-00-0001-34.png
00000009,122,1,1449677758518,1449677759502,457,273,0,0,0,3,4,1,7,0002-00-0001-54.png,0001-00-0000-73.png
00000009,123,1,1449677760545,1449677761273,939,347,0,0,0,2,1,1,3,0003-00-0001-65.png,0004-00-0001-23.png
00000009,124,1,1449677762289,1449677763317,459,243,0,0,0,2,3,1,5,0003-00-0001-81.png,0002-00-0000-08.png
00000009,125,1,1449677764363,1449677765284,1032,227,0,0,0,1,0,1,1,0004-00-0000-45.png,0005-00-0000-47.png
00000009,126,0,1449677766308,1449677767079,1035,269,0,0,0,0,1,1,1,0005-00-0001-05.png,0004-00-0001-16.png
00000009,127,0,1449677770063,1449677770123,872,384,0,0,0,1,2,1,3,0004-00-0001-72.png,0003-00-0001-74.png
00000009,128,1,1449677773247,1449677773271,871,296,0,0,0,3,2,1,5,0002-00-0000-94.png,0003-00-0000-98.png
00000009,129,1,1449677774262,1449677774875,453,250,0,0,0,1,2,1,3,0004-00-0001-77.png,0003-00-0001-34.png
00000009,130,0,1449677775860,1449677776819,377,338,0,0,0,3,2,1,5,0002-00-0001-56.png,0003-00-0001-91.png
00000009,131,1,1449677779983,1449677780563,942,310,0,0,0,1,0,1,1,0004-00-0001-76.png,0005-00-0000-81.png
00000009,132,0,1449677781464,1449677782164,475,247,0,0,0,4,3,1,7,0001-00-0000-57.png,0002-00-0001-66.png
00000009,133,0,1449677785073,1449677785244,865,384,0,0,0,0,1,1,1,0005-00-0000-55.png,0004-00-0000-15.png
00000009,134,0,1449677788121,1449677788141,899,332,0,0,0,2,3,1,5,0003-00-0000-99.png,0002-00-0001-14.png
00000009,135,1,1449677791363,1449677791977,997,270,0,0,0,2,1,1,3,0003-00-0001-53.png,0004-00-0001-79.png
00000009,136,1,1449677792891,1449677793633,462,254,0,0,0,3,4,1,7,0002-00-0000-92.png,0001-00-0001-40.png
00000009,137,1,1449677794638,1449677795304,913,294,0,0,0,3,2,1,5,0002-00-0000-46.png,0003-00-0001-10.png
00000009,138,0,1449677796400,1449677797462,1025,279,0,0,0,2,3,1,5,0003-00-0001-32.png,0002-00-0001-58.png
00000009,139,0,1449677800444,1449677800452,519,470,0,0,0,1,0,1,1,0004-00-0001-91.png,0005-00-0001-40.png
00000009,140,1,1449677803445,1449677803615,862,454,0,0,0,2,1,1,3,0003-00-0001-80.png,0004-00-0000-50.png
00000009,141,1,1449677804607,1449677805294,905,309,0,0,0,4,3,1,7,0001-00-0000-78.png,0002-00-0001-10.png
00000009,142,1,1449677806340,1449677807114,469,243,0,0,0,1,2,1,3,0004-00-0001-90.png,0003-00-0001-56.png
00000009,143,1,1449677808226,1449677809075,481,240,0,0,0,3,4,1,7,0002-00-0000-81.png,0001-00-0000-29.png
00000009,144,0,1449677810034,1449677811137,1015,253,0,0,0,0,1,1,1,0005-00-0001-61.png,0004-00-0001-21.png
00000009,145,1,1449677814038,1449677814599,477,270,0,0,0,1,2,1,3,0004-00-0001-48.png,0003-00-0000-14.png
00000009,146,1,1449677815529,1449677815585,515,530,0,0,0,2,3,1,5,0003-00-0000-05.png,0002-00-0000-39.png
00000009,147,1,1449677816661,1449677817615,389,365,0,0,0,3,4,1,7,0002-00-0000-53.png,0001-00-0000-86.png
00000009,148,1,1449677818580,1449677819341,905,353,0,0,0,1,0,1,1,0004-00-0001-08.png,0005-00-0000-21.png
00000009,149,0,1449677821010,1449677821992,925,326,0,0,0,0,1,1,1,0005-00-0001-56.png,0004-00-0000-79.png
00000009,150,1,1449677824990,1449677825533,990,279,0,0,0,3,2,1,5,0002-00-0000-19.png,0003-00-0000-11.png
00000009,151,1,1449677826420,1449677827324,1030,253,0,0,0,2,1,1,3,0003-00-0000-21.png,0004-00-0001-03.png
00000009,152,0,1449677828238,1449677828935,394,287,0,0,0,4,3,1,7,0001-00-0001-26.png,0002-00-0000-35.png
00000009,153,0,1449677831803,1449677832592,913,296,0,0,0,3,4,1,7,0002-00-0001-57.png,0001-00-0001-50.png
00000009,154,1,1449677835630,1449677836169,1026,282,0,0,0,1,0,1,1,0004-00-0000-26.png,0005-00-0000-10.png
00000009,155,0,1449677837062,1449677837790,495,234,0,0,0,4,3,1,7,0001-00-0001-91.png,0002-00-0001-97.png
00000009,156,0,1449677840702,1449677841478,971,374,0,0,0,1,2,1,3,0004-00-0001-74.png,0003-00-0000-80.png
00000009,157,1,1449677844632,1449677845145,939,370,0,0,0,2,1,1,3,0003-00-0001-42.png,0004-00-0001-65.png
00000009,158,1,1449677846038,1449677847081,1016,279,0,0,0,3,2,1,5,0002-00-0001-98.png,0003-00-0001-65.png
00000009,159,1,1449677848085,1449677848995,455,248,0,0,0,0,1,1,1,0005-00-0001-65.png,0004-00-0001-82.png
00000009,160,1,1449677850022,1449677851030,503,238,0,0,0,2,3,1,5,0003-00-0000-22.png,0002-00-0000-84.png
00000009,161,0,1449677852049,1449677852889,930,272,0,0,0,1,2,1,3,0004-00-0001-17.png,0003-00-0000-41.png
00000009,162,0,1449677855844,1449677855876,879,355,0,0,0,3,4,1,7,0002-00-0001-36.png,0001-00-0001-98.png
00000009,163,1,1449677858828,1449677858852,877,329,0,0,0,4,3,1,7,0001-00-0001-64.png,0002-00-0000-90.png
00000009,164,1,1449677859790,1449677860565,489,238,0,0,0,2,3,1,5,0003-00-0000-48.png,0002-00-0000-12.png
00000009,165,1,1449677861523,1449677862460,932,299,0,0,0,3,2,1,5,0002-00-0001-76.png,0003-00-0000-45.png
00000009,166,0,1449677863528,1449677864529,455,251,0,0,0,2,1,1,3,0003-00-0000-40.png,0004-00-0001-06.png
00000009,167,0,1449677867711,1449677867967,911,397,0,0,0,0,1,1,1,0005-00-0001-86.png,0004-00-0001-91.png
00000009,168,1,1449677870931,1449677871496,931,361,0,0,0,1,0,1,1,0004-00-0001-94.png,0005-00-0001-02.png
00000009,169,0,1449677872342,1449677873256,939,306,0,0,0,1,2,1,3,0004-00-0000-45.png,0003-00-0001-83.png
00000009,170,0,1449677876307,1449677876335,890,336,0,0,0,2,3,1,5,0003-00-0000-39.png,0002-00-0000-39.png
00000009,171,1,1449677879497,1449677880589,477,271,0,0,0,3,4,1,7,0002-00-0000-43.png,0001-00-0000-27.png
00000009,172,1,1449677881536,1449677882691,920,322,0,0,0,4,3,1,7,0001-00-0000-07.png,0002-00-0001-50.png
00000009,173,0,1449677883664,1449677884564,1016,263,0,0,0,0,1,1,1,0005-00-0000-63.png,0004-00-0000-08.png
00000009,174,1,1449677887584,1449677888151,1127,377,0,0,0,1,0,1,1,0004-00-0000-47.png,0005-00-0000-50.png
00000009,175,0,1449677889005,1449677889936,395,314,0,0,0,2,1,1,3,0003-00-0000-35.png,0004-00-0000-14.png
00000009,176,0,1449677892862,1449677893664,453,238,0,0,0,3,2,1,5,0002-00-0000-71.png,0003-00-0001-77.png
00000009,177,0,1449677896629,1449677896689,914,353,0,0,0,0,1,1,1,0005-00-0000-19.png,0004-00-0001-21.png
00000009,178,1,1449677899881,1449677900443,1046,256,0,0,0,2,1,1,3,0003-00-0000-17.png,0004-00-0001-79.png
00000009,179,1,1449677901391,1449677902227,416,358,0,0,0,1,2,1,3,0004-00-0000-90.png,0003-00-0001-03.png
00000009,180,0,1449677903178,1449677904332,477,227,0,0,0,4,3,1,7,0001-00-0000-54.png,0002-00-0000-52.png
00000009,181,1,1449677907312,1449677907423,876,267,0,0,0,3,2,1,5,0002-00-0000-48.png,0003-00-0000-24.png
00000009,182,0,1449677908941,1449677909612,913,293,0,0,0,3,4,1,7,0002-00-0000-60.png,0001-00-0001-76.png
00000009,183,1,1449677912737,1449677913515,391,358,0,0,0,2,3,1,5,0003-00-0001-86.png,0002-00-0001-24.png
00000009,184,0,1449677914488,1449677915729,458,269,0,0,0,1,0,1,1,0004-00-0000-99.png,0005-00-0000-05.png
00000009,185,0,1449677918881,1449677919490,939,317,0,0,0,0,1,1,1,0005-00-0001-54.png,0004-00-0001-55.png
00000009,186,1,1449677922396,1449677923145,939,346,0,0,0,4,3,1,7,0001-00-0000-43.png,0002-00-0000-36.png
00000009,187,1,1449677924083,1449677925130,395,345,0,0,0,3,4,1,7,0002-00-0001-65.png,0001-00-0000-88.png
00000009,188,1,1449677926166,1449677926952,482,250,0,0,0,1,2,1,3,0004-00-0000-50.png,0003-00-0000-20.png
00000009,189,1,1449677927931,1449677928791,952,368,0,0,0,2,1,1,3,0003-00-0000-04.png,0004-00-0001-44.png
00000009,190,1,1449677930019,1449677930039,857,366,0,0,0,3,2,1,5,0002-00-0000-64.png,0003-00-0001-34.png
00000009,191,1,1449677931229,1449677931935,929,358,0,0,0,1,0,1,1,0004-00-0001-74.png,0005-00-0001-49.png
00000009,192,1,1449677933009,1449677933899,493,249,0,0,0,2,3,1,5,0003-00-0000-37.png,0002-00-0001-38.png
00000009,193,1,1449677934854,1449677936114,926,306,0,0,0,2,1,1,3,0003-00-0000-38.png,0004-00-0000-52.png
00000009,194,1,1449677937191,1449677938013,498,256,0,0,0,1,2,1,3,0004-00-0001-57.png,0003-00-0001-98.png
00000009,195,1,1449677938991,1449677940278,517,227,0,0,0,3,4,1,7,0002-00-0000-69.png,0001-00-0000-35.png
00000009,196,1,1449677941286,1449677942098,1015,283,0,0,0,1,0,1,1,0004-00-0000-86.png,0005-00-0000-64.png
00000009,197,1,1449677943116,1449677943183,857,441,0,0,0,4,3,1,7,0001-00-0001-13.png,0002-00-0001-38.png
00000009,198,1,1449677944425,1449677945132,490,239,0,0,0,2,3,1,5,0003-00-0000-04.png,0002-00-0001-27.png
00000009,199,0,1449677946067,1449677947048,480,252,0,0,0,3,2,1,5,0002-00-0000-11.png,0003-00-0000-22.png
00000009,200,1,1449677950008,1449677950587,498,262,0,0,0,0,1,1,1,0005-00-0001-53.png,0004-00-0001-41.png
00000009,201,1,1449677951451,1449677952381,491,241,0,0,0,3,4,1,7,0002-00-0001-42.png,0001-00-0000-14.png
00000009,202,1,1449677953409,1449677954689,394,320,0,0,0,2,3,1,5,0003-00-0001-14.png,0002-00-0000-79.png
00000009,203,1,1449677955626,1449677956247,400,317,0,0,0,0,1,1,1,0005-00-0001-84.png,0004-00-0001-20.png
00000009,204,0,1449677957971,1449677958765,395,338,0,0,0,1,0,1,1,0004-00-0001-09.png,0005-00-0001-37.png
00000009,205,1,1449677961894,1449677962497,464,280,0,0,0,1,2,1,3,0004-00-0001-54.png,0003-00-0000-93.png
00000009,206,0,1449677963454,1449677964083,483,247,0,0,0,4,3,1,7,0001-00-0001-81.png,0002-00-0001-07.png
00000009,207,1,1449677967114,1449677967134,900,313,0,0,0,2,1,1,3,0003-00-0000-90.png,0004-00-0000-24.png
00000009,208,0,1449677968176,1449677969082,406,368,0,0,0,3,2,1,5,0002-00-0000-07.png,0003-00-0001-22.png
00000009,209,1,1449677972034,1449677972062,992,378,0,0,0,2,1,1,3,0003-00-0000-66.png,0004-00-0000-58.png
00000009,210,0,1449677973074,1449677973993,503,235,0,0,0,3,2,1,5,0002-00-0000-96.png,0003-00-0000-56.png
00000009,211,0,1449677977125,1449677977916,939,370,0,0,0,2,3,1,5,0003-00-0001-95.png,0002-00-0000-00.png
00000009,212,1,1449677980807,1449677981322,462,261,0,0,0,1,2,1,3,0004-00-0001-72.png,0003-00-0000-58.png
00000009,213,1,1449677982289,1449677982937,1023,227,0,0,0,1,0,1,1,0004-00-0000-04.png,0005-00-0001-44.png
00000009,214,0,1449677983869,1449677983945,862,421,0,0,0,3,4,1,7,0002-00-0001-87.png,0001-00-0001-28.png
00000009,215,1,1449677986836,1449677987634,518,249,0,0,0,0,1,1,1,0005-00-0001-75.png,0004-00-0001-32.png
00000009,216,1,1449677988500,1449677989597,944,340,0,0,0,4,3,1,7,0001-00-0000-81.png,0002-00-0001-57.png
00000009,217,0,1449677990691,1449677992113,505,240,0,0,0,3,2,1,5,0002-00-0000-22.png,0003-00-0000-74.png
00000009,218,0,1449677995187,1449677995770,1016,294,0,0,0,3,4,1,7,0002-00-0001-86.png,0001-00-0000-22.png
00000009,219,0,1449677998645,1449677999434,949,402,0,0,0,2,3,1,5,0003-00-0000-80.png,0002-00-0001-25.png
00000009,220,0,1449678002352,1449678002964,495,281,0,0,0,4,3,1,7,0001-00-0001-29.png,0002-00-0000-86.png
00000009,221,0,1449678005809,1449678005833,861,403,0,0,0,0,1,1,1,0005-00-0000-29.png,0004-00-0000-42.png
00000009,222,1,1449678008972,1449678009176,902,353,0,0,0,2,1,1,3,0003-00-0001-74.png,0004-00-0000-42.png
00000009,223,1,1449678010224,1449678010876,486,220,0,0,0,1,2,1,3,0004-00-0000-33.png,0003-00-0000-93.png
00000009,224,0,1449678011857,1449678012566,483,234,0,0,0,1,0,1,1,0004-00-0000-21.png,0005-00-0000-54.png
00000009,225,1,1449678015468,1449678016055,506,262,0,0,0,0,1,1,1,0005-00-0001-88.png,0004-00-0001-01.png
00000009,226,1,1449678016940,1449678017554,1024,253,0,0,0,2,1,1,3,0003-00-0000-06.png,0004-00-0001-35.png
00000009,227,0,1449678018500,1449678019198,506,247,0,0,0,4,3,1,7,0001-00-0000-93.png,0002-00-0001-60.png
00000009,228,0,1449678022265,1449678022829,939,263,0,0,0,1,2,1,3,0004-00-0000-59.png,0003-00-0000-00.png
00000009,229,1,1449678026014,1449678026725,513,241,0,0,0,2,3,1,5,0003-00-0001-85.png,0002-00-0000-84.png
00000009,230,0,1449678027614,1449678028497,470,227,0,0,0,3,2,1,5,0002-00-0000-50.png,0003-00-0001-43.png
00000009,231,1,1449678031347,1449678032199,478,262,0,0,0,3,4,1,7,0002-00-0000-06.png,0001-00-0001-11.png
00000009,232,1,1449678033190,1449678034080,1016,308,0,0,0,1,0,1,1,0004-00-0000-80.png,0005-00-0001-65.png
00000009,233,1,1449678034956,1449678035759,939,290,0,0,0,2,1,1,3,0003-00-0000-79.png,0004-00-0000-65.png
00000009,234,1,1449678036896,1449678036940,863,394,0,0,0,4,3,1,7,0001-00-0000-93.png,0002-00-0000-60.png
00000009,235,1,1449678038047,1449678039108,929,322,0,0,0,1,0,1,1,0004-00-0001-62.png,0005-00-0001-33.png
00000009,236,0,1449678040052,1449678041324,1022,270,0,0,0,3,4,1,7,0002-00-0001-73.png,0001-00-0000-81.png
00000009,237,0,1449678044496,1449678044516,903,307,0,0,0,0,1,1,1,0005-00-0001-29.png,0004-00-0001-24.png
00000009,238,0,1449678047657,1449678047697,925,306,0,0,0,1,2,1,3,0004-00-0000-88.png,0003-00-0001-34.png
00000009,239,0,1449678050535,1449678050650,882,384,0,0,0,2,3,1,5,0003-00-0000-90.png,0002-00-0000-20.png
00000009,240,1,1449678053820,1449678054455,939,384,0,0,0,3,2,1,5,0002-00-0000-28.png,0003-00-0000-43.png
00000009,241,0,1449678055372,1449678056645,401,342,0,0,0,1,0,1,1,0004-00-0000-87.png,0005-00-0000-19.png
00000009,242,0,1449678059748,1449678060534,498,228,0,0,0,3,2,1,5,0002-00-0000-25.png,0003-00-0001-88.png
00000009,243,0,1449678063521,1449678064264,939,279,0,0,0,2,3,1,5,0003-00-0000-32.png,0002-00-0001-53.png
00000009,244,0,1449678067142,1449678067174,957,358,0,0,0,3,4,1,7,0002-00-0001-62.png,0001-00-0001-03.png
00000009,245,1,1449678070326,1449678070922,427,362,0,0,0,0,1,1,1,0005-00-0000-65.png,0004-00-0001-00.png
00000009,246,1,1449678071896,1449678073121,990,323,0,0,0,2,1,1,3,0003-00-0001-04.png,0004-00-0001-76.png
00000009,247,1,1449678074112,1449678074745,406,361,0,0,0,1,2,1,3,0004-00-0001-34.png,0003-00-0000-21.png
00000009,248,1,1449678075833,1449678076726,939,290,0,0,0,4,3,1,7,0001-00-0001-90.png,0002-00-0001-71.png
00000009,249,0,1449678077699,1449678077767,862,436,0,0,0,0,1,1,1,0005-00-0000-68.png,0004-00-0000-53.png
00000009,250,0,1449678080878,1449678081565,448,378,0,0,0,4,3,1,7,0001-00-0001-61.png,0002-00-0001-81.png
00000009,251,1,1449678084486,1449678085099,935,374,0,0,0,3,2,1,5,0002-00-0001-62.png,0003-00-0000-18.png
00000009,252,0,1449678085983,1449678086159,862,504,0,0,0,2,3,1,5,0003-00-0000-00.png,0002-00-0001-10.png
00000009,253,0,1449678089197,1449678089919,1041,253,0,0,0,1,2,1,3,0004-00-0000-79.png,0003-00-0001-89.png
00000009,254,1,1449678093092,1449678093152,982,307,0,0,0,2,1,1,3,0003-00-0001-92.png,0004-00-0001-81.png
00000009,255,0,1449678094125,1449678095326,928,332,0,0,0,3,4,1,7,0002-00-0000-50.png,0001-00-0000-39.png
00000009,256,1,1449678099275,1449678099323,862,306,0,0,0,1,0,1,1,0004-00-0000-70.png,0005-00-0001-03.png
00000009,257,1,1449678100319,1449678101160,920,319,0,0,0,1,0,1,1,0004-00-0001-83.png,0005-00-0001-91.png
00000009,258,0,1449678102073,1449678102980,390,330,0,0,0,3,2,1,5,0002-00-0001-88.png,0003-00-0000-53.png
00000009,259,0,1449678106028,1449678106835,481,250,0,0,0,4,3,1,7,0001-00-0001-48.png,0002-00-0000-60.png
00000009,260,1,1449678110034,1449678110788,513,238,0,0,0,2,3,1,5,0003-00-0001-63.png,0002-00-0000-06.png
00000009,261,1,1449678111672,1449678113064,504,239,0,0,0,3,4,1,7,0002-00-0001-60.png,0001-00-0000-58.png
00000009,262,0,1449678114015,1449678114821,939,349,0,0,0,0,1,1,1,0005-00-0000-77.png,0004-00-0000-32.png
00000009,263,1,1449678117705,1449678117729,873,358,0,0,0,2,1,1,3,0003-00-0001-87.png,0004-00-0001-66.png
00000009,264,1,1449678118712,1449678119517,484,240,0,0,0,1,2,1,3,0004-00-0000-98.png,0003-00-0000-02.png
00000009,265,0,1449678120521,1449678121635,483,243,0,0,0,4,3,1,7,0001-00-0001-93.png,0002-00-0001-37.png
00000009,266,0,1449678125580,1449678126172,398,334,0,0,0,3,2,1,5,0002-00-0001-68.png,0003-00-0001-64.png
00000009,267,0,1449678129045,1449678129133,888,386,0,0,0,1,2,1,3,0004-00-0000-42.png,0003-00-0001-09.png
00000009,268,0,1449678132309,1449678132884,942,306,0,0,0,0,1,1,1,0005-00-0001-27.png,0004-00-0000-75.png
00000009,269,1,1449678135791,1449678136370,917,308,0,0,0,2,1,1,3,0003-00-0000-12.png,0004-00-0000-85.png
00000009,270,1,1449678137295,1449678138249,492,222,0,0,0,3,4,1,7,0002-00-0000-42.png,0001-00-0000-42.png
00000009,271,0,1449678139193,1449678140074,913,306,0,0,0,2,3,1,5,0003-00-0000-73.png,0002-00-0000-44.png
00000009,272,1,1449678143030,1449678143133,939,332,0,0,0,1,0,1,1,0004-00-0001-69.png,0005-00-0001-90.png
00000009,273,1,1449678144099,1449678144982,1023,243,0,0,0,2,1,1,3,0003-00-0000-23.png,0004-00-0000-92.png
00000009,274,0,1449678145882,1449678145970,880,490,0,0,0,1,2,1,3,0004-00-0000-13.png,0003-00-0001-89.png
00000009,275,0,1449678149071,1449678149813,484,269,0,0,0,4,3,1,7,0001-00-0001-23.png,0002-00-0001-62.png
00000009,276,0,1449678152825,1449678153502,1041,306,0,0,0,3,4,1,7,0002-00-0000-32.png,0001-00-0000-05.png
00000009,277,1,1449678156541,1449678157084,444,415,0,0,0,0,1,1,1,0005-00-0001-29.png,0004-00-0000-74.png
00000009,278,1,1449678157974,1449678159053,1036,240,0,0,0,3,2,1,5,0002-00-0000-82.png,0003-00-0001-28.png
00000009,279,1,1449678159964,1449678160740,956,347,0,0,0,1,0,1,1,0004-00-0001-82.png,0005-00-0000-53.png
00000009,280,1,1449678161700,1449678162759,451,344,0,0,0,2,3,1,5,0003-00-0000-52.png,0002-00-0000-52.png
00000009,281,0,1449678163688,1449678164842,481,240,0,0,0,4,3,1,7,0001-00-0001-28.png,0002-00-0001-34.png
00000009,282,0,1449678167699,1449678168343,996,280,0,0,0,3,4,1,7,0002-00-0001-62.png,0001-00-0000-54.png
00000009,283,1,1449678171166,1449678171729,506,290,0,0,0,0,1,1,1,0005-00-0000-22.png,0004-00-0001-09.png
00000009,284,1,1449678172632,1449678173321,1035,296,0,0,0,2,1,1,3,0003-00-0001-90.png,0004-00-0001-82.png
00000009,285,0,1449678174214,1449678175034,515,240,0,0,0,3,2,1,5,0002-00-0001-30.png,0003-00-0001-22.png
00000009,286,1,1449678177959,1449678178507,434,402,0,0,0,1,2,1,3,0004-00-0000-30.png,0003-00-0000-24.png
00000009,287,0,1449678179431,1449678180822,394,390,0,0,0,1,0,1,1,0004-00-0000-60.png,0005-00-0000-43.png
00000009,288,0,1449678183853,1449678184378,994,285,0,0,0,2,3,1,5,0003-00-0001-21.png,0002-00-0000-50.png
00000009,289,0,1449678187271,1449678188049,501,287,0,0,0,4,3,1,7,0001-00-0000-47.png,0002-00-0001-95.png
00000009,290,0,1449678191195,1449678191231,874,312,0,0,0,0,1,1,1,0005-00-0000-19.png,0004-00-0000-59.png
00000009,291,0,1449678194150,1449678194729,490,254,0,0,0,2,1,1,3,0003-00-0000-90.png,0004-00-0000-14.png
00000009,292,1,1449678197576,1449678197616,977,377,0,0,0,3,2,1,5,0002-00-0001-62.png,0003-00-0001-90.png
00000009,293,0,1449678198601,1449678198759,862,514,0,0,0,3,4,1,7,0002-00-0000-79.png,0001-00-0000-89.png
00000009,294,1,1449678202268,1449678202833,459,392,0,0,0,1,2,1,3,0004-00-0001-53.png,0003-00-0001-11.png
00000009,295,0,1449678203779,1449678204740,936,278,0,0,0,2,3,1,5,0003-00-0001-64.png,0002-00-0000-20.png
00000009,296,1,1449678207941,1449678207969,913,332,0,0,0,1,0,1,1,0004-00-0001-29.png,0005-00-0001-21.png
00000009,297,1,1449678208976,1449678209690,931,344,0,0,0,2,1,1,3,0003-00-0000-12.png,0004-00-0000-79.png
00000009,298,1,1449678210662,1449678211633,1016,245,0,0,0,1,0,1,1,0004-00-0001-93.png,0005-00-0001-64.png
00000009,299,1,1449678212562,1449678213724,1016,262,0,0,0,4,3,1,7,0001-00-0000-76.png,0002-00-0001-81.png
00000009,300,0,1449678214860,1449678214971,866,511,0,0,0,3,4,1,7,0002-00-0001-30.png,0001-00-0000-38.png
00000009,301,1,1449678217877,1449678218094,879,322,0,0,0,3,2,1,5,0002-00-0001-12.png,0003-00-0001-25.png
00000009,302,1,1449678219001,1449678220271,462,277,0,0,0,0,1,1,1,0005-00-0001-85.png,0004-00-0000-89.png
00000009,303,0,1449678221215,1449678222226,939,279,0,0,0,1,2,1,3,0004-00-0000-26.png,0003-00-0001-04.png
00000009,304,0,1449678225352,1449678225367,857,304,0,0,0,2,3,1,5,0003-00-0000-88.png,0002-00-0000-85.png
00000009,305,1,1449678228383,1449678229091,502,254,0,0,0,3,4,1,7,0002-00-0001-13.png,0001-00-0001-54.png
00000009,306,1,1449678230070,1449678230825,470,262,0,0,0,0,1,1,1,0005-00-0001-19.png,0004-00-0001-53.png
00000009,307,1,1449678231811,1449678232705,483,240,0,0,0,1,2,1,3,0004-00-0000-14.png,0003-00-0001-23.png
00000009,308,1,1449678233719,1449678234678,959,388,0,0,0,1,0,1,1,0004-00-0000-83.png,0005-00-0000-52.png
00000009,309,1,1449678235696,1449678236669,923,334,0,0,0,3,2,1,5,0002-00-0000-10.png,0003-00-0001-07.png
00000009,310,1,1449678237715,1449678238628,1016,289,0,0,0,4,3,1,7,0001-00-0000-24.png,0002-00-0000-28.png
00000009,311,1,1449678239659,1449678240579,922,332,0,0,0,2,1,1,3,0003-00-0000-34.png,0004-00-0000-88.png
00000009,312,0,1449678241561,1449678241632,889,477,0,0,0,2,3,1,5,0003-00-0000-06.png,0002-00-0000-48.png
00000009,313,1,1449678244829,1449678245018,873,462,0,0,0,3,2,1,5,0002-00-0000-88.png,0003-00-0000-61.png
00000009,314,1,1449678246065,1449678246839,501,237,0,0,0,3,4,1,7,0002-00-0001-04.png,0001-00-0000-96.png
00000009,315,1,1449678247866,1449678248612,1158,323,0,0,0,1,0,1,1,0004-00-0001-74.png,0005-00-0000-90.png
00000009,316,0,1449678249569,1449678249589,893,391,0,0,0,2,3,1,5,0003-00-0001-34.png,0002-00-0000-69.png
00000009,317,0,1449678252697,1449678252808,894,284,0,0,0,0,1,1,1,0005-00-0000-68.png,0004-00-0000-91.png
00000009,318,1,1449678255787,1449678255831,866,287,0,0,0,4,3,1,7,0001-00-0000-55.png,0002-00-0001-90.png
00000009,319,0,1449678256807,1449678257798,949,279,0,0,0,1,2,1,3,0004-00-0001-78.png,0003-00-0000-28.png
00000009,320,1,1449678260826,1449678260870,860,362,0,0,0,2,1,1,3,0003-00-0000-75.png,0004-00-0001-84.png
00000009,321,1,1449678261844,1449678262705,901,306,0,0,0,2,1,1,3,0003-00-0001-08.png,0004-00-0001-25.png
00000009,322,1,1449678263681,1449678264642,913,316,0,0,0,3,2,1,5,0002-00-0001-60.png,0003-00-0000-02.png
00000009,323,1,1449678265649,1449678265744,885,531,0,0,0,1,0,1,1,0004-00-0000-49.png,0005-00-0001-05.png
00000009,324,1,1449678266891,1449678266927,866,415,0,0,0,4,3,1,7,0001-00-0000-89.png,0002-00-0001-75.png
00000009,325,0,1449678268162,1449678269712,888,384,0,0,0,2,3,1,5,0003-00-0001-87.png,0002-00-0000-08.png
00000009,326,0,1449678272839,1449678273508,939,367,0,0,0,1,2,1,3,0004-00-0000-75.png,0003-00-0001-92.png
00000009,327,0,1449678276618,1449678276646,862,306,0,0,0,0,1,1,1,0005-00-0001-52.png,0004-00-0001-01.png
00000009,328,0,1449678279679,1449678279855,888,410,0,0,0,3,4,1,7,0002-00-0000-46.png,0001-00-0000-38.png
00000009,329,0,1449678282965,1449678283592,483,255,0,0,0,3,2,1,5,0002-00-0001-69.png,0003-00-0000-68.png
00000009,330,1,1449678286705,1449678287348,412,358,0,0,0,3,4,1,7,0002-00-0000-91.png,0001-00-0000-30.png
00000009,331,1,1449678288284,1449678289109,490,222,0,0,0,1,2,1,3,0004-00-0001-20.png,0003-00-0000-38.png
00000009,332,0,1449678290105,1449678291122,936,384,0,0,0,0,1,1,1,0005-00-0000-40.png,0004-00-0000-61.png
00000009,333,1,1449678294268,1449678294296,875,332,0,0,0,2,1,1,3,0003-00-0001-98.png,0004-00-0001-27.png
00000009,334,1,1449678295310,1449678296659,490,248,0,0,0,2,3,1,5,0003-00-0001-78.png,0002-00-0001-67.png
00000009,335,1,1449678297595,1449678298467,1009,246,0,0,0,1,0,1,1,0004-00-0000-29.png,0005-00-0001-93.png
00000009,336,1,1449678299544,1449678299572,883,419,0,0,0,4,3,1,7,0001-00-0000-11.png,0002-00-0001-34.png
00000009,337,1,1449678300766,1449678300826,872,467,0,0,0,3,2,1,5,0002-00-0001-27.png,0003-00-0000-96.png
00000009,338,0,1449678302007,1449678302083,868,493,0,0,0,1,2,1,3,0004-00-0001-52.png,0003-00-0001-14.png
00000009,339,0,1449678304936,1449678306001,506,261,0,0,0,4,3,1,7,0001-00-0000-23.png,0002-00-0001-60.png
00000009,340,1,1449678309124,1449678309690,475,268,0,0,0,2,3,1,5,0003-00-0000-08.png,0002-00-0000-85.png
00000009,341,1,1449678310646,1449678311478,455,246,0,0,0,3,4,1,7,0002-00-0001-84.png,0001-00-0001-50.png
00000009,342,1,1449678312410,1449678313096,905,311,0,0,0,1,0,1,1,0004-00-0001-70.png,0005-00-0000-63.png
00000009,343,1,1449678314045,1449678314931,1011,266,0,0,0,2,1,1,3,0003-00-0000-42.png,0004-00-0000-03.png
00000009,344,0,1449678315861,1449678315933,861,432,0,0,0,0,1,1,1,0005-00-0000-31.png,0004-00-0000-66.png
00000009,345,0,1449678318819,1449678319734,442,368,0,0,0,3,2,1,5,0002-00-0000-64.png,0003-00-0000-25.png
00000009,346,0,1449678322896,1449678322936,905,308,0,0,0,2,3,1,5,0003-00-0000-48.png,0002-00-0000-81.png
00000009,347,1,1449678326047,1449678326602,1046,276,0,0,0,1,0,1,1,0004-00-0000-20.png,0005-00-0001-99.png
00000009,348,0,1449678327495,1449678328659,484,261,0,0,0,4,3,1,7,0001-00-0001-17.png,0002-00-0001-30.png
00000009,349,1,1449678332196,1449678332244,862,332,0,0,0,2,1,1,3,0003-00-0001-52.png,0004-00-0001-21.png
00000009,350,1,1449678333212,1449678334002,469,246,0,0,0,0,1,1,1,0005-00-0001-85.png,0004-00-0000-63.png
00000009,351,1,1449678334960,1449678335692,491,235,0,0,0,1,2,1,3,0004-00-0001-55.png,0003-00-0000-63.png
00000009,352,0,1449678336698,1449678337624,936,321,0,0,0,3,4,1,7,0002-00-0001-18.png,0001-00-0000-21.png
00000009,353,1,1449678340814,1449678341392,401,332,0,0,0,2,3,1,5,0003-00-0000-84.png,0002-00-0001-81.png
00000009,354,1,1449678342363,1449678342975,462,265,0,0,0,0,1,1,1,0005-00-0001-65.png,0004-00-0001-25.png
00000009,355,1,1449678343976,1449678344806,483,242,0,0,0,3,4,1,7,0002-00-0001-68.png,0001-00-0001-56.png
00000009,356,1,1449678345829,1449678346931,926,322,0,0,0,4,3,1,7,0001-00-0001-79.png,0002-00-0000-84.png
00000009,357,0,1449678348034,1449678349092,492,254,0,0,0,1,0,1,1,0004-00-0000-75.png,0005-00-0001-85.png
00000009,358,1,1449678351939,1449678352899,963,410,0,0,0,2,1,1,3,0003-00-0000-66.png,0004-00-0001-18.png
00000009,359,1,1449678353838,1449678354662,518,224,0,0,0,1,2,1,3,0004-00-0000-17.png,0003-00-0000-51.png
00000009,360,0,1449678355619,1449678356764,390,305,0,0,0,3,2,1,5,0002-00-0001-90.png,0003-00-0000-12.png
00000009,361,0,1449678359934,1449678359974,960,332,0,0,0,3,4,1,7,0002-00-0001-01.png,0001-00-0001-47.png
00000009,362,0,1449678362962,1449678362982,862,348,0,0,0,0,1,1,1,0005-00-0000-16.png,0004-00-0001-50.png
00000009,363,0,1449678366152,1449678366753,1016,253,0,0,0,1,2,1,3,0004-00-0000-99.png,0003-00-0000-33.png
00000009,364,1,1449678369808,1449678370048,914,326,0,0,0,2,1,1,3,0003-00-0000-70.png,0004-00-0001-94.png
00000009,365,0,1449678371043,1449678372311,454,403,0,0,0,4,3,1,7,0001-00-0001-01.png,0002-00-0001-50.png
00000009,366,1,1449678375873,1449678376444,1016,253,0,0,0,1,0,1,1,0004-00-0001-52.png,0005-00-0001-89.png
00000009,367,1,1449678377362,1449678378303,939,293,0,0,0,3,2,1,5,0002-00-0000-12.png,0003-00-0001-53.png
00000009,368,1,1449678379271,1449678380342,498,234,0,0,0,2,3,1,5,0003-00-0001-54.png,0002-00-0000-77.png
00000009,369,0,1449678381255,1449678382175,482,220,0,0,0,4,3,1,7,0001-00-0000-63.png,0002-00-0001-67.png
00000009,370,1,1449678385292,1449678385320,888,306,0,0,0,3,2,1,5,0002-00-0000-87.png,0003-00-0001-59.png
00000009,371,1,1449678386366,1449678387096,904,280,0,0,0,2,1,1,3,0003-00-0001-19.png,0004-00-0001-72.png
00000009,372,1,1449678388019,1449678389381,495,259,0,0,0,3,4,1,7,0002-00-0000-04.png,0001-00-0001-18.png
00000009,373,1,1449678390320,1449678391082,964,270,0,0,0,1,0,1,1,0004-00-0000-00.png,0005-00-0001-82.png
00000009,374,0,1449678392039,1449678392055,885,341,0,0,0,1,2,1,3,0004-00-0000-63.png,0003-00-0000-56.png
00000009,375,1,1449678394891,1449678395569,467,292,0,0,0,2,3,1,5,0003-00-0000-88.png,0002-00-0000-52.png
00000009,376,1,1449678396521,1449678397195,490,219,0,0,0,0,1,1,1,0005-00-0000-21.png,0004-00-0001-31.png
00000009,377,0,1449678398121,1449678398885,505,267,0,0,0,1,0,1,1,0004-00-0001-41.png,0005-00-0000-69.png
00000009,378,1,1449678402004,1449678402694,905,317,0,0,0,4,3,1,7,0001-00-0000-10.png,0002-00-0001-95.png
00000009,379,1,1449678403586,1449678404499,465,238,0,0,0,0,1,1,1,0005-00-0000-73.png,0004-00-0000-72.png
00000009,380,0,1449678405432,1449678406754,1041,268,0,0,0,2,3,1,5,0003-00-0000-12.png,0002-00-0001-08.png
00000009,381,1,1449678409876,1449678410575,475,404,0,0,0,3,4,1,7,0002-00-0001-55.png,0001-00-0000-45.png
00000009,382,0,1449678411514,1449678412497,483,238,0,0,0,2,1,1,3,0003-00-0000-43.png,0004-00-0001-36.png
00000009,383,0,1449678415552,1449678416188,504,295,0,0,0,3,2,1,5,0002-00-0001-58.png,0003-00-0000-80.png
00000009,384,0,1449678419128,1449678419156,862,316,0,0,0,1,2,1,3,0004-00-0000-33.png,0003-00-0000-00.png
00000009,385,1,1449678422278,1449678422930,1040,244,0,0,0,3,2,1,5,0002-00-0000-02.png,0003-00-0000-86.png
00000009,386,1,1449678423871,1449678424932,514,227,0,0,0,2,3,1,5,0003-00-0000-82.png,0002-00-0001-36.png
00000009,387,1,1449678425874,1449678427103,510,239,0,0,0,3,4,1,7,0002-00-0000-37.png,0001-00-0001-94.png
00000009,388,1,1449678428079,1449678428742,447,363,0,0,0,0,1,1,1,0005-00-0001-14.png,0004-00-0001-64.png
00000009,389,1,1449678429770,1449678430841,445,391,0,0,0,1,2,1,3,0004-00-0001-79.png,0003-00-0000-67.png
00000009,390,1,1449678431767,1449678432469,887,361,0,0,0,1,0,1,1,0004-00-0001-32.png,0005-00-0001-86.png
00000009,391,1,1449678433516,1449678434611,1015,254,0,0,0,4,3,1,7,0001-00-0000-22.png,0002-00-0000-47.png
00000009,392,1,1449678435560,1449678436476,1024,265,0,0,0,2,1,1,3,0003-00-0000-51.png,0004-00-0001-07.png
00000009,393,0,1449678437582,1449678438961,1006,252,0,0,0,2,3,1,5,0003-00-0001-72.png,0002-00-0000-04.png
00000009,394,0,1449678442111,1449678442728,501,247,0,0,0,4,3,1,7,0001-00-0001-36.png,0002-00-0001-30.png
00000009,395,1,1449678445830,1449678446351,1041,253,0,0,0,2,1,1,3,0003-00-0001-03.png,0004-00-0001-32.png
00000009,396,1,1449678447289,1449678447420,866,534,0,0,0,3,2,1,5,0002-00-0000-94.png,0003-00-0000-62.png
00000009,397,0,1449678448550,1449678448662,862,476,0,0,0,0,1,1,1,0005-00-0000-34.png,0004-00-0000-55.png
00000009,398,0,1449678451589,1449678451601,863,388,0,0,0,3,4,1,7,0002-00-0001-21.png,0001-00-0000-16.png
00000009,399,0,1449678454732,1449678454760,888,332,0,0,0,1,2,1,3,0004-00-0000-59.png,0003-00-0000-51.png
00000009,400,0,1449678457943,1449678458593,503,239,0,0,0,1,0,1,1,0004-00-0000-48.png,0005-00-0000-80.png
00000009,401,0,1449678461635,1449678462389,497,257,0,0,0,2,1,1,3,0003-00-0001-10.png,0004-00-0000-79.png
00000009,402,1,1449678465386,1449678466262,1003,253,0,0,0,4,3,1,7,0001-00-0000-96.png,0002-00-0001-17.png
00000009,403,1,1449678467233,1449678468343,1025,253,0,0,0,3,2,1,5,0002-00-0001-09.png,0003-00-0000-74.png
00000009,404,1,1449678469250,1449678470013,939,349,0,0,0,1,0,1,1,0004-00-0001-01.png,0005-00-0001-90.png
00000009,405,0,1449678471098,1449678471118,881,429,0,0,0,1,2,1,3,0004-00-0000-74.png,0003-00-0001-96.png
00000009,406,0,1449678474008,1449678474587,912,313,0,0,0,3,4,1,7,0002-00-0000-34.png,0001-00-0000-75.png
00000009,407,0,1449678477764,1449678477796,888,319,0,0,0,2,3,1,5,0003-00-0000-26.png,0002-00-0001-42.png
00000009,408,1,1449678480905,1449678481468,401,358,0,0,0,0,1,1,1,0005-00-0001-46.png,0004-00-0000-05.png
00000009,409,1,1449678482447,1449678483305,1016,253,0,0,0,4,3,1,7,0001-00-0000-31.png,0002-00-0001-52.png
00000009,410,0,1449678484224,1449678484252,862,388,0,0,0,2,3,1,5,0003-00-0000-90.png,0002-00-0000-11.png
00000009,411,1,1449678487368,1449678487902,1041,253,0,0,0,2,1,1,3,0003-00-0001-15.png,0004-00-0000-33.png
00000009,412,1,1449678488773,1449678489768,494,233,0,0,0,3,4,1,7,0002-00-0000-48.png,0001-00-0001-59.png
00000009,413,1,1449678490672,1449678491354,1030,241,0,0,0,1,0,1,1,0004-00-0001-64.png,0005-00-0001-89.png
00000009,414,1,1449678492254,1449678492372,888,488,0,0,0,3,2,1,5,0002-00-0000-06.png,0003-00-0001-83.png
00000009,415,0,1449678493635,1449678493683,860,465,0,0,0,0,1,1,1,0005-00-0001-62.png,0004-00-0001-52.png
00000009,416,0,1449678496862,1449678496890,873,306,0,0,0,1,2,1,3,0004-00-0001-98.png,0003-00-0000-43.png
00000009,417,1,1449678499985,1449678500435,939,315,0,0,0,1,0,1,1,0004-00-0001-94.png,0005-00-0000-47.png
00000009,418,0,1449678501305,1449678502491,1041,290,0,0,0,3,4,1,7,0002-00-0001-31.png,0001-00-0000-56.png
00000009,419,1,1449678505600,1449678506173,1016,306,0,0,0,4,3,1,7,0001-00-0001-65.png,0002-00-0000-96.png
00000009,420,1,1449678507070,1449678507743,452,220,0,0,0,1,2,1,3,0004-00-0001-14.png,0003-00-0001-09.png
00000009,421,0,1449678508750,1449678509661,952,295,0,0,0,0,1,1,1,0005-00-0001-18.png,0004-00-0000-20.png
00000009,422,1,1449678512783,1449678513305,913,316,0,0,0,2,1,1,3,0003-00-0001-84.png,0004-00-0000-50.png
00000009,423,1,1449678514194,1449678515435,489,237,0,0,0,2,3,1,5,0003-00-0001-56.png,0002-00-0001-59.png
00000009,424,0,1449678516301,1449678517381,475,222,0,0,0,3,2,1,5,0002-00-0000-57.png,0003-00-0000-23.png
00000009,425,1,1449678520396,1449678520980,413,345,0,0,0,0,1,1,1,0005-00-0000-83.png,0004-00-0001-85.png
00000009,426,0,1449678521905,1449678522725,429,317,0,0,0,4,3,1,7,0001-00-0000-03.png,0002-00-0000-62.png
00000009,427,1,1449678525833,1449678526377,935,328,0,0,0,1,0,1,1,0004-00-0000-01.png,0005-00-0000-65.png
00000009,428,1,1449678527242,1449678528196,1000,279,0,0,0,2,1,1,3,0003-00-0001-55.png,0004-00-0001-74.png
00000009,429,1,1449678529172,1449678530185,513,224,0,0,0,3,4,1,7,0002-00-0000-01.png,0001-00-0000-44.png
00000009,430,1,1449678531127,1449678532160,956,295,0,0,0,3,2,1,5,0002-00-0000-88.png,0003-00-0001-57.png
00000009,431,0,1449678533108,1449678533136,892,389,0,0,0,2,3,1,5,0003-00-0001-04.png,0002-00-0000-21.png
00000009,432,0,1449678536037,1449678536584,939,296,0,0,0,1,2,1,3,0004-00-0000-36.png,0003-00-0001-44.png
00000009,433,1,1449678539735,1449678539751,862,332,0,0,0,3,2,1,5,0002-00-0000-19.png,0003-00-0000-22.png
00000009,434,0,1449678540748,1449678540887,887,544,0,0,0,1,2,1,3,0004-00-0000-92.png,0003-00-0001-36.png
00000009,435,1,1449678544027,1449678544631,477,260,0,0,0,0,1,1,1,0005-00-0001-79.png,0004-00-0001-98.png
00000009,436,1,1449678545521,1449678546612,1037,271,0,0,0,4,3,1,7,0001-00-0000-77.png,0002-00-0001-78.png
00000009,437,1,1449678547455,1449678548647,439,279,0,0,0,2,3,1,5,0003-00-0001-29.png,0002-00-0000-72.png
00000009,438,1,1449678549611,1449678550336,1016,253,0,0,0,2,1,1,3,0003-00-0001-16.png,0004-00-0000-68.png
00000009,439,1,1449678551289,1449678551357,864,382,0,0,0,1,0,1,1,0004-00-0000-10.png,0005-00-0001-27.png
00000009,440,0,1449678552552,1449678552629,877,499,0,0,0,3,4,1,7,0002-00-0000-20.png,0001-00-0000-21.png
00000009,441,1,1449678555603,1449678556548,913,294,0,0,0,4,3,1,7,0001-00-0001-05.png,0002-00-0000-73.png
00000009,442,1,1449678557525,1449678557602,861,508,0,0,0,3,2,1,5,0002-00-0001-73.png,0003-00-0001-15.png
00000009,443,1,1449678558684,1449678558811,882,521,0,0,0,2,1,1,3,0003-00-0000-08.png,0004-00-0001-16.png
00000009,444,0,1449678559899,1449678559935,888,458,0,0,0,3,4,1,7,0002-00-0000-21.png,0001-00-0000-41.png
00000009,445,1,1449678562939,1449678562947,862,343,0,0,0,1,0,1,1,0004-00-0001-08.png,0005-00-0001-37.png
00000009,446,0,1449678563953,1449678564871,936,381,0,0,0,2,3,1,5,0003-00-0000-55.png,0002-00-0001-72.png
00000009,447,1,1449678568026,1449678568603,501,266,0,0,0,0,1,1,1,0005-00-0001-53.png,0004-00-0000-23.png
00000009,448,1,1449678569497,1449678570338,384,298,0,0,0,1,2,1,3,0004-00-0001-51.png,0003-00-0000-91.png
00000009,449,1,1449678571285,1449678572128,939,388,0,0,0,3,2,1,5,0002-00-0000-22.png,0003-00-0000-64.png
00000009,450,0,1449678573055,1449678573114,861,530,0,0,0,1,2,1,3,0004-00-0000-05.png,0003-00-0000-52.png
00000009,451,0,1449678576253,1449678576898,1034,295,0,0,0,3,4,1,7,0002-00-0001-85.png,0001-00-0001-46.png
00000009,452,1,1449678579880,1449678580385,1041,292,0,0,0,1,0,1,1,0004-00-0001-60.png,0005-00-0000-49.png
00000009,453,0,1449678581304,1449678581419,858,527,0,0,0,0,1,1,1,0005-00-0000-47.png,0004-00-0001-90.png
00000009,454,1,1449678584500,1449678584641,876,279,0,0,0,2,1,1,3,0003-00-0000-72.png,0004-00-0000-42.png
00000009,455,0,1449678585664,1449678586638,913,317,0,0,0,2,3,1,5,0003-00-0000-80.png,0002-00-0000-10.png
00000009,456,1,1449678589799,1449678590312,913,296,0,0,0,4,3,1,7,0001-00-0001-33.png,0002-00-0000-01.png
00000009,457,1,1449678591280,1449678591386,870,471,0,0,0,4,3,1,7,0001-00-0000-27.png,0002-00-0000-61.png
00000009,458,1,1449678592489,1449678592599,866,492,0,0,0,1,0,1,1,0004-00-0000-47.png,0005-00-0000-55.png
00000009,459,1,1449678593643,1449678593703,861,493,0,0,0,3,2,1,5,0002-00-0001-64.png,0003-00-0001-16.png
00000009,460,1,1449678594902,1449678595934,486,253,0,0,0,0,1,1,1,0005-00-0000-62.png,0004-00-0001-49.png
00000009,461,1,1449678596810,1449678597976,514,251,0,0,0,3,4,1,7,0002-00-0000-41.png,0001-00-0001-95.png
00000009,462,1,1449678598961,1449678599678,924,368,0,0,0,2,1,1,3,0003-00-0001-74.png,0004-00-0001-50.png
00000009,463,0,1449678600650,1449678600748,875,476,0,0,0,2,3,1,5,0003-00-0001-61.png,0002-00-0001-78.png
00000009,464,1,1449678603907,1449678604544,491,406,0,0,0,1,2,1,3,0004-00-0001-40.png,0003-00-0001-33.png
00000009,465,1,1449678605428,1449678606385,416,328,0,0,0,1,2,1,3,0004-00-0000-46.png,0003-00-0001-17.png
00000009,466,1,1449678607327,1449678608539,467,384,0,0,0,3,4,1,7,0002-00-0000-52.png,0001-00-0001-58.png
00000009,467,1,1449678609453,1449678609568,865,471,0,0,0,3,2,1,5,0002-00-0000-20.png,0003-00-0000-27.png
00000009,468,0,1449678610667,1449678610762,862,451,0,0,0,0,1,1,1,0005-00-0000-99.png,0004-00-0001-35.png
00000009,469,1,1449678613778,1449678613810,888,320,0,0,0,2,1,1,3,0003-00-0000-07.png,0004-00-0000-83.png
00000009,470,0,1449678614730,1449678615659,895,280,0,0,0,2,3,1,5,0003-00-0001-68.png,0002-00-0001-55.png
00000009,471,1,1449678618764,1449678619338,939,358,0,0,0,1,0,1,1,0004-00-0001-13.png,0005-00-0001-61.png
00000009,472,0,1449678620192,1449678620980,462,376,0,0,0,4,3,1,7,0001-00-0000-02.png,0002-00-0001-07.png
00000009,473,1,1449678624070,1449678624605,493,267,0,0,0,3,4,1,7,0002-00-0000-60.png,0001-00-0001-69.png
00000009,474,0,1449678625561,1449678626516,401,306,0,0,0,2,1,1,3,0003-00-0000-95.png,0004-00-0001-06.png
00000009,475,0,1449678629576,1449678629644,962,314,0,0,0,1,2,1,3,0004-00-0000-64.png,0003-00-0000-03.png
00000009,476,0,1449678632755,1449678632799,873,332,0,0,0,0,1,1,1,0005-00-0000-38.png,0004-00-0001-35.png
00000009,477,1,1449678635845,1449678636439,401,347,0,0,0,2,3,1,5,0003-00-0001-12.png,0002-00-0000-43.png
00000009,478,0,1449678637335,1449678638272,503,235,0,0,0,3,2,1,5,0002-00-0001-49.png,0003-00-0001-28.png
00000009,479,1,1449678641243,1449678642256,913,295,0,0,0,4,3,1,7,0001-00-0000-42.png,0002-00-0000-94.png
00000009,480,1,1449678643163,1449678643247,862,448,0,0,0,1,0,1,1,0004-00-0001-40.png,0005-00-0000-35.png
00000009,481,1,1449678644225,1449678645278,927,332,0,0,0,1,0,1,1,0004-00-0000-27.png,0005-00-0001-45.png
00000009,482,0,1449678646132,1449678647232,952,306,0,0,0,3,4,1,7,0002-00-0001-56.png,0001-00-0001-30.png
00000009,483,1,1449678650277,1449678650921,437,410,0,0,0,0,1,1,1,0005-00-0000-59.png,0004-00-0001-40.png
00000009,484,1,1449678651744,1449678652512,399,335,0,0,0,1,2,1,3,0004-00-0001-02.png,0003-00-0001-93.png
00000009,485,1,1449678653437,1449678654336,944,349,0,0,0,2,1,1,3,0003-00-0000-30.png,0004-00-0000-61.png
00000009,486,1,1449678655313,1449678655373,882,414,0,0,0,4,3,1,7,0001-00-0000-60.png,0002-00-0000-06.png
00000009,487,0,1449678656468,1449678657645,915,330,0,0,0,2,3,1,5,0003-00-0000-83.png,0002-00-0000-29.png
00000009,488,0,1449678660788,1449678661305,402,352,0,0,0,3,2,1,5,0002-00-0001-90.png,0003-00-0001-30.png
00000009,489,1,1449678664366,1449678664973,939,367,0,0,0,2,1,1,3,0003-00-0000-00.png,0004-00-0000-31.png
00000009,490,0,1449678665835,1449678666867,1067,318,0,0,0,3,4,1,7,0002-00-0000-35.png,0001-00-0000-90.png
00000009,491,1,1449678669891,1449678670506,453,410,0,0,0,2,3,1,5,0003-00-0001-15.png,0002-00-0000-23.png
00000009,492,0,1449678671430,1449678672150,395,315,0,0,0,3,2,1,5,0002-00-0000-10.png,0003-00-0000-59.png
00000009,493,0,1449678675279,1449678675861,939,296,0,0,0,0,1,1,1,0005-00-0001-17.png,0004-00-0000-69.png
00000009,494,0,1449678678766,1449678679321,1017,264,0,0,0,1,2,1,3,0004-00-0001-06.png,0003-00-0000-33.png
00000009,495,1,1449678682494,1449678683037,1035,273,0,0,0,1,0,1,1,0004-00-0000-72.png,0005-00-0000-45.png
00000009,496,1,1449678683944,1449678684084,881,508,0,0,0,4,3,1,7,0001-00-0001-52.png,0002-00-0001-28.png
00000009,497,1,1449678685113,1449678685197,862,462,0,0,0,1,0,1,1,0004-00-0001-36.png,0005-00-0001-48.png
00000009,498,1,1449678686240,1449678687322,937,301,0,0,0,3,2,1,5,0002-00-0001-38.png,0003-00-0000-38.png
00000009,499,0,1449678688317,1449678688372,888,488,0,0,0,1,2,1,3,0004-00-0001-66.png,0003-00-0001-86.png
00000009,500,1,1449678691418,1449678692058,465,265,0,0,0,2,3,1,5,0003-00-0001-28.png,0002-00-0001-30.png
00000009,501,1,1449678693018,1449678693933,934,326,0,0,0,2,1,1,3,0003-00-0001-90.png,0004-00-0001-14.png
00000009,502,1,1449678694927,1449678695615,497,227,0,0,0,0,1,1,1,0005-00-0000-42.png,0004-00-0000-49.png
00000009,503,1,1449678696633,1449678697675,498,265,0,0,0,3,4,1,7,0002-00-0001-10.png,0001-00-0001-36.png
00000009,504,1,1449678698622,1449678699675,1033,253,0,0,0,4,3,1,7,0001-00-0001-37.png,0002-00-0000-13.png
00000009,505,0,1449678700671,1449678700683,888,423,0,0,0,3,4,1,7,0002-00-0000-93.png,0001-00-0000-11.png
00000009,506,1,1449678703641,1449678704172,939,368,0,0,0,3,2,1,5,0002-00-0001-80.png,0003-00-0000-02.png
00000009,507,0,1449678705067,1449678705931,512,241,0,0,0,4,3,1,7,0001-00-0000-44.png,0002-00-0001-15.png
00000009,508,1,1449678708937,1449678709542,963,338,0,0,0,2,1,1,3,0003-00-0000-90.png,0004-00-0000-67.png
00000009,509,0,1449678710424,1449678710472,857,446,0,0,0,0,1,1,1,0005-00-0000-83.png,0004-00-0000-90.png
00000009,510,1,1449678713598,1449678714175,486,272,0,0,0,1,2,1,3,0004-00-0000-06.png,0003-00-0000-38.png
00000009,511,1,1449678715036,1449678715854,1035,245,0,0,0,1,0,1,1,0004-00-0000-85.png,0005-00-0000-30.png
00000009,512,1,1449678716767,1449678717953,464,375,0,0,0,2,3,1,5,0003-00-0000-97.png,0002-00-0001-33.png
00000009,513,1,1449678718789,1449678719529,512,229,0,0,0,3,4,1,7,0002-00-0001-45.png,0001-00-0000-72.png
00000009,514,1,1449678720500,1449678721257,439,404,0,0,0,0,1,1,1,0005-00-0001-55.png,0004-00-0000-89.png
00000009,515,0,1449678722182,1449678723152,505,238,0,0,0,3,2,1,5,0002-00-0001-51.png,0003-00-0000-87.png
00000009,516,0,1449678726184,1449678726244,893,353,0,0,0,1,2,1,3,0004-00-0000-87.png,0003-00-0001-82.png
00000009,517,1,1449678729238,1449678729813,925,368,0,0,0,4,3,1,7,0001-00-0000-83.png,0002-00-0000-01.png
00000009,518,1,1449678730747,1449678731572,903,279,0,0,0,1,0,1,1,0004-00-0000-62.png,0005-00-0001-67.png
00000009,519,1,1449678732490,1449678732570,882,493,0,0,0,2,1,1,3,0003-00-0001-50.png,0004-00-0000-67.png
00000009,520,0,1449678733590,1449678733614,880,435,0,0,0,2,3,1,5,0003-00-0001-58.png,0002-00-0001-01.png
00000009,521,1,1449678736661,1449678737176,471,281,0,0,0,1,2,1,3,0004-00-0000-13.png,0003-00-0001-23.png
00000009,522,0,1449678738061,1449678738823,999,310,0,0,0,0,1,1,1,0005-00-0001-17.png,0004-00-0000-93.png
00000009,523,1,1449678741989,1449678742256,897,288,0,0,0,1,0,1,1,0004-00-0001-82.png,0005-00-0001-06.png
00000009,524,1,1449678743277,1449678744151,930,384,0,0,0,2,1,1,3,0003-00-0001-47.png,0004-00-0000-36.png
00000009,525,0,1449678745288,1449678745316,862,478,0,0,0,3,4,1,7,0002-00-0000-20.png,0001-00-0000-96.png
00000009,526,1,1449678748266,1449678748914,427,321,0,0,0,2,3,1,5,0003-00-0001-08.png,0002-00-0000-93.png
00000009,527,1,1449678749818,1449678750777,960,384,0,0,0,3,2,1,5,0002-00-0001-80.png,0003-00-0000-03.png
00000009,528,1,1449678751666,1449678752841,913,316,0,0,0,4,3,1,7,0001-00-0000-69.png,0002-00-0001-14.png
00000009,529,0,1449678753804,1449678753876,859,466,0,0,0,2,3,1,5,0003-00-0001-10.png,0002-00-0001-19.png
00000009,530,1,1449678756974,1449678757005,888,317,0,0,0,2,1,1,3,0003-00-0001-43.png,0004-00-0000-26.png
00000009,531,1,1449678758028,1449678758900,1037,245,0,0,0,3,2,1,5,0002-00-0001-16.png,0003-00-0001-89.png
00000009,532,1,1449678759825,1449678760564,419,287,0,0,0,1,2,1,3,0004-00-0000-34.png,0003-00-0001-90.png
00000009,533,1,1449678761401,1449678762144,982,273,0,0,0,1,0,1,1,0004-00-0000-91.png,0005-00-0001-72.png
00000009,534,1,1449678763244,1449678763328,866,458,0,0,0,4,3,1,7,0001-00-0001-07.png,0002-00-0001-62.png
00000009,535,0,1449678764407,1449678765284,1015,316,0,0,0,0,1,1,1,0005-00-0001-39.png,0004-00-0001-49.png
00000009,536,0,1449678768412,1449678769073,957,348,0,0,0,3,4,1,7,0002-00-0000-80.png,0001-00-0001-86.png
00000009,537,0,1449678772944,1449678773469,461,257,0,0,0,1,0,1,1,0004-00-0000-12.png,0005-00-0001-36.png
00000009,538,1,1449678776880,1449678777548,498,250,0,0,0,3,4,1,7,0002-00-0001-49.png,0001-00-0000-51.png
00000009,539,1,1449678778487,1449678779552,929,357,0,0,0,3,2,1,5,0002-00-0000-63.png,0003-00-0000-17.png
00000009,540,1,1449678780443,1449678781801,964,400,0,0,0,4,3,1,7,0001-00-0001-82.png,0002-00-0000-05.png
00000009,541,1,1449678782730,1449678783547,428,431,0,0,0,1,2,1,3,0004-00-0000-11.png,0003-00-0001-94.png
00000009,542,1,1449678784449,1449678785145,388,330,0,0,0,0,1,1,1,0005-00-0000-72.png,0004-00-0001-17.png
00000009,543,0,1449678786058,1449678786931,925,410,0,0,0,2,3,1,5,0003-00-0000-37.png,0002-00-0000-33.png
00000009,544,1,1449678790052,1449678790322,920,333,0,0,0,2,1,1,3,0003-00-0000-63.png,0004-00-0000-76.png
00000009,545,0,1449678791246,1449678792016,440,384,0,0,0,4,3,1,7,0001-00-0001-91.png,0002-00-0001-92.png
00000009,546,0,1449678794973,1449678795537,1130,349,0,0,0,0,1,1,1,0005-00-0000-98.png,0004-00-0000-30.png
00000009,547,1,1449678798460,1449678799037,485,255,0,0,0,1,2,1,3,0004-00-0001-96.png,0003-00-0000-15.png
00000009,548,1,1449678799898,1449678800625,918,299,0,0,0,3,2,1,5,0002-00-0000-10.png,0003-00-0000-47.png
00000009,549,1,1449678801521,1449678802257,1027,247,0,0,0,1,0,1,1,0004-00-0000-32.png,0005-00-0001-73.png
00000009,550,1,1449678803193,1449678803243,860,464,0,0,0,2,1,1,3,0003-00-0001-09.png,0004-00-0000-27.png
00000009,551,0,1449678804284,1449678805234,934,299,0,0,0,3,4,1,7,0002-00-0001-94.png,0001-00-0001-07.png
00000009,552,0,1449678808446,1449678808466,888,306,0,0,0,2,3,1,5,0003-00-0001-68.png,0002-00-0001-42.png
00000009,553,0,1449678811537,1449678811573,862,332,0,0,0,3,4,1,7,0002-00-0001-50.png,0001-00-0001-39.png
00000009,554,0,1449678814658,1449678814686,862,345,0,0,0,0,1,1,1,0005-00-0001-02.png,0004-00-0001-03.png
00000009,555,1,1449678817631,1449678818174,458,284,0,0,0,1,2,1,3,0004-00-0001-70.png,0003-00-0001-84.png
00000009,556,1,1449678819076,1449678819819,945,374,0,0,0,3,2,1,5,0002-00-0000-41.png,0003-00-0000-90.png
00000009,557,1,1449678820727,1449678820791,870,426,0,0,0,4,3,1,7,0001-00-0000-39.png,0002-00-0001-41.png
00000009,558,1,1449678821822,1449678822500,898,350,0,0,0,1,0,1,1,0004-00-0001-91.png,0005-00-0001-32.png
00000009,559,1,1449678823395,1449678824344,1016,264,0,0,0,2,1,1,3,0003-00-0001-25.png,0004-00-0001-19.png
00000009,560,0,1449678825401,1449678825461,876,440,0,0,0,2,3,1,5,0003-00-0000-76.png,0002-00-0001-12.png
00000009,561,1,1449678828402,1449678829003,963,308,0,0,0,2,1,1,3,0003-00-0001-76.png,0004-00-0001-86.png
00000009,562,0,1449678829893,1449678829966,873,485,0,0,0,2,3,1,5,0003-00-0001-55.png,0002-00-0001-65.png
00000009,563,1,1449678833112,1449678833148,862,317,0,0,0,1,0,1,1,0004-00-0000-52.png,0005-00-0001-88.png
00000009,564,0,1449678834055,1449678834725,494,233,0,0,0,4,3,1,7,0001-00-0000-36.png,0002-00-0000-06.png
00000009,565,1,1449678837793,1449678838044,995,333,0,0,0,3,2,1,5,0002-00-0000-38.png,0003-00-0001-36.png
00000009,566,1,1449678839004,1449678839775,475,222,0,0,0,0,1,1,1,0005-00-0001-90.png,0004-00-0000-95.png
00000009,567,1,1449678840633,1449678842394,458,235,0,0,0,3,4,1,7,0002-00-0000-23.png,0001-00-0000-24.png
00000009,568,1,1449678843330,1449678844026,492,240,0,0,0,1,2,1,3,0004-00-0001-95.png,0003-00-0001-64.png
00000009,569,1,1449678844940,1449678845695,1023,260,0,0,0,2,1,1,3,0003-00-0001-33.png,0004-00-0001-90.png
00000009,570,1,1449678846689,1449678846713,886,393,0,0,0,4,3,1,7,0001-00-0001-89.png,0002-00-0001-43.png
00000009,571,1,1449678847840,1449678848564,998,310,0,0,0,1,0,1,1,0004-00-0001-75.png,0005-00-0001-48.png
00000009,572,0,1449678849550,1449678849598,862,447,0,0,0,1,2,1,3,0004-00-0001-69.png,0003-00-0000-87.png
00000009,573,0,1449678871384,1449678871909,459,284,0,0,0,3,2,1,5,0002-00-0000-15.png,0003-00-0001-78.png
00000009,574,0,1449678875013,1449678875033,881,307,0,0,0,0,1,1,1,0005-00-0000-44.png,0004-00-0000-98.png
00000009,575,0,1449678880023,1449678880241,860,283,0,0,0,2,3,1,5,0003-00-0001-15.png,0002-00-0001-45.png
00000009,576,0,1449678883342,1449678883394,928,331,0,0,0,3,4,1,7,0002-00-0001-86.png,0001-00-0001-70.png
00000009,577,1,1449678886250,1449678886826,473,255,0,0,0,1,2,1,3,0004-00-0001-60.png,0003-00-0000-62.png
00000009,578,0,1449678887833,1449678888861,910,310,0,0,0,3,4,1,7,0002-00-0001-22.png,0001-00-0000-83.png
00000009,579,1,1449678891954,1449678891987,864,316,0,0,0,3,2,1,5,0002-00-0000-87.png,0003-00-0000-91.png
00000009,580,1,1449678892954,1449678893599,882,287,0,0,0,1,0,1,1,0004-00-0000-75.png,0005-00-0001-34.png
00000009,581,1,1449678895117,1449678895323,886,538,0,0,0,2,1,1,3,0003-00-0001-18.png,0004-00-0001-92.png
00000009,582,0,1449678896348,1449678896408,862,421,0,0,0,0,1,1,1,0005-00-0000-81.png,0004-00-0001-98.png
00000009,583,1,1449678899401,1449678899996,477,246,0,0,0,2,3,1,5,0003-00-0000-90.png,0002-00-0000-34.png
00000009,584,0,1449678900899,1449678901727,470,237,0,0,0,4,3,1,7,0001-00-0001-33.png,0002-00-0000-17.png
00000009,585,1,1449678904878,1449678905512,892,335,0,0,0,2,1,1,3,0003-00-0001-21.png,0004-00-0001-32.png
00000009,586,1,1449678906396,1449678907317,388,344,0,0,0,2,3,1,5,0003-00-0001-08.png,0002-00-0001-19.png
00000009,587,1,1449678908222,1449678909030,507,291,0,0,0,0,1,1,1,0005-00-0001-14.png,0004-00-0001-15.png
00000009,588,0,1449678909891,1449678911288,504,318,0,0,0,4,3,1,7,0001-00-0000-52.png,0002-00-0000-22.png
00000009,589,1,1449678914552,1449678914592,868,324,0,0,0,1,0,1,1,0004-00-0001-12.png,0005-00-0000-77.png
00000009,590,1,1449678915580,1449678916195,421,334,0,0,0,1,2,1,3,0004-00-0001-25.png,0003-00-0000-93.png
00000009,591,1,1449678917136,1449678917993,471,268,0,0,0,3,4,1,7,0002-00-0001-46.png,0001-00-0000-97.png
00000009,592,1,1449678918895,1449678918927,890,394,0,0,0,3,2,1,5,0002-00-0000-65.png,0003-00-0000-62.png
00000009,593,1,1449678920168,1449678920228,878,444,0,0,0,1,0,1,1,0004-00-0000-26.png,0005-00-0001-19.png
00000009,594,0,1449678921253,1449678922039,897,310,0,0,0,3,4,1,7,0002-00-0001-85.png,0001-00-0000-22.png
00000009,595,0,1449678925157,1449678925177,893,315,0,0,0,0,1,1,1,0005-00-0000-23.png,0004-00-0001-76.png
00000009,596,0,1449678928106,1449678928659,487,301,0,0,0,3,2,1,5,0002-00-0000-92.png,0003-00-0001-55.png
00000009,597,0,1449678931965,1449678932519,428,382,0,0,0,4,3,1,7,0001-00-0000-01.png,0002-00-0000-84.png
00000009,598,1,1449678935503,1449678936020,1016,253,0,0,0,2,1,1,3,0003-00-0000-81.png,0004-00-0000-80.png
00000009,599,0,1449678936892,1449678936924,867,389,0,0,0,2,3,1,5,0003-00-0000-18.png,0002-00-0000-19.png
00000009,600,0,1449678939996,1449678940786,913,332,0,0,0,1,2,1,3,0004-00-0000-76.png,0003-00-0000-56.png
00000009,601,1,1449678943651,1449678944182,927,306,0,0,0,3,2,1,5,0002-00-0001-76.png,0003-00-0001-32.png
00000009,602,1,1449678945081,1449678945125,862,410,0,0,0,4,3,1,7,0001-00-0000-21.png,0002-00-0001-82.png
00000009,603,0,1449678946068,1449678946163,862,436,0,0,0,2,3,1,5,0003-00-0000-68.png,0002-00-0001-10.png
00000009,604,1,1449678949205,1449678949825,939,346,0,0,0,2,1,1,3,0003-00-0001-44.png,0004-00-0000-97.png
00000009,605,1,1449678950739,1449678951417,472,235,0,0,0,1,2,1,3,0004-00-0000-03.png,0003-00-0001-96.png
00000009,606,1,1449678952325,1449678953429,445,391,0,0,0,3,4,1,7,0002-00-0000-71.png,0001-00-0001-40.png
00000009,607,1,1449678954323,1449678954999,492,237,0,0,0,0,1,1,1,0005-00-0000-03.png,0004-00-0000-23.png
00000009,608,0,1449678955895,1449678956643,505,244,0,0,0,1,0,1,1,0004-00-0001-48.png,0005-00-0001-35.png
00000009,609,0,1449678959980,1449678960574,1041,262,0,0,0,2,3,1,5,0003-00-0000-95.png,0002-00-0001-92.png
00000009,610,1,1449678963477,1449678964051,1032,314,0,0,0,1,0,1,1,0004-00-0001-57.png,0005-00-0000-88.png
00000009,611,1,1449678964895,1449678965063,887,541,0,0,0,4,3,1,7,0001-00-0000-28.png,0002-00-0000-96.png
00000009,612,1,1449678966209,1449678967091,1024,274,0,0,0,3,2,1,5,0002-00-0000-10.png,0003-00-0000-55.png
00000009,613,0,1449678968069,1449678968115,897,478,0,0,0,1,2,1,3,0004-00-0000-74.png,0003-00-0000-51.png
00000009,614,1,1449678970987,1449678971482,1013,270,0,0,0,2,1,1,3,0003-00-0001-63.png,0004-00-0001-91.png
00000009,615,0,1449678972349,1449678972468,861,508,0,0,0,3,4,1,7,0002-00-0000-85.png,0001-00-0000-86.png
00000009,616,0,1449678975307,1449678975388,913,410,0,0,0,0,1,1,1,0005-00-0000-79.png,0004-00-0001-77.png
00000009,617,1,1449678978541,1449678979048,920,309,0,0,0,2,1,1,3,0003-00-0001-41.png,0004-00-0001-03.png
00000009,618,0,1449678979911,1449678980690,508,229,0,0,0,1,0,1,1,0004-00-0000-98.png,0005-00-0001-33.png
00000009,619,0,1449678983826,1449678984292,1017,274,0,0,0,3,4,1,7,0002-00-0000-84.png,0001-00-0000-89.png
00000009,620,0,1449678987417,1449678987441,869,339,0,0,0,1,2,1,3,0004-00-0001-87.png,0003-00-0000-92.png
00000009,621,1,1449678990625,1449678990758,900,332,0,0,0,3,2,1,5,0002-00-0000-65.png,0003-00-0001-43.png
00000009,622,1,1449678991730,1449678992844,990,294,0,0,0,4,3,1,7,0001-00-0000-27.png,0002-00-0001-99.png
00000009,623,0,1449678993716,1449678993776,864,440,0,0,0,0,1,1,1,0005-00-0001-37.png,0004-00-0001-14.png
00000009,624,1,1449678997059,1449678997788,501,269,0,0,0,2,3,1,5,0003-00-0001-12.png,0002-00-0001-03.png
00000009,625,1,1449678998644,1449678999369,1027,227,0,0,0,1,0,1,1,0004-00-0000-77.png,0005-00-0000-70.png
00000009,626,0,1449679000244,1449679000294,896,426,0,0,0,3,4,1,7,0002-00-0000-77.png,0001-00-0000-38.png
00000009,627,1,1449679003385,1449679003963,1067,279,0,0,0,4,3,1,7,0001-00-0000-51.png,0002-00-0000-53.png
00000009,628,1,1449679004795,1449679005515,482,227,0,0,0,1,2,1,3,0004-00-0000-21.png,0003-00-0001-85.png
00000009,629,1,1449679006434,1449679007302,462,405,0,0,0,2,3,1,5,0003-00-0000-25.png,0002-00-0001-81.png
00000009,630,1,1449679008150,1449679008877,939,358,0,0,0,3,2,1,5,0002-00-0000-80.png,0003-00-0001-47.png
00000009,631,1,1449679009825,1449679010533,487,281,0,0,0,0,1,1,1,0005-00-0001-28.png,0004-00-0001-30.png
00000009,632,0,1449679011565,1449679012332,512,287,0,0,0,2,1,1,3,0003-00-0001-50.png,0004-00-0001-15.png
00000009,633,1,1449679056050,1449679057018,886,346,0,0,0,1,0,1,1,0004-00-0000-02.png,0005-00-0000-33.png
00000009,634,1,1449679058111,1449679059117,378,353,0,0,0,2,3,1,5,0003-00-0001-03.png,0002-00-0001-30.png
00000009,635,1,1449679059975,1449679060721,990,267,0,0,0,2,1,1,3,0003-00-0000-27.png,0004-00-0001-65.png
00000009,636,0,1449679061619,1449679061678,860,432,0,0,0,1,2,1,3,0004-00-0001-22.png,0003-00-0001-22.png
00000009,637,0,1449679064835,1449679065524,460,272,0,0,0,3,2,1,5,0002-00-0000-46.png,0003-00-0000-70.png
00000009,638,0,1449679068632,1449679068672,888,294,0,0,0,3,4,1,7,0002-00-0000-71.png,0001-00-0000-64.png
00000009,639,1,1449679071575,1449679072108,478,263,0,0,0,0,1,1,1,0005-00-0000-38.png,0004-00-0001-95.png
00000009,640,0,1449679072984,1449679073718,470,255,0,0,0,4,3,1,7,0001-00-0001-17.png,0002-00-0001-56.png
00000009,641,1,1449679076879,1449679076923,892,281,0,0,0,1,0,1,1,0004-00-0000-42.png,0005-00-0001-00.png
00000009,642,1,1449679077857,1449679078502,487,217,0,0,0,1,2,1,3,0004-00-0000-75.png,0003-00-0001-66.png
00000009,643,0,1449679079413,1449679080238,990,279,0,0,0,3,4,1,7,0002-00-0000-41.png,0001-00-0001-07.png
00000009,644,1,1449679099768,1449679100405,476,269,0,0,0,0,1,1,1,0005-00-0000-10.png,0004-00-0001-98.png
00000009,645,1,1449679101276,1449679102107,1016,265,0,0,0,2,1,1,3,0003-00-0000-88.png,0004-00-0000-99.png
00000009,646,0,1449679103035,1449679103978,484,262,0,0,0,3,2,1,5,0002-00-0000-14.png,0003-00-0000-15.png
00000009,647,1,1449679106909,1449679107425,939,396,0,0,0,4,3,1,7,0001-00-0001-73.png,0002-00-0001-68.png
00000009,648,1,1449679108299,1449679109371,502,275,0,0,0,2,3,1,5,0003-00-0000-20.png,0002-00-0001-34.png
00000009,649,1,1449679110238,1449679110967,1000,259,0,0,0,1,0,1,1,0004-00-0001-54.png,0005-00-0000-33.png
00000009,650,0,1449679111797,1449679112548,492,226,0,0,0,3,2,1,5,0002-00-0001-32.png,0003-00-0000-75.png
00000009,651,1,1449679135127,1449679135210,963,265,0,0,0,4,3,1,7,0001-00-0001-99.png,0002-00-0000-52.png
00000009,652,1,1449679136271,1449679136928,457,286,0,0,0,0,1,1,1,0005-00-0001-94.png,0004-00-0000-16.png
00000009,653,1,1449679138303,1449679138948,478,309,0,0,0,2,3,1,5,0003-00-0000-44.png,0002-00-0000-16.png
00000009,654,1,1449679139845,1449679140542,423,430,0,0,0,1,2,1,3,0004-00-0001-33.png,0003-00-0001-65.png
00000009,655,1,1449679141389,1449679142001,888,318,0,0,0,2,1,1,3,0003-00-0001-29.png,0004-00-0001-78.png
00000009,656,1,1449679143052,1449679143715,446,264,0,0,0,3,4,1,7,0002-00-0001-09.png,0001-00-0000-46.png
00000009,657,0,1449679144672,1449679145544,872,309,0,0,0,3,4,1,7,0002-00-0000-54.png,0001-00-0000-85.png
00000009,658,1,1449679150951,1449679151498,472,264,0,0,0,0,1,1,1,0005-00-0001-54.png,0004-00-0000-20.png
00000009,659,1,1449679152320,1449679153075,451,249,0,0,0,1,2,1,3,0004-00-0001-13.png,0003-00-0001-68.png
00000009,660,0,1449679154013,1449679154864,401,384,0,0,0,2,1,1,3,0003-00-0000-07.png,0004-00-0001-32.png
00000009,661,1,1449679157785,1449679158554,458,262,0,0,0,2,3,1,5,0003-00-0000-53.png,0002-00-0001-58.png
00000009,662,1,1449679159438,1449679160496,904,329,0,0,0,3,2,1,5,0002-00-0001-62.png,0003-00-0001-86.png
00000009,663,1,1449679161473,1449679162433,903,332,0,0,0,1,0,1,1,0004-00-0001-43.png,0005-00-0001-87.png
00000009,664,0,1449679163404,1449679164079,393,363,0,0,0,4,3,1,7,0001-00-0001-59.png,0002-00-0000-65.png
00000009,665,1,1449679167178,1449679167206,862,375,0,0,0,4,3,1,7,0001-00-0000-50.png,0002-00-0001-33.png
00000009,666,1,1449679168114,1449679168994,913,315,0,0,0,3,2,1,5,0002-00-0000-37.png,0003-00-0000-99.png
00000009,667,1,1449679169920,1449679170615,483,279,0,0,0,1,2,1,3,0004-00-0000-05.png,0003-00-0001-64.png
00000009,668,1,1449679171470,1449679172505,486,247,0,0,0,0,1,1,1,0005-00-0001-96.png,0004-00-0001-47.png
00000009,669,1,1449679173400,1449679174222,991,262,0,0,0,2,1,1,3,0003-00-0001-00.png,0004-00-0001-15.png
00000009,670,0,1449679175256,1449679176051,456,245,0,0,0,1,0,1,1,0004-00-0001-12.png,0005-00-0000-19.png
00000009,671,1,1449679190027,1449679190552,481,277,0,0,0,2,3,1,5,0003-00-0001-57.png,0002-00-0000-48.png
00000009,672,0,1449679191440,1449679192217,888,332,0,0,0,3,4,1,7,0002-00-0000-12.png,0001-00-0001-15.png
00000009,673,0,1449679195148,1449679195919,456,284,0,0,0,4,3,1,7,0001-00-0000-35.png,0002-00-0000-89.png
00000009,674,1,1449679205881,1449679206479,326,391,0,0,0,3,4,1,7,0002-00-0001-03.png,0001-00-0001-12.png
00000009,675,1,1449679207589,1449679208376,432,269,0,0,0,1,2,1,3,0004-00-0000-81.png,0003-00-0001-80.png
00000009,676,0,1449679209328,1449679210177,484,269,0,0,0,3,2,1,5,0002-00-0000-88.png,0003-00-0001-02.png
00000009,677,1,1449679213059,1449679213091,870,401,0,0,0,1,0,1,1,0004-00-0000-92.png,0005-00-0001-12.png
00000009,678,0,1449679213953,1449679214790,912,324,0,0,0,2,3,1,5,0003-00-0001-12.png,0002-00-0000-53.png
00000009,679,1,1449679218220,1449679218725,415,406,0,0,0,0,1,1,1,0005-00-0000-23.png,0004-00-0000-66.png
00000009,680,1,1449679219609,1449679220603,1016,267,0,0,0,2,1,1,3,0003-00-0001-07.png,0004-00-0001-31.png
00000009,681,1,1449679221527,1449679221645,864,528,0,0,0,4,3,1,7,0001-00-0001-13.png,0002-00-0000-52.png
00000009,682,1,1449679222728,1449679223436,468,241,0,0,0,1,2,1,3,0004-00-0001-40.png,0003-00-0000-51.png
00000009,683,1,1449679224367,1449679225048,983,299,0,0,0,2,1,1,3,0003-00-0000-36.png,0004-00-0001-24.png
00000009,684,0,1449679226119,1449679226138,862,436,0,0,0,3,4,1,7,0002-00-0000-28.png,0001-00-0000-50.png
00000009,685,1,1449679229208,1449679229871,1024,253,0,0,0,1,0,1,1,0004-00-0001-84.png,0005-00-0001-68.png
00000009,686,1,1449679230707,1449679231433,511,268,0,0,0,0,1,1,1,0005-00-0000-15.png,0004-00-0000-13.png
00000009,687,0,1449679232319,1449679233434,487,227,0,0,0,3,2,1,5,0002-00-0000-47.png,0003-00-0000-45.png
00000009,688,1,1449679241113,1449679241851,427,394,0,0,0,2,3,1,5,0003-00-0000-29.png,0002-00-0001-80.png
00000009,689,0,1449679242745,1449679243693,913,306,0,0,0,3,4,1,7,0002-00-0001-01.png,0001-00-0001-74.png
00000009,690,1,1449679246827,1449679247411,1004,265,0,0,0,1,0,1,1,0004-00-0001-52.png,0005-00-0001-41.png
00000009,691,0,1449679248267,1449679249000,484,257,0,0,0,4,3,1,7,0001-00-0001-76.png,0002-00-0000-28.png
00000009,692,0,1449679252113,1449679252126,862,306,0,0,0,0,1,1,1,0005-00-0000-82.png,0004-00-0000-36.png
00000009,693,1,1449679255123,1449679255688,964,409,0,0,0,3,2,1,5,0002-00-0001-83.png,0003-00-0001-12.png
00000009,694,0,1449679256606,1449679256751,862,507,0,0,0,1,2,1,3,0004-00-0001-77.png,0003-00-0000-54.png
00000009,695,1,1449679259732,1449679260318,1022,322,0,0,0,2,1,1,3,0003-00-0001-54.png,0004-00-0000-10.png
00000009,696,0,1449679261163,1449679261313,885,459,0,0,0,2,3,1,5,0003-00-0001-80.png,0002-00-0001-48.png
00000009,697,1,1449679264495,1449679264546,895,335,0,0,0,3,2,1,5,0002-00-0000-73.png,0003-00-0000-71.png
00000009,698,1,1449679265518,1449679266254,388,318,0,0,0,0,1,1,1,0005-00-0000-81.png,0004-00-0001-23.png
00000009,699,1,1449679267107,1449679267894,1008,293,0,0,0,2,1,1,3,0003-00-0001-16.png,0004-00-0000-22.png
00000009,700,1,1449679268776,1449679269770,926,416,0,0,0,4,3,1,7,0001-00-0001-09.png,0002-00-0000-63.png
00000009,701,1,1449679270736,1449679270792,862,436,0,0,0,1,0,1,1,0004-00-0000-07.png,0005-00-0000-94.png
00000009,702,1,1449679271981,1449679272822,491,251,0,0,0,1,2,1,3,0004-00-0000-73.png,0003-00-0000-35.png
00000009,703,0,1449679273756,1449679275582,1016,261,0,0,0,3,4,1,7,0002-00-0000-52.png,0001-00-0000-59.png
00000009,704,1,1449679278498,1449679279181,498,285,0,0,0,2,3,1,5,0003-00-0000-54.png,0002-00-0000-55.png
00000009,705,0,1449679280008,1449679280967,939,400,0,0,0,2,3,1,5,0003-00-0000-19.png,0002-00-0001-45.png
00000009,706,1,1449679283899,1449679284580,990,279,0,0,0,4,3,1,7,0001-00-0001-17.png,0002-00-0000-82.png
00000009,707,1,1449679285510,1449679286618,495,261,0,0,0,0,1,1,1,0005-00-0001-98.png,0004-00-0001-06.png
00000009,708,1,1449679287523,1449679288421,438,351,0,0,0,3,4,1,7,0002-00-0001-51.png,0001-00-0000-96.png
00000009,709,0,1449679289319,1449679290313,510,253,0,0,0,1,0,1,1,0004-00-0001-12.png,0005-00-0001-55.png
00000009,710,1,1449679294913,1449679295481,908,290,0,0,0,3,2,1,5,0002-00-0000-60.png,0003-00-0001-96.png
00000009,711,1,1449679296526,1449679297161,509,247,0,0,0,1,2,1,3,0004-00-0000-20.png,0003-00-0001-31.png
00000009,712,1,1449679298052,1449679298765,935,376,0,0,0,2,1,1,3,0003-00-0001-03.png,0004-00-0000-35.png
00000009,713,0,1449679299602,1449679301408,401,347,0,0,0,4,3,1,7,0001-00-0000-10.png,0002-00-0001-76.png
00000009,714,0,1449679304412,1449679304608,888,410,0,0,0,0,1,1,1,0005-00-0000-45.png,0004-00-0001-44.png
00000009,715,0,1449679307781,1449679308469,477,261,0,0,0,1,0,1,1,0004-00-0000-27.png,0005-00-0001-76.png
00000009,716,0,1449679311676,1449679311696,879,317,0,0,0,2,3,1,5,0003-00-0000-55.png,0002-00-0001-11.png
00000009,717,0,1449679314769,1449679314797,871,384,0,0,0,1,2,1,3,0004-00-0000-42.png,0003-00-0000-68.png
00000009,718,1,1449679317990,1449679318002,877,333,0,0,0,2,1,1,3,0003-00-0000-41.png,0004-00-0000-61.png
00000009,719,0,1449679319013,1449679319900,913,290,0,0,0,3,4,1,7,0002-00-0000-53.png,0001-00-0000-36.png
00000009,720,0,1449679328101,1449679328883,376,343,0,0,0,3,2,1,5,0002-00-0000-31.png,0003-00-0000-32.png
00000009,721,1,1449679331741,1449679332356,993,293,0,0,0,2,1,1,3,0003-00-0000-70.png,0004-00-0000-82.png
00000009,722,1,1449679333199,1449679333930,468,233,0,0,0,1,2,1,3,0004-00-0000-33.png,0003-00-0000-68.png
00000009,723,1,1449679334814,1449679335642,978,253,0,0,0,3,2,1,5,0002-00-0001-26.png,0003-00-0001-37.png
00000009,724,0,1449679336673,1449679337668,918,305,0,0,0,0,1,1,1,0005-00-0000-48.png,0004-00-0000-05.png
00000009,725,1,1449679340705,1449679341189,1016,253,0,0,0,1,0,1,1,0004-00-0001-93.png,0005-00-0001-91.png
00000009,726,0,1449679342044,1449679342849,984,260,0,0,0,3,4,1,7,0002-00-0001-36.png,0001-00-0001-04.png
00000009,727,1,1449679345924,1449679346628,478,263,0,0,0,2,3,1,5,0003-00-0000-31.png,0002-00-0001-97.png
00000009,728,1,1449679347557,1449679348553,939,368,0,0,0,4,3,1,7,0001-00-0001-65.png,0002-00-0000-14.png
00000009,729,0,1449679349468,1449679350269,459,260,0,0,0,1,0,1,1,0004-00-0001-04.png,0005-00-0001-39.png
00000009,730,1,1449679353445,1449679354153,481,250,0,0,0,3,4,1,7,0002-00-0001-03.png,0001-00-0001-94.png
00000009,731,0,1449679355072,1449679356059,517,224,0,0,0,4,3,1,7,0001-00-0001-02.png,0002-00-0001-27.png
00000009,732,1,1449679359001,1449679359630,1016,282,0,0,0,3,2,1,5,0002-00-0000-55.png,0003-00-0000-65.png
00000009,733,0,1449679360486,1449679361656,939,306,0,0,0,2,3,1,5,0003-00-0000-76.png,0002-00-0001-72.png
00000009,734,1,1449679364761,1449679365256,1016,270,0,0,0,2,1,1,3,0003-00-0001-50.png,0004-00-0000-21.png
00000009,735,1,1449679366196,1449679366824,489,241,0,0,0,1,2,1,3,0004-00-0001-01.png,0003-00-0000-22.png
00000009,736,0,1449679367765,1449679368450,913,294,0,0,0,0,1,1,1,0005-00-0001-45.png,0004-00-0000-92.png
00000009,737,1,1449679371409,1449679371932,930,349,0,0,0,2,1,1,3,0003-00-0000-21.png,0004-00-0000-15.png
00000009,738,1,1449679372883,1449679373921,497,221,0,0,0,3,4,1,7,0002-00-0000-89.png,0001-00-0001-43.png
00000009,739,1,1449679374910,1449679376162,461,271,0,0,0,1,2,1,3,0004-00-0000-43.png,0003-00-0000-90.png
00000009,740,1,1449679377121,1449679378107,946,401,0,0,0,3,2,1,5,0002-00-0001-97.png,0003-00-0000-36.png
00000009,741,0,1449679379094,1449679379976,502,258,0,0,0,1,0,1,1,0004-00-0001-93.png,0005-00-0001-20.png
00000009,742,1,1449679394512,1449679395029,920,295,0,0,0,4,3,1,7,0001-00-0000-43.png,0002-00-0000-87.png
00000009,743,1,1449679396165,1449679396949,452,283,0,0,0,2,3,1,5,0003-00-0000-90.png,0002-00-0000-95.png
00000009,744,1,1449679397953,1449679398789,458,250,0,0,0,0,1,1,1,0005-00-0000-91.png,0004-00-0000-32.png
00000009,745,0,1449679399670,1449679399682,523,513,0,0,0,1,0,1,1,0004-00-0000-35.png,0005-00-0001-99.png
00000009,746,1,1449679402501,1449679403297,472,405,0,0,0,2,3,1,5,0003-00-0000-22.png,0002-00-0001-96.png
00000009,747,1,1449679404232,1449679404252,516,488,0,0,0,3,4,1,7,0002-00-0001-04.png,0001-00-0000-09.png
00000009,748,1,1449679405254,1449679406089,929,416,0,0,0,2,1,1,3,0003-00-0000-97.png,0004-00-0001-83.png
00000009,749,1,1449679407122,1449679407728,485,245,0,0,0,1,2,1,3,0004-00-0000-12.png,0003-00-0001-59.png
00000009,750,0,1449679408740,1449679409911,1092,320,0,0,0,0,1,1,1,0005-00-0001-20.png,0004-00-0000-96.png
00000009,751,1,1449679412999,1449679413650,990,291,0,0,0,4,3,1,7,0001-00-0001-39.png,0002-00-0000-75.png
00000009,752,1,1449679414576,1449679415591,945,315,0,0,0,3,2,1,5,0002-00-0000-05.png,0003-00-0000-03.png
00000009,753,0,1449679416526,1449679417287,1016,253,0,0,0,0,1,1,1,0005-00-0001-59.png,0004-00-0000-55.png
00000009,754,1,1449679420252,1449679420268,875,384,0,0,0,3,2,1,5,0002-00-0001-19.png,0003-00-0000-20.png
00000009,755,0,1449679421236,1449679422044,479,262,0,0,0,1,0,1,1,0004-00-0000-70.png,0005-00-0001-05.png
00000009,756,1,1449679425051,1449679425577,492,279,0,0,0,1,2,1,3,0004-00-0001-49.png,0003-00-0000-44.png
00000009,757,0,1449679426503,1449679427321,514,239,0,0,0,4,3,1,7,0001-00-0000-92.png,0002-00-0000-53.png
00000009,758,1,1449679430358,1449679430881,950,306,0,0,0,2,1,1,3,0003-00-0001-90.png,0004-00-0000-03.png
00000009,759,1,1449679431725,1449679432723,498,249,0,0,0,3,4,1,7,0002-00-0000-48.png,0001-00-0001-58.png
00000009,760,1,1449679433718,1449679435325,484,255,0,0,0,2,3,1,5,0003-00-0000-11.png,0002-00-0000-59.png
00000009,761,0,1449679436303,1449679437352,1017,239,0,0,0,3,4,1,7,0002-00-0000-03.png,0001-00-0001-51.png
00000009,762,1,1449679440430,1449679440988,445,258,0,0,0,1,2,1,3,0004-00-0001-04.png,0003-00-0001-79.png
00000009,763,1,1449679441912,1449679442812,990,270,0,0,0,1,0,1,1,0004-00-0000-49.png,0005-00-0000-36.png
00000009,764,1,1449679443669,1449679444605,466,240,0,0,0,0,1,1,1,0005-00-0001-73.png,0004-00-0001-46.png
00000009,765,1,1449679445568,1449679446253,953,266,0,0,0,2,1,1,3,0003-00-0000-55.png,0004-00-0000-60.png
00000009,766,1,1449679447349,1449679447483,859,462,0,0,0,4,3,1,7,0001-00-0000-69.png,0002-00-0000-63.png
00000009,767,1,1449679448592,1449679449832,508,262,0,0,0,2,3,1,5,0003-00-0001-08.png,0002-00-0001-14.png
00000009,768,0,1449679450796,1449679451580,520,236,0,0,0,3,2,1,5,0002-00-0001-88.png,0003-00-0000-57.png
00000009,769,0,1449679454762,1449679455329,910,288,0,0,0,1,2,1,3,0004-00-0001-90.png,0003-00-0000-48.png
00000009,770,1,1449679458370,1449679458899,504,241,0,0,0,3,4,1,7,0002-00-0001-26.png,0001-00-0000-97.png
00000009,771,1,1449679459850,1449679460548,1035,246,0,0,0,2,1,1,3,0003-00-0000-40.png,0004-00-0001-65.png
00000009,772,1,1449679461510,1449679462931,901,332,0,0,0,4,3,1,7,0001-00-0000-54.png,0002-00-0000-65.png
00000009,773,0,1449679463935,1449679464031,870,450,0,0,0,0,1,1,1,0005-00-0001-75.png,0004-00-0000-61.png
00000009,774,1,1449679466964,1449679467023,900,410,0,0,0,1,0,1,1,0004-00-0001-53.png,0005-00-0001-44.png
00000009,775,1,1449679468037,1449679468869,494,233,0,0,0,2,3,1,5,0003-00-0001-44.png,0002-00-0001-69.png
00000009,776,1,1449679469837,1449679470963,924,332,0,0,0,3,2,1,5,0002-00-0000-71.png,0003-00-0000-60.png
00000009,777,0,1449679471854,1449679472856,939,348,0,0,0,1,2,1,3,0004-00-0001-16.png,0003-00-0000-76.png
00000009,778,0,1449679475948,1449679475968,862,358,0,0,0,3,4,1,7,0002-00-0001-99.png,0001-00-0001-86.png
00000009,779,0,1449679478815,1449679479430,939,318,0,0,0,0,1,1,1,0005-00-0000-84.png,0004-00-0001-03.png
00000009,780,0,1449679482376,1449679483130,493,264,0,0,0,2,1,1,3,0003-00-0001-09.png,0004-00-0000-02.png
00000009,781,1,1449679486132,1449679486693,1044,251,0,0,0,4,3,1,7,0001-00-0000-65.png,0002-00-0001-86.png
00000009,782,1,1449679487696,1449679488722,944,279,0,0,0,3,2,1,5,0002-00-0001-25.png,0003-00-0001-95.png
00000009,783,1,1449679489661,1449679489700,865,403,0,0,0,1,0,1,1,0004-00-0001-87.png,0005-00-0001-95.png
00000009,784,0,1449679490812,1449679491564,919,399,0,0,0,2,3,1,5,0003-00-0001-40.png,0002-00-0001-47.png
00000009,785,1,1449679494409,1449679494933,944,384,0,0,0,1,0,1,1,0004-00-0000-14.png,0005-00-0000-90.png
00000009,786,0,1449679495824,1449679496610,1041,264,0,0,0,0,1,1,1,0005-00-0001-48.png,0004-00-0000-57.png
00000009,787,1,1449679499497,1449679500060,490,266,0,0,0,2,3,1,5,0003-00-0000-03.png,0002-00-0001-48.png
00000009,788,1,1449679500958,1449679501787,948,393,0,0,0,4,3,1,7,0001-00-0001-36.png,0002-00-0001-28.png
00000009,789,1,1449679502751,1449679503450,443,364,0,0,0,1,2,1,3,0004-00-0001-74.png,0003-00-0001-14.png
00000009,790,1,1449679504460,1449679505589,484,243,0,0,0,3,4,1,7,0002-00-0001-61.png,0001-00-0000-27.png
00000009,791,1,1449679506584,1449679507507,939,374,0,0,0,3,2,1,5,0002-00-0000-19.png,0003-00-0001-14.png
00000009,792,0,1449679508438,1449679509426,489,241,0,0,0,2,1,1,3,0003-00-0001-91.png,0004-00-0001-28.png
00000009,793,1,1449679512368,1449679513000,418,366,0,0,0,0,1,1,1,0005-00-0000-88.png,0004-00-0000-28.png
00000009,794,0,1449679513848,1449679514830,449,400,0,0,0,3,2,1,5,0002-00-0001-67.png,0003-00-0000-75.png
00000009,795,1,1449679517842,1449679518382,964,396,0,0,0,4,3,1,7,0001-00-0001-28.png,0002-00-0000-80.png
00000009,796,0,1449679519275,1449679520062,492,237,0,0,0,1,0,1,1,0004-00-0001-98.png,0005-00-0000-30.png
00000009,797,0,1449679522939,1449679522959,903,355,0,0,0,1,2,1,3,0004-00-0000-89.png,0003-00-0000-78.png
00000009,798,1,1449679526010,1449679526647,473,273,0,0,0,2,3,1,5,0003-00-0000-69.png,0002-00-0000-62.png
00000009,799,1,1449679527541,1449679528623,505,238,0,0,0,3,4,1,7,0002-00-0000-48.png,0001-00-0001-94.png
00000009,800,1,1449679529539,1449679530541,917,288,0,0,0,2,1,1,3,0003-00-0000-27.png,0004-00-0001-46.png
00000009,801,1,1449679532080,1449679532163,862,436,0,0,0,2,1,1,3,0003-00-0000-90.png,0004-00-0000-17.png
00000009,802,0,1449679533146,1449679533967,506,252,0,0,0,4,3,1,7,0001-00-0001-91.png,0002-00-0001-74.png
00000009,803,0,1449679537000,1449679537598,913,337,0,0,0,1,2,1,3,0004-00-0000-79.png,0003-00-0001-70.png
00000009,804,1,1449679540561,1449679541157,913,289,0,0,0,3,2,1,5,0002-00-0000-01.png,0003-00-0000-55.png
00000009,805,1,1449679542069,1449679542776,502,233,0,0,0,0,1,1,1,0005-00-0001-87.png,0004-00-0000-37.png
00000009,806,1,1449679543680,1449679544870,478,292,0,0,0,2,3,1,5,0003-00-0001-34.png,0002-00-0001-07.png
00000009,807,1,1449679545898,1449679546624,934,401,0,0,0,1,0,1,1,0004-00-0001-36.png,0005-00-0001-22.png
00000009,808,0,1449679547583,1449679548413,931,286,0,0,0,3,4,1,7,0002-00-0000-44.png,0001-00-0000-26.png
00000009,809,1,1449679551470,1449679552057,472,243,0,0,0,1,2,1,3,0004-00-0001-35.png,0003-00-0000-05.png
00000009,810,1,1449679552938,1449679553580,1003,263,0,0,0,2,1,1,3,0003-00-0000-54.png,0004-00-0000-11.png
00000009,811,1,1449679554477,1449679555161,494,271,0,0,0,2,3,1,5,0003-00-0000-24.png,0002-00-0000-62.png
00000009,812,1,1449679556177,1449679556242,888,400,0,0,0,1,0,1,1,0004-00-0001-44.png,0005-00-0001-41.png
00000009,813,1,1449679557221,1449679558383,920,297,0,0,0,3,2,1,5,0002-00-0001-10.png,0003-00-0000-62.png
00000009,814,1,1449679559925,1449679560998,1016,278,0,0,0,4,3,1,7,0001-00-0000-23.png,0002-00-0000-72.png
00000009,815,1,1449679561943,1449679562629,488,264,0,0,0,0,1,1,1,0005-00-0000-98.png,0004-00-0001-75.png
00000009,816,0,1449679563531,1449679564430,896,330,0,0,0,3,4,1,7,0002-00-0001-27.png,0001-00-0000-98.png
00000009,817,0,1449679567765,1449679568361,1032,265,0,0,0,1,2,1,3,0004-00-0000-56.png,0003-00-0001-61.png
00000009,818,0,1449679571221,1449679571891,447,443,0,0,0,2,1,1,3,0003-00-0001-28.png,0004-00-0001-00.png
00000009,819,1,1449679574834,1449679575556,453,240,0,0,0,3,4,1,7,0002-00-0000-08.png,0001-00-0000-66.png
00000009,820,1,1449679576538,1449679577382,921,302,0,0,0,1,0,1,1,0004-00-0000-84.png,0005-00-0000-77.png
00000009,821,1,1449679578213,1449679578886,907,382,0,0,0,4,3,1,7,0001-00-0000-74.png,0002-00-0000-25.png
00000009,822,0,1449679579820,1449679579870,862,436,0,0,0,2,3,1,5,0003-00-0001-03.png,0002-00-0001-18.png
00000009,823,1,1449679582947,1449679583583,939,306,0,0,0,3,2,1,5,0002-00-0001-23.png,0003-00-0000-94.png
00000009,824,0,1449679584427,1449679584469,866,447,0,0,0,0,1,1,1,0005-00-0001-32.png,0004-00-0001-74.png
00000009,825,0,1449679587478,1449679588312,514,239,0,0,0,4,3,1,7,0001-00-0001-93.png,0002-00-0000-86.png
00000009,826,0,1449679591533,1449679592109,939,372,0,0,0,3,4,1,7,0002-00-0000-05.png,0001-00-0000-77.png
00000009,827,0,1449679595792,1449679596668,473,265,0,0,0,2,1,1,3,0003-00-0000-71.png,0004-00-0001-27.png
00000009,828,0,1449679599975,1449679600524,1041,295,0,0,0,1,2,1,3,0004-00-0000-52.png,0003-00-0001-53.png
00000009,829,1,1449679603536,1449679604012,1016,240,0,0,0,1,0,1,1,0004-00-0001-79.png,0005-00-0001-67.png
00000009,830,0,1449679604933,1449679604949,859,387,0,0,0,2,3,1,5,0003-00-0001-40.png,0002-00-0000-88.png
00000009,831,0,1449679607819,1449679607839,936,303,0,0,0,0,1,1,1,0005-00-0001-71.png,0004-00-0000-50.png
00000009,832,1,1449679621000,1449679621557,995,274,0,0,0,3,2,1,5,0002-00-0000-48.png,0003-00-0001-83.png
00000009,833,0,1449679622492,1449679623320,895,322,0,0,0,3,4,1,7,0002-00-0001-85.png,0001-00-0001-68.png
00000009,834,1,1449679626483,1449679627062,990,270,0,0,0,2,1,1,3,0003-00-0001-18.png,0004-00-0001-83.png
00000009,835,1,1449679627926,1449679628600,445,264,0,0,0,2,3,1,5,0003-00-0001-57.png,0002-00-0001-29.png
00000009,836,0,1449679629477,1449679630231,910,378,0,0,0,0,1,1,1,0005-00-0001-82.png,0004-00-0001-15.png
00000009,837,0,1449679633162,1449679633660,463,298,0,0,0,3,2,1,5,0002-00-0001-78.png,0003-00-0001-21.png
00000009,838,1,1449679636800,1449679637306,989,277,0,0,0,1,0,1,1,0004-00-0001-04.png,0005-00-0000-88.png
00000009,839,1,1449679638142,1449679638791,471,234,0,0,0,1,2,1,3,0004-00-0000-44.png,0003-00-0000-70.png
00000009,840,1,1449679639669,1449679640489,921,376,0,0,0,4,3,1,7,0001-00-0001-47.png,0002-00-0001-72.png
00000009,841,0,1449679641421,1449679642313,901,334,0,0,0,3,4,1,7,0002-00-0001-92.png,0001-00-0001-89.png
00000009,842,1,1449679645486,1449679646029,486,280,0,0,0,2,3,1,5,0003-00-0000-40.png,0002-00-0000-23.png
00000009,843,1,1449679646899,1449679647850,945,397,0,0,0,2,1,1,3,0003-00-0001-20.png,0004-00-0001-98.png
00000009,844,1,1449679648814,1449679648834,865,353,0,0,0,4,3,1,7,0001-00-0000-55.png,0002-00-0001-30.png
00000009,845,0,1449679649789,1449679650499,470,235,0,0,0,3,2,1,5,0002-00-0000-31.png,0003-00-0000-40.png
00000009,846,0,1449679653672,1449679654237,939,345,0,0,0,0,1,1,1,0005-00-0000-05.png,0004-00-0001-38.png
00000009,847,0,1449679657292,1449679657324,888,358,0,0,0,1,2,1,3,0004-00-0000-95.png,0003-00-0000-44.png
00000009,848,1,1449679660431,1449679660964,1004,279,0,0,0,1,0,1,1,0004-00-0000-16.png,0005-00-0000-65.png
00000009,849,0,1449679661790,1449679662652,493,230,0,0,0,4,3,1,7,0001-00-0000-66.png,0002-00-0001-61.png
00000009,850,1,1449679665855,1449679666508,497,247,0,0,0,1,2,1,3,0004-00-0000-13.png,0003-00-0000-26.png
00000009,851,1,1449679667484,1449679668259,489,231,0,0,0,0,1,1,1,0005-00-0001-21.png,0004-00-0000-48.png
00000009,852,0,1449679669147,1449679670237,435,339,0,0,0,3,2,1,5,0002-00-0001-96.png,0003-00-0000-96.png
00000009,853,0,1449679673108,1449679673682,927,321,0,0,0,3,4,1,7,0002-00-0001-47.png,0001-00-0001-30.png
00000009,854,1,1449679676725,1449679677231,939,295,0,0,0,1,0,1,1,0004-00-0000-44.png,0005-00-0000-23.png
00000009,855,1,1449679678160,1449679679109,952,346,0,0,0,2,1,1,3,0003-00-0000-44.png,0004-00-0000-96.png
00000009,856,0,1449679680059,1449679680115,871,475,0,0,0,2,3,1,5,0003-00-0000-32.png,0002-00-0000-12.png
00000009,857,1,1449679683005,1449679683045,884,411,0,0,0,3,2,1,5,0002-00-0000-03.png,0003-00-0000-57.png
00000009,858,1,1449679684011,1449679684798,483,405,0,0,0,2,3,1,5,0003-00-0001-10.png,0002-00-0001-86.png
00000009,859,0,1449679685668,1449679686466,900,279,0,0,0,1,2,1,3,0004-00-0001-38.png,0003-00-0000-10.png
00000009,860,1,1449679689464,1449679690002,461,258,0,0,0,3,4,1,7,0002-00-0001-88.png,0001-00-0000-82.png
00000009,861,0,1449679690898,1449679691612,476,406,0,0,0,4,3,1,7,0001-00-0001-04.png,0002-00-0000-68.png
00000009,862,1,1449679694731,1449679694751,873,337,0,0,0,1,0,1,1,0004-00-0001-17.png,0005-00-0001-57.png
00000009,863,1,1449679695787,1449679696447,1016,243,0,0,0,2,1,1,3,0003-00-0001-15.png,0004-00-0000-91.png
00000009,864,0,1449679697345,1449679697421,888,410,0,0,0,0,1,1,1,0005-00-0001-11.png,0004-00-0001-00.png
00000009,865,1,1449679700615,1449679701181,1024,253,0,0,0,1,0,1,1,0004-00-0000-15.png,0005-00-0000-25.png
00000009,866,0,1449679702156,1449679702168,893,393,0,0,0,3,4,1,7,0002-00-0000-29.png,0001-00-0000-53.png
00000009,867,0,1449679704994,1449679705660,485,229,0,0,0,2,1,1,3,0003-00-0000-17.png,0004-00-0000-76.png
00000009,868,1,1449679708584,1449679709152,939,316,0,0,0,3,2,1,5,0002-00-0001-01.png,0003-00-0001-36.png
00000009,869,1,1449679710046,1449679710790,513,229,0,0,0,0,1,1,1,0005-00-0000-06.png,0004-00-0001-81.png
00000009,870,1,1449679711733,1449679711840,857,471,0,0,0,4,3,1,7,0001-00-0001-71.png,0002-00-0000-62.png
00000009,871,0,1449679712858,1449679713887,918,302,0,0,0,1,2,1,3,0004-00-0001-00.png,0003-00-0001-42.png
00000009,872,1,1449679732540,1449679733105,471,279,0,0,0,2,3,1,5,0003-00-0000-08.png,0002-00-0001-61.png
00000009,873,1,1449679734174,1449679734876,446,287,0,0,0,0,1,1,1,0005-00-0000-52.png,0004-00-0001-88.png
00000009,874,0,1449679735889,1449679737034,513,272,0,0,0,4,3,1,7,0001-00-0000-12.png,0002-00-0000-20.png
00000009,875,1,1449679739881,1449679740414,913,410,0,0,0,1,0,1,1,0004-00-0001-47.png,0005-00-0000-49.png
00000009,876,1,1449679741265,1449679742128,486,233,0,0,0,1,2,1,3,0004-00-0000-44.png,0003-00-0001-14.png
00000009,877,1,1449679743074,1449679743949,895,312,0,0,0,2,1,1,3,0003-00-0001-31.png,0004-00-0000-96.png
00000009,878,1,1449679744865,1449679745550,448,249,0,0,0,2,3,1,5,0003-00-0001-28.png,0002-00-0000-59.png
00000009,879,1,1449679746574,1449679747364,912,297,0,0,0,3,2,1,5,0002-00-0000-29.png,0003-00-0001-17.png
00000009,880,1,1449679748364,1449679749639,471,246,0,0,0,3,4,1,7,0002-00-0001-28.png,0001-00-0000-86.png
00000009,881,1,1449679750637,1449679751755,476,262,0,0,0,3,4,1,7,0002-00-0001-70.png,0001-00-0001-39.png
00000009,882,1,1449679752754,1449679753528,906,324,0,0,0,2,1,1,3,0003-00-0001-51.png,0004-00-0000-80.png
00000009,883,1,1449679755030,1449679755743,395,362,0,0,0,1,2,1,3,0004-00-0001-89.png,0003-00-0001-98.png
00000009,884,1,1449679756637,1449679758114,464,238,0,0,0,0,1,1,1,0005-00-0000-72.png,0004-00-0001-90.png
00000009,885,1,1449679759035,1449679759864,472,236,0,0,0,2,3,1,5,0003-00-0000-22.png,0002-00-0000-95.png
00000009,886,1,1449679760794,1449679761731,911,304,0,0,0,4,3,1,7,0001-00-0001-27.png,0002-00-0000-56.png
00000009,887,1,1449679762703,1449679763479,937,280,0,0,0,1,0,1,1,0004-00-0000-56.png,0005-00-0001-83.png
00000009,888,1,1449679764562,1449679764582,873,427,0,0,0,3,2,1,5,0002-00-0001-39.png,0003-00-0000-64.png
00000009,889,1,1449679765721,1449679766727,466,241,0,0,0,3,4,1,7,0002-00-0000-37.png,0001-00-0001-50.png
00000009,890,0,1449679767730,1449679768477,482,224,0,0,0,1,0,1,1,0004-00-0001-10.png,0005-00-0000-34.png
00000009,891,1,1449679771674,1449679771702,901,346,0,0,0,3,2,1,5,0002-00-0001-04.png,0003-00-0001-12.png
00000009,892,1,1449679772619,1449679773571,898,292,0,0,0,2,1,1,3,0003-00-0001-50.png,0004-00-0000-66.png
00000009,893,1,1449679774557,1449679775336,489,257,0,0,0,2,3,1,5,0003-00-0001-74.png,0002-00-0001-65.png
00000009,894,1,1449679776293,1449679777027,511,244,0,0,0,1,2,1,3,0004-00-0000-81.png,0003-00-0000-44.png
00000009,895,1,1449679777946,1449679779089,436,377,0,0,0,0,1,1,1,0005-00-0001-73.png,0004-00-0001-09.png
00000009,896,1,1449679779960,1449679780820,1016,264,0,0,0,4,3,1,7,0001-00-0000-11.png,0002-00-0000-56.png
00000009,897,1,1449679781789,1449679782497,385,376,0,0,0,1,2,1,3,0004-00-0001-95.png,0003-00-0001-48.png
00000009,898,1,1449679783646,1449679784291,888,270,0,0,0,2,1,1,3,0003-00-0000-14.png,0004-00-0000-91.png
00000009,899,1,1449679785170,1449679786141,1001,283,0,0,0,3,2,1,5,0002-00-0001-23.png,0003-00-0000-86.png
00000009,900,1,1449679787079,1449679787741,490,240,0,0,0,0,1,1,1,0005-00-0001-01.png,0004-00-0000-01.png
00000009,901,0,1449679788705,1449679789635,401,318,0,0,0,4,3,1,7,0001-00-0000-39.png,0002-00-0000-28.png
00000009,902,1,1449679793290,1449679793951,482,260,0,0,0,3,4,1,7,0002-00-0001-44.png,0001-00-0000-78.png
00000009,903,1,1449679794837,1449679795784,939,384,0,0,0,1,0,1,1,0004-00-0000-18.png,0005-00-0001-06.png
00000009,904,1,1449679796704,1449679797882,486,245,0,0,0,2,3,1,5,0003-00-0001-92.png,0002-00-0000-95.png
00000009,905,1,1449679798823,1449679799594,997,260,0,0,0,4,3,1,7,0001-00-0000-15.png,0002-00-0001-86.png
00000009,906,0,1449679800692,1449679801575,921,311,0,0,0,3,4,1,7,0002-00-0001-65.png,0001-00-0001-89.png
00000009,907,1,1449679804715,1449679804743,883,357,0,0,0,3,2,1,5,0002-00-0001-09.png,0003-00-0000-68.png
00000009,908,1,1449679805753,1449679806542,990,253,0,0,0,2,1,1,3,0003-00-0000-34.png,0004-00-0000-00.png
00000009,909,1,1449679807467,1449679808111,498,237,0,0,0,1,2,1,3,0004-00-0000-43.png,0003-00-0001-68.png
00000009,910,0,1449679809017,1449679809806,513,265,0,0,0,1,0,1,1,0004-00-0001-44.png,0005-00-0000-52.png
00000009,911,1,1449679813182,1449679813867,466,288,0,0,0,2,3,1,5,0003-00-0000-48.png,0002-00-0000-10.png
00000009,912,0,1449679814751,1449679815577,902,307,0,0,0,0,1,1,1,0005-00-0000-06.png,0004-00-0000-12.png
00000009,913,0,1449679818599,1449679819173,505,232,0,0,0,4,3,1,7,0001-00-0001-18.png,0002-00-0000-12.png
00000009,914,0,1449679822356,1449679822898,918,313,0,0,0,2,3,1,5,0003-00-0001-87.png,0002-00-0000-82.png
00000009,915,1,1449679825751,1449679826400,487,270,0,0,0,0,1,1,1,0005-00-0001-25.png,0004-00-0000-19.png
00000009,916,1,1449679827231,1449679828103,982,272,0,0,0,3,2,1,5,0002-00-0000-72.png,0003-00-0001-30.png
00000009,917,0,1449679829010,1449679829807,504,223,0,0,0,1,0,1,1,0004-00-0001-88.png,0005-00-0000-19.png
00000009,918,1,1449679832840,1449679833586,1012,257,0,0,0,2,1,1,3,0003-00-0000-63.png,0004-00-0000-96.png
00000009,919,1,1449679834468,1449679835233,484,234,0,0,0,1,2,1,3,0004-00-0000-31.png,0003-00-0000-19.png
00000009,920,1,1449679836167,1449679837386,469,233,0,0,0,3,4,1,7,0002-00-0000-18.png,0001-00-0000-83.png
00000009,921,1,1449679838274,1449679838949,476,237,0,0,0,1,2,1,3,0004-00-0000-31.png,0003-00-0000-58.png
00000009,922,1,1449679839892,1449679840499,1003,263,0,0,0,4,3,1,7,0001-00-0001-30.png,0002-00-0000-25.png
00000009,923,0,1449679841404,1449679841456,883,411,0,0,0,3,4,1,7,0002-00-0001-20.png,0001-00-0001-97.png
00000009,924,1,1449679856276,1449679856875,456,218,0,0,0,2,3,1,5,0003-00-0001-46.png,0002-00-0000-89.png
00000009,925,0,1449679857793,1449679858559,478,239,0,0,0,3,2,1,5,0002-00-0000-96.png,0003-00-0000-18.png
00000009,926,1,1449679861695,1449679861788,875,258,0,0,0,1,0,1,1,0004-00-0000-91.png,0005-00-0000-72.png
00000009,927,1,1449679862684,1449679863655,913,307,0,0,0,2,1,1,3,0003-00-0001-26.png,0004-00-0000-37.png
00000009,928,1,1449679864547,1449679865417,465,240,0,0,0,0,1,1,1,0005-00-0000-26.png,0004-00-0000-37.png
00000009,929,0,1449679866252,1449679866933,862,291,0,0,0,3,4,1,7,0002-00-0000-41.png,0001-00-0000-07.png
00000009,930,0,1449679870073,1449679870637,993,260,0,0,0,0,1,1,1,0005-00-0000-94.png,0004-00-0001-29.png
00000009,931,0,1449679873760,1449679874393,897,324,0,0,0,2,3,1,5,0003-00-0001-94.png,0002-00-0001-09.png
00000009,932,1,1449679877815,1449679878480,964,410,0,0,0,1,0,1,1,0004-00-0000-17.png,0005-00-0000-85.png
00000009,933,1,1449679879335,1449679880427,984,246,0,0,0,4,3,1,7,0001-00-0000-51.png,0002-00-0000-48.png
00000009,934,1,1449679881375,1449679882047,913,332,0,0,0,2,1,1,3,0003-00-0001-57.png,0004-00-0000-93.png
00000009,935,1,1449679883022,1449679884054,476,238,0,0,0,1,2,1,3,0004-00-0001-97.png,0003-00-0001-45.png
00000009,936,1,1449679884931,1449679885848,927,299,0,0,0,3,2,1,5,0002-00-0001-76.png,0003-00-0000-36.png
00000009,937,1,1449679886739,1449679888086,453,264,0,0,0,2,3,1,5,0003-00-0001-40.png,0002-00-0000-90.png
00000009,938,1,1449679889037,1449679889789,1009,242,0,0,0,4,3,1,7,0001-00-0001-22.png,0002-00-0000-64.png
00000009,939,0,1449679890746,1449679891745,913,330,0,0,0,3,4,1,7,0002-00-0001-28.png,0001-00-0000-79.png
00000009,940,0,1449679897551,1449679898092,1038,284,0,0,0,0,1,1,1,0005-00-0000-23.png,0004-00-0000-60.png
00000009,941,0,1449679901208,1449679901220,865,307,0,0,0,1,2,1,3,0004-00-0001-13.png,0003-00-0001-29.png
00000009,942,0,1449679904229,1449679905273,478,290,0,0,0,1,0,1,1,0004-00-0000-90.png,0005-00-0000-94.png
00000009,943,0,1449679916010,1449679916588,464,245,0,0,0,3,2,1,5,0002-00-0000-42.png,0003-00-0000-50.png
00000009,944,1,1449679919787,1449679919807,862,317,0,0,0,2,1,1,3,0003-00-0000-48.png,0004-00-0000-27.png
00000009,945,1,1449679920862,1449679921740,911,311,0,0,0,2,1,1,3,0003-00-0000-42.png,0004-00-0000-25.png
00000009,946,1,1449679922719,1449679923339,451,237,0,0,0,0,1,1,1,0005-00-0000-06.png,0004-00-0001-36.png
00000009,947,0,1449679924217,1449679925044,925,422,0,0,0,2,3,1,5,0003-00-0000-74.png,0002-00-0001-63.png
00000009,948,1,1449679927936,1449679928448,914,306,0,0,0,1,0,1,1,0004-00-0000-89.png,0005-00-0000-42.png
00000009,949,1,1449679929359,1449679929997,473,238,0,0,0,1,2,1,3,0004-00-0001-77.png,0003-00-0001-84.png
00000009,950,1,1449679930916,1449679931820,491,282,0,0,0,3,4,1,7,0002-00-0001-59.png,0001-00-0001-49.png
