subject_id,trial,correct_response,stim_time,response_time,x_coord,y_coord,trial_timeout,timeout_time,interTrial_timeout,left_rank,right_rank,distance,joint_rank,left_image,right_image
00000009,1,1,1449504903051,1449504903597,1010,387,0,0,0,2,1,1,3,0003-00-0000-21.png,0004-00-0000-30.png
00000009,2,1,1449504905362,1449504906044,473,251,0,0,0,1,2,1,3,0004-00-0000-29.png,0003-00-0001-78.png
00000009,3,0,1449504907635,1449504907738,976,220,0,0,0,3,4,1,7,0002-00-0001-29.png,0001-00-0000-02.png
00000009,4,1,1449504910751,1449504911298,963,333,0,0,0,1,0,1,1,0004-00-0001-72.png,0005-00-0000-94.png
00000009,5,1,1449504912364,1449504913568,966,360,0,0,0,4,3,1,7,0001-00-0000-10.png,0002-00-0000-86.png
00000009,6,0,1449504914749,1449504915859,378,345,0,0,0,3,2,1,5,0002-00-0000-58.png,0003-00-0000-58.png
00000009,7,0,1449504918811,1449504919349,992,298,0,0,0,2,3,1,5,0003-00-0001-37.png,0002-00-0001-57.png
00000009,8,0,1449504922507,1449504922567,871,253,0,0,0,0,1,1,1,0005-00-0001-82.png,0004-00-0001-86.png
00000009,9,0,1449504925719,1449504925735,874,330,0,0,0,1,2,1,3,0004-00-0000-34.png,0003-00-0001-32.png
00000009,10,0,1449504928758,1449504928798,869,328,0,0,0,3,4,1,7,0002-00-0001-13.png,0001-00-0000-37.png
00000009,11,0,1449504931822,1449504931850,879,332,0,0,0,0,1,1,1,0005-00-0001-14.png,0004-00-0001-10.png
00000009,12,1,1449504934784,1449504934820,900,361,0,0,0,4,3,1,7,0001-00-0001-58.png,0002-00-0001-43.png
00000009,13,1,1449504935879,1449504935962,866,453,0,0,0,3,2,1,5,0002-00-0001-93.png,0003-00-0001-63.png
00000009,14,1,1449504937138,1449504938165,1016,292,0,0,0,2,1,1,3,0003-00-0000-02.png,0004-00-0000-87.png
00000009,15,0,1449504939265,1449504940108,388,315,0,0,0,1,0,1,1,0004-00-0000-92.png,0005-00-0001-39.png
00000009,16,0,1449504943277,1449504943880,982,378,0,0,0,2,3,1,5,0003-00-0000-15.png,0002-00-0001-11.png
00000009,17,0,1449504948029,1449504948762,369,350,0,0,0,4,3,1,7,0001-00-0001-66.png,0002-00-0001-88.png
00000009,18,1,1449504951865,1449504951901,935,323,0,0,0,3,2,1,5,0002-00-0001-19.png,0003-00-0000-05.png
00000009,19,1,1449504953383,1449504954077,1040,300,0,0,0,2,1,1,3,0003-00-0000-86.png,0004-00-0001-54.png
00000009,20,0,1449504955034,1449504955102,873,429,0,0,0,0,1,1,1,0005-00-0000-89.png,0004-00-0000-86.png
00000009,21,0,1449504958185,1449504958768,1067,306,0,0,0,1,2,1,3,0004-00-0000-25.png,0003-00-0000-51.png
00000009,22,0,1449504973937,1449504974383,939,384,0,0,0,2,3,1,5,0003-00-0000-77.png,0002-00-0000-58.png
00000009,23,1,1449504978655,1449504979176,934,340,0,0,0,1,0,1,1,0004-00-0000-92.png,0005-00-0000-77.png
00000009,24,0,1449504980122,1449504981051,913,410,0,0,0,3,4,1,7,0002-00-0000-38.png,0001-00-0000-47.png
00000009,25,0,1449504984118,1449504984151,881,326,0,0,0,2,3,1,5,0003-00-0000-24.png,0002-00-0001-89.png
00000009,26,0,1449504987236,1449504987785,963,343,0,0,0,0,1,1,1,0005-00-0001-16.png,0004-00-0000-90.png
00000009,27,0,1449504990723,1449504991251,968,323,0,0,0,3,4,1,7,0002-00-0001-10.png,0001-00-0000-42.png
00000009,28,0,1449504994335,1449504994965,411,376,0,0,0,3,2,1,5,0002-00-0000-71.png,0003-00-0000-68.png
00000009,29,1,1449504998424,1449504998693,970,269,0,0,0,2,1,1,3,0003-00-0000-77.png,0004-00-0001-19.png
00000009,30,1,1449504999720,1449504999740,866,387,0,0,0,4,3,1,7,0001-00-0001-18.png,0002-00-0001-97.png
00000009,31,1,1449505000713,1449505001494,913,340,0,0,0,1,0,1,1,0004-00-0000-52.png,0005-00-0001-32.png
00000009,32,0,1449505002450,1449505002502,872,405,0,0,0,1,2,1,3,0004-00-0001-22.png,0003-00-0000-93.png
00000009,33,1,1449505005919,1449505006457,1025,253,0,0,0,1,0,1,1,0004-00-0000-76.png,0005-00-0001-84.png
00000009,34,0,1449505007372,1449505008360,940,341,0,0,0,3,4,1,7,0002-00-0000-12.png,0001-00-0000-34.png
00000009,35,1,1449505011437,1449505011461,888,349,0,0,0,2,1,1,3,0003-00-0000-95.png,0004-00-0001-65.png
00000009,36,1,1449505012464,1449505013456,951,346,0,0,0,3,2,1,5,0002-00-0001-40.png,0003-00-0000-72.png
00000009,37,1,1449505014479,1449505015289,367,334,0,0,0,0,1,1,1,0005-00-0000-77.png,0004-00-0001-71.png
00000009,38,0,1449505016355,1449505017265,939,410,0,0,0,2,3,1,5,0003-00-0001-73.png,0002-00-0000-42.png
00000009,39,1,1449505020409,1449505020528,868,316,0,0,0,4,3,1,7,0001-00-0001-50.png,0002-00-0001-82.png
00000009,40,1,1449505021522,1449505022694,378,346,0,0,0,1,2,1,3,0004-00-0001-88.png,0003-00-0001-41.png
00000009,41,0,1449505023679,1449505024608,452,264,0,0,0,4,3,1,7,0001-00-0001-06.png,0002-00-0000-22.png
00000009,42,0,1449505027465,1449505027562,863,437,0,0,0,1,2,1,3,0004-00-0001-91.png,0003-00-0001-30.png
00000009,43,0,1449505030673,1449505031460,407,376,0,0,0,2,1,1,3,0003-00-0001-63.png,0004-00-0000-23.png
00000009,44,0,1449505034543,1449505034707,875,410,0,0,0,2,3,1,5,0003-00-0000-81.png,0002-00-0000-38.png
00000009,45,0,1449505037881,1449505037909,910,302,0,0,0,0,1,1,1,0005-00-0000-75.png,0004-00-0000-09.png
00000009,46,1,1449505040900,1449505041794,962,409,0,0,0,3,2,1,5,0002-00-0001-36.png,0003-00-0001-80.png
00000009,47,0,1449505042780,1449505042981,898,564,0,0,0,3,4,1,7,0002-00-0000-89.png,0001-00-0000-47.png
00000009,48,1,1449505045850,1449505045870,933,376,0,0,0,1,0,1,1,0004-00-0001-46.png,0005-00-0001-75.png
00000009,49,0,1449505046947,1449505048163,395,334,0,0,0,2,1,1,3,0003-00-0001-99.png,0004-00-0000-96.png
00000009,50,1,1449505051033,1449505051577,939,336,0,0,0,3,2,1,5,0002-00-0000-14.png,0003-00-0001-91.png
00000009,51,0,1449505052491,1449505053506,393,328,0,0,0,4,3,1,7,0001-00-0000-34.png,0002-00-0001-82.png
00000009,52,0,1449505056495,1449505056563,963,350,0,0,0,2,3,1,5,0003-00-0000-27.png,0002-00-0001-35.png
00000009,53,1,1449505059479,1449505060081,957,363,0,0,0,1,0,1,1,0004-00-0000-40.png,0005-00-0000-49.png
00000009,54,0,1449505060987,1449505061063,859,469,0,0,0,0,1,1,1,0005-00-0001-90.png,0004-00-0000-10.png
00000009,55,0,1449505064433,1449505064464,865,333,0,0,0,3,4,1,7,0002-00-0001-19.png,0001-00-0000-66.png
00000009,56,1,1449505067737,1449505068441,453,303,0,0,0,1,2,1,3,0004-00-0000-76.png,0003-00-0000-68.png
00000009,57,1,1449505069464,1449505070470,939,345,0,0,0,2,1,1,3,0003-00-0001-03.png,0004-00-0000-15.png
00000009,58,0,1449505071441,1449505072224,464,247,0,0,0,4,3,1,7,0001-00-0000-06.png,0002-00-0000-18.png
00000009,59,1,1449505075079,1449505075148,1113,386,0,0,0,1,0,1,1,0004-00-0000-06.png,0005-00-0000-04.png
00000009,60,0,1449505076133,1449505076193,858,443,0,0,0,1,2,1,3,0004-00-0001-77.png,0003-00-0000-36.png
00000009,61,0,1449505079502,1449505079530,881,303,0,0,0,3,4,1,7,0002-00-0001-90.png,0001-00-0000-99.png
00000009,62,1,1449505082504,1449505083102,479,287,0,0,0,0,1,1,1,0005-00-0001-54.png,0004-00-0000-81.png
00000009,63,1,1449505084045,1449505085155,395,351,0,0,0,2,3,1,5,0003-00-0001-62.png,0002-00-0000-66.png
00000009,64,1,1449505086109,1449505087357,968,417,0,0,0,3,2,1,5,0002-00-0000-30.png,0003-00-0001-75.png
00000009,65,1,1449505088380,1449505089479,925,386,0,0,0,2,1,1,3,0003-00-0001-44.png,0004-00-0001-40.png
00000009,66,0,1449505090592,1449505091851,990,279,0,0,0,1,2,1,3,0004-00-0000-62.png,0003-00-0001-64.png
00000009,67,0,1449505094741,1449505095622,390,350,0,0,0,3,2,1,5,0002-00-0000-90.png,0003-00-0000-68.png
00000009,68,0,1449505098791,1449505099346,944,323,0,0,0,2,3,1,5,0003-00-0000-96.png,0002-00-0001-51.png
00000009,69,1,1449505102390,1449505102936,432,273,0,0,0,0,1,1,1,0005-00-0000-75.png,0004-00-0000-01.png
00000009,70,1,1449505103852,1449505104543,1005,253,0,0,0,1,0,1,1,0004-00-0001-58.png,0005-00-0000-75.png
00000009,71,1,1449505105499,1449505106482,460,245,0,0,0,3,4,1,7,0002-00-0000-50.png,0001-00-0001-57.png
00000009,72,1,1449505107648,1449505108586,1032,279,0,0,0,4,3,1,7,0001-00-0001-94.png,0002-00-0001-53.png
00000009,73,1,1449505109606,1449505109770,861,459,0,0,0,1,0,1,1,0004-00-0000-88.png,0005-00-0001-93.png
00000009,74,0,1449505110966,1449505112384,937,306,0,0,0,3,4,1,7,0002-00-0000-97.png,0001-00-0000-48.png
00000009,75,1,1449505115309,1449505116076,374,349,0,0,0,1,2,1,3,0004-00-0001-89.png,0003-00-0000-53.png
00000009,76,1,1449505116985,1449505117966,466,288,0,0,0,2,3,1,5,0003-00-0000-40.png,0002-00-0001-30.png
00000009,77,1,1449505118974,1449505120148,939,306,0,0,0,2,1,1,3,0003-00-0000-82.png,0004-00-0000-55.png
00000009,78,0,1449505121180,1449505121240,888,390,0,0,0,0,1,1,1,0005-00-0001-40.png,0004-00-0000-84.png
00000009,79,1,1449505124418,1449505124928,1041,279,0,0,0,3,2,1,5,0002-00-0001-11.png,0003-00-0001-14.png
00000009,80,1,1449505125831,1449505127065,935,336,0,0,0,4,3,1,7,0001-00-0001-69.png,0002-00-0000-61.png
00000009,81,1,1449505128049,1449505128106,874,461,0,0,0,1,0,1,1,0004-00-0000-31.png,0005-00-0001-77.png
00000009,82,0,1449505129231,1449505130376,959,304,0,0,0,2,3,1,5,0003-00-0001-05.png,0002-00-0000-96.png
00000009,83,1,1449505133226,1449505134395,370,371,0,0,0,3,4,1,7,0002-00-0000-58.png,0001-00-0000-58.png
00000009,84,0,1449505135342,1449505136611,447,280,0,0,0,3,2,1,5,0002-00-0001-85.png,0003-00-0000-79.png
00000009,85,1,1449505139705,1449505140227,966,299,0,0,0,4,3,1,7,0001-00-0001-35.png,0002-00-0000-97.png
00000009,86,1,1449505141257,1449505142011,482,221,0,0,0,0,1,1,1,0005-00-0001-61.png,0004-00-0001-98.png
00000009,87,1,1449505142955,1449505144147,1016,279,0,0,0,2,1,1,3,0003-00-0001-76.png,0004-00-0000-71.png
00000009,88,0,1449505145142,1449505146135,939,342,0,0,0,1,2,1,3,0004-00-0001-87.png,0003-00-0001-06.png
00000009,89,1,1449505149317,1449505149917,380,398,0,0,0,2,3,1,5,0003-00-0001-04.png,0002-00-0001-90.png
00000009,90,0,1449505150822,1449505152136,478,238,0,0,0,3,2,1,5,0002-00-0001-81.png,0003-00-0000-68.png
00000009,91,0,1449505155170,1449505155747,461,294,0,0,0,4,3,1,7,0001-00-0001-66.png,0002-00-0001-24.png
00000009,92,1,1449505158866,1449505159091,903,306,0,0,0,1,0,1,1,0004-00-0000-53.png,0005-00-0001-66.png
00000009,93,1,1449505160040,1449505160706,419,368,0,0,0,0,1,1,1,0005-00-0001-21.png,0004-00-0001-87.png
00000009,94,1,1449505161646,1449505162799,939,290,0,0,0,2,1,1,3,0003-00-0001-69.png,0004-00-0000-25.png
00000009,95,0,1449505163802,1449505164759,919,323,0,0,0,3,4,1,7,0002-00-0001-07.png,0001-00-0001-23.png
00000009,96,0,1449505167889,1449505168540,939,372,0,0,0,1,2,1,3,0004-00-0000-75.png,0003-00-0001-92.png
00000009,97,1,1449505171642,1449505172206,476,314,0,0,0,0,1,1,1,0005-00-0001-46.png,0004-00-0001-34.png
00000009,98,1,1449505173148,1449505174081,925,410,0,0,0,2,1,1,3,0003-00-0001-27.png,0004-00-0001-68.png
00000009,99,0,1449505175105,1449505176457,459,260,0,0,0,4,3,1,7,0001-00-0001-70.png,0002-00-0000-72.png
00000009,100,0,1449505179474,1449505180089,964,408,0,0,0,3,4,1,7,0002-00-0000-24.png,0001-00-0001-90.png
00000009,101,1,1449505182983,1449505183688,373,375,0,0,0,2,3,1,5,0003-00-0001-10.png,0002-00-0001-30.png
00000009,102,0,1449505184685,1449505185777,929,328,0,0,0,1,2,1,3,0004-00-0001-71.png,0003-00-0001-79.png
00000009,103,0,1449505188689,1449505190091,447,253,0,0,0,3,2,1,5,0002-00-0000-54.png,0003-00-0000-13.png
00000009,104,1,1449505193153,1449505193201,900,358,0,0,0,1,0,1,1,0004-00-0000-74.png,0005-00-0001-90.png
00000009,105,1,1449505194195,1449505195311,963,299,0,0,0,3,2,1,5,0002-00-0000-43.png,0003-00-0001-02.png
00000009,106,1,1449505196383,1449505196432,863,441,0,0,0,2,1,1,3,0003-00-0000-95.png,0004-00-0001-91.png
00000009,107,1,1449505197585,1449505198594,389,347,0,0,0,2,3,1,5,0003-00-0000-60.png,0002-00-0001-32.png
00000009,108,0,1449505199654,1449505200590,920,321,0,0,0,1,2,1,3,0004-00-0000-58.png,0003-00-0000-36.png
00000009,109,1,1449505203833,1449505203980,924,291,0,0,0,1,0,1,1,0004-00-0001-42.png,0005-00-0001-82.png
00000009,110,1,1449505204937,1449505205624,415,372,0,0,0,0,1,1,1,0005-00-0000-06.png,0004-00-0001-10.png
00000009,111,1,1449505206586,1449505207767,1035,321,0,0,0,4,3,1,7,0001-00-0000-14.png,0002-00-0001-63.png
00000009,112,0,1449505208817,1449505209875,946,427,0,0,0,3,4,1,7,0002-00-0000-95.png,0001-00-0000-87.png
00000009,113,1,1449505213195,1449505213813,415,361,0,0,0,3,4,1,7,0002-00-0001-71.png,0001-00-0001-05.png
00000009,114,0,1449505214775,1449505216266,407,371,0,0,0,4,3,1,7,0001-00-0001-57.png,0002-00-0000-62.png
00000009,115,1,1449505219219,1449505219267,913,384,0,0,0,1,0,1,1,0004-00-0001-57.png,0005-00-0001-89.png
00000009,116,1,1449505220249,1449505221259,479,251,0,0,0,1,2,1,3,0004-00-0000-54.png,0003-00-0000-89.png
00000009,117,1,1449505222259,1449505223250,442,407,0,0,0,0,1,1,1,0005-00-0001-56.png,0004-00-0001-25.png
00000009,118,1,1449505224274,1449505225300,1016,279,0,0,0,3,2,1,5,0002-00-0000-94.png,0003-00-0000-30.png
00000009,119,1,1449505226337,1449505226361,860,433,0,0,0,2,1,1,3,0003-00-0000-82.png,0004-00-0000-41.png
00000009,120,1,1449505227515,1449505228335,493,251,0,0,0,2,3,1,5,0003-00-0001-66.png,0002-00-0001-13.png
00000009,121,1,1449505229415,1449505230524,964,410,0,0,0,3,2,1,5,0002-00-0000-70.png,0003-00-0001-24.png
00000009,122,0,1449505231501,1449505231589,862,473,0,0,0,1,2,1,3,0004-00-0001-44.png,0003-00-0000-70.png
00000009,123,1,1449505234592,1449505235423,420,380,0,0,0,3,4,1,7,0002-00-0000-13.png,0001-00-0001-86.png
00000009,124,1,1449505237021,1449505237741,925,358,0,0,0,1,0,1,1,0004-00-0000-37.png,0005-00-0000-44.png
00000009,125,1,1449505238748,1449505238823,884,482,0,0,0,4,3,1,7,0001-00-0000-18.png,0002-00-0001-20.png
00000009,126,1,1449505239914,1449505241087,504,266,0,0,0,2,3,1,5,0003-00-0001-33.png,0002-00-0001-08.png
00000009,127,1,1449505242219,1449505243026,485,245,0,0,0,0,1,1,1,0005-00-0001-73.png,0004-00-0000-25.png
00000009,128,1,1449505244072,1449505245200,990,289,0,0,0,2,1,1,3,0003-00-0000-66.png,0004-00-0001-83.png
00000009,129,1,1449505246247,1449505247435,398,354,0,0,0,3,4,1,7,0002-00-0000-88.png,0001-00-0001-91.png
00000009,130,0,1449505248420,1449505249585,1041,320,0,0,0,1,2,1,3,0004-00-0001-09.png,0003-00-0000-56.png
00000009,131,1,1449505252648,1449505253249,913,347,0,0,0,2,1,1,3,0003-00-0000-35.png,0004-00-0000-92.png
00000009,132,0,1449505254254,1449505254282,859,437,0,0,0,2,3,1,5,0003-00-0001-51.png,0002-00-0000-67.png
00000009,133,1,1449505257495,1449505258165,1053,308,0,0,0,4,3,1,7,0001-00-0000-06.png,0002-00-0000-17.png
00000009,134,1,1449505259204,1449505260357,939,332,0,0,0,3,2,1,5,0002-00-0000-76.png,0003-00-0001-92.png
00000009,135,1,1449505261469,1449505261497,865,369,0,0,0,1,0,1,1,0004-00-0000-74.png,0005-00-0000-82.png
00000009,136,0,1449505262710,1449505262910,888,530,0,0,0,0,1,1,1,0005-00-0001-60.png,0004-00-0000-60.png
00000009,137,0,1449505265782,1449505266670,1016,288,0,0,0,1,2,1,3,0004-00-0001-60.png,0003-00-0001-66.png
00000009,138,1,1449505269838,1449505270436,967,413,0,0,0,2,1,1,3,0003-00-0000-76.png,0004-00-0000-40.png
00000009,139,1,1449505271408,1449505272076,493,229,0,0,0,0,1,1,1,0005-00-0000-58.png,0004-00-0000-88.png
00000009,140,1,1449505273149,1449505274185,931,332,0,0,0,4,3,1,7,0001-00-0000-72.png,0002-00-0001-68.png
00000009,141,0,1449505275171,1449505275223,882,440,0,0,0,3,4,1,7,0002-00-0000-04.png,0001-00-0000-31.png
00000009,142,0,1449505278136,1449505278262,965,320,0,0,0,2,3,1,5,0003-00-0000-45.png,0002-00-0000-75.png
00000009,143,0,1449505281206,1449505281860,402,373,0,0,0,3,2,1,5,0002-00-0000-71.png,0003-00-0000-68.png
00000009,144,1,1449505285039,1449505285703,963,302,0,0,0,1,0,1,1,0004-00-0000-11.png,0005-00-0000-28.png
00000009,145,1,1449505286611,1449505287493,439,384,0,0,0,0,1,1,1,0005-00-0000-29.png,0004-00-0000-68.png
00000009,146,1,1449505288444,1449505289463,964,320,0,0,0,3,2,1,5,0002-00-0001-03.png,0003-00-0001-92.png
00000009,147,1,1449505290726,1449505290794,878,436,0,0,0,1,0,1,1,0004-00-0001-31.png,0005-00-0001-30.png
00000009,148,1,1449505291906,1449505292848,942,398,0,0,0,2,1,1,3,0003-00-0001-30.png,0004-00-0001-46.png
00000009,149,0,1449505293966,1449505293994,866,357,0,0,0,3,4,1,7,0002-00-0001-70.png,0001-00-0000-04.png
00000009,150,1,1449505296996,1449505297828,453,293,0,0,0,2,3,1,5,0003-00-0001-32.png,0002-00-0000-78.png
00000009,151,1,1449505298743,1449505299841,490,266,0,0,0,1,2,1,3,0004-00-0000-91.png,0003-00-0001-67.png
00000009,152,0,1449505300901,1449505302114,445,254,0,0,0,4,3,1,7,0001-00-0000-51.png,0002-00-0001-22.png
00000009,153,0,1449505305513,1449505305530,890,320,0,0,0,0,1,1,1,0005-00-0001-11.png,0004-00-0000-99.png
00000009,154,0,1449505308511,1449505309376,483,252,0,0,0,4,3,1,7,0001-00-0001-09.png,0002-00-0000-83.png
00000009,155,1,1449505312468,1449505313250,498,281,0,0,0,3,4,1,7,0002-00-0000-45.png,0001-00-0000-06.png
00000009,156,0,1449505314237,1449505315231,1037,309,0,0,0,1,2,1,3,0004-00-0000-97.png,0003-00-0001-66.png
00000009,157,1,1449505318230,1449505318770,1067,306,0,0,0,3,2,1,5,0002-00-0001-28.png,0003-00-0000-02.png
00000009,158,0,1449505319726,1449505319798,872,437,0,0,0,2,3,1,5,0003-00-0000-83.png,0002-00-0001-98.png
00000009,159,1,1449505322879,1449505323722,973,376,0,0,0,2,1,1,3,0003-00-0001-18.png,0004-00-0001-97.png
00000009,160,1,1449505324790,1449505324858,870,483,0,0,0,1,0,1,1,0004-00-0001-00.png,0005-00-0000-22.png
00000009,161,0,1449505325924,1449505327143,478,265,0,0,0,4,3,1,7,0001-00-0001-62.png,0002-00-0001-10.png
00000009,162,1,1449505330005,1449505330025,888,361,0,0,0,3,2,1,5,0002-00-0001-60.png,0003-00-0000-73.png
00000009,163,1,1449505331120,1449505332009,415,354,0,0,0,0,1,1,1,0005-00-0000-48.png,0004-00-0001-48.png
00000009,164,0,1449505332934,1449505333979,485,262,0,0,0,2,1,1,3,0003-00-0000-73.png,0004-00-0000-72.png
00000009,165,0,1449505336854,1449505337368,964,374,0,0,0,1,2,1,3,0004-00-0000-20.png,0003-00-0001-38.png
00000009,166,1,1449505340489,1449505340517,868,325,0,0,0,1,0,1,1,0004-00-0000-86.png,0005-00-0001-11.png
00000009,167,0,1449505341502,1449505342440,1041,253,0,0,0,2,3,1,5,0003-00-0001-46.png,0002-00-0001-09.png
00000009,168,0,1449505345834,1449505345885,891,327,0,0,0,3,4,1,7,0002-00-0001-53.png,0001-00-0001-43.png
00000009,169,1,1449505348894,1449505349463,1091,284,0,0,0,1,0,1,1,0004-00-0001-76.png,0005-00-0000-13.png
00000009,170,0,1449505350354,1449505352141,1041,306,0,0,0,2,3,1,5,0003-00-0001-02.png,0002-00-0000-55.png
00000009,171,1,1449505360663,1449505361272,1036,313,0,0,0,2,1,1,3,0003-00-0001-83.png,0004-00-0001-38.png
00000009,172,1,1449505362467,1449505362657,937,540,0,0,0,4,3,1,7,0001-00-0001-61.png,0002-00-0000-64.png
00000009,173,1,1449505363803,1449505364881,440,258,0,0,0,3,4,1,7,0002-00-0001-66.png,0001-00-0001-21.png
00000009,174,0,1449505365938,1449505366752,921,401,0,0,0,1,2,1,3,0004-00-0001-25.png,0003-00-0001-39.png
00000009,175,1,1449505369957,1449505370681,939,349,0,0,0,3,2,1,5,0002-00-0000-37.png,0003-00-0001-17.png
00000009,176,1,1449505371705,1449505372890,412,384,0,0,0,0,1,1,1,0005-00-0001-39.png,0004-00-0001-74.png
00000009,177,1,1449505374036,1449505374173,862,476,0,0,0,1,0,1,1,0004-00-0000-65.png,0005-00-0000-64.png
00000009,178,1,1449505375410,1449505376541,402,348,0,0,0,2,3,1,5,0003-00-0001-64.png,0002-00-0000-18.png
00000009,179,0,1449505377717,1449505378735,908,371,0,0,0,3,4,1,7,0002-00-0000-92.png,0001-00-0000-92.png
00000009,180,1,1449505381608,1449505381692,977,353,0,0,0,3,2,1,5,0002-00-0000-43.png,0003-00-0000-69.png
00000009,181,1,1449505382721,1449505383511,480,277,0,0,0,0,1,1,1,0005-00-0001-48.png,0004-00-0001-61.png
00000009,182,0,1449505384639,1449505385769,489,284,0,0,0,2,1,1,3,0003-00-0000-57.png,0004-00-0001-26.png
00000009,183,0,1449505388933,1449505388982,862,356,0,0,0,1,2,1,3,0004-00-0001-80.png,0003-00-0001-41.png
00000009,184,1,1449505392154,1449505392195,883,333,0,0,0,4,3,1,7,0001-00-0001-36.png,0002-00-0001-28.png
00000009,185,1,1449505393289,1449505394284,1014,257,0,0,0,4,3,1,7,0001-00-0000-04.png,0002-00-0000-33.png
00000009,186,0,1449505395445,1449505395591,888,462,0,0,0,0,1,1,1,0005-00-0001-72.png,0004-00-0001-16.png
00000009,187,1,1449505398774,1449505398794,938,338,0,0,0,3,2,1,5,0002-00-0001-67.png,0003-00-0000-04.png
00000009,188,0,1449505399915,1449505401455,927,352,0,0,0,1,2,1,3,0004-00-0000-08.png,0003-00-0000-70.png
00000009,189,0,1449505404578,1449505405331,935,381,0,0,0,2,3,1,5,0003-00-0001-44.png,0002-00-0000-11.png
00000009,190,0,1449505408494,1449505409202,486,292,0,0,0,2,1,1,3,0003-00-0001-37.png,0004-00-0000-19.png
00000009,191,0,1449505412389,1449505412413,871,318,0,0,0,3,4,1,7,0002-00-0000-45.png,0001-00-0000-87.png
00000009,192,1,1449505415330,1449505415957,956,384,0,0,0,1,0,1,1,0004-00-0000-39.png,0005-00-0000-52.png
00000009,193,1,1449505416979,1449505417094,867,484,0,0,0,4,3,1,7,0001-00-0000-65.png,0002-00-0001-58.png
00000009,194,1,1449505418351,1449505419225,913,333,0,0,0,1,0,1,1,0004-00-0000-47.png,0005-00-0001-44.png
00000009,195,0,1449505420290,1449505420310,859,455,0,0,0,1,2,1,3,0004-00-0000-80.png,0003-00-0001-89.png
00000009,196,0,1449505423160,1449505423216,988,386,0,0,0,2,3,1,5,0003-00-0000-46.png,0002-00-0001-89.png
00000009,197,0,1449505426240,1449505427220,967,332,0,0,0,3,4,1,7,0002-00-0000-36.png,0001-00-0000-17.png
00000009,198,1,1449505430557,1449505430797,907,384,0,0,0,3,2,1,5,0002-00-0000-92.png,0003-00-0001-90.png
00000009,199,1,1449505431868,1449505432673,444,238,0,0,0,0,1,1,1,0005-00-0000-10.png,0004-00-0000-29.png
00000009,200,0,1449505433654,1449505434752,471,261,0,0,0,2,1,1,3,0003-00-0001-10.png,0004-00-0000-19.png
00000009,201,0,1449505438188,1449505438256,936,309,0,0,0,1,2,1,3,0004-00-0000-55.png,0003-00-0000-50.png
00000009,202,1,1449505441408,1449505442256,477,277,0,0,0,0,1,1,1,0005-00-0001-42.png,0004-00-0001-36.png
00000009,203,0,1449505443296,1449505444057,930,306,0,0,0,2,3,1,5,0003-00-0000-49.png,0002-00-0001-53.png
00000009,204,1,1449505447249,1449505447285,880,329,0,0,0,2,1,1,3,0003-00-0000-66.png,0004-00-0001-24.png
00000009,205,0,1449505448524,1449505448620,861,509,0,0,0,3,4,1,7,0002-00-0001-55.png,0001-00-0001-65.png
00000009,206,1,1449505451492,1449505451520,876,454,0,0,0,1,0,1,1,0004-00-0001-58.png,0005-00-0001-82.png
00000009,207,1,1449505452958,1449505454212,979,259,0,0,0,4,3,1,7,0001-00-0000-18.png,0002-00-0000-75.png
00000009,208,1,1449505455322,1449505455386,864,463,0,0,0,3,2,1,5,0002-00-0001-41.png,0003-00-0000-91.png
00000009,209,1,1449505457227,1449505458201,468,240,0,0,0,3,4,1,7,0002-00-0001-89.png,0001-00-0000-09.png
00000009,210,1,1449505459235,1449505460508,905,324,0,0,0,4,3,1,7,0001-00-0001-17.png,0002-00-0000-97.png
00000009,211,0,1449505461562,1449505461586,870,461,0,0,0,1,2,1,3,0004-00-0001-01.png,0003-00-0001-79.png
00000009,212,1,1449505464713,1449505465349,410,386,0,0,0,0,1,1,1,0005-00-0000-03.png,0004-00-0001-37.png
00000009,213,1,1449505466341,1449505467292,480,282,0,0,0,2,3,1,5,0003-00-0000-02.png,0002-00-0000-95.png
00000009,214,1,1449505468413,1449505469454,1041,279,0,0,0,3,2,1,5,0002-00-0000-23.png,0003-00-0000-17.png
00000009,215,0,1449505470504,1449505471626,469,259,0,0,0,2,1,1,3,0003-00-0000-76.png,0004-00-0001-78.png
00000009,216,1,1449505474787,1449505474807,865,347,0,0,0,1,0,1,1,0004-00-0001-83.png,0005-00-0001-00.png
00000009,217,1,1449505475881,1449505476871,937,326,0,0,0,1,0,1,1,0004-00-0000-79.png,0005-00-0001-10.png
00000009,218,1,1449505477988,1449505478000,867,443,0,0,0,4,3,1,7,0001-00-0001-99.png,0002-00-0000-53.png
00000009,219,0,1449505479179,1449505480540,512,253,0,0,0,2,1,1,3,0003-00-0000-32.png,0004-00-0001-80.png
00000009,220,0,1449505483450,1449505483486,862,384,0,0,0,2,3,1,5,0003-00-0001-29.png,0002-00-0000-37.png
00000009,221,0,1449505488064,1449505488363,888,436,0,0,0,3,4,1,7,0002-00-0000-25.png,0001-00-0000-15.png
00000009,222,0,1449505491654,1449505491694,872,324,0,0,0,1,2,1,3,0004-00-0001-92.png,0003-00-0001-91.png
00000009,223,1,1449505496076,1449505496772,478,306,0,0,0,0,1,1,1,0005-00-0000-44.png,0004-00-0001-12.png
00000009,224,1,1449505497806,1449505498806,1026,306,0,0,0,3,2,1,5,0002-00-0001-20.png,0003-00-0000-07.png
00000009,225,0,1449505499863,1449505499950,888,505,0,0,0,1,2,1,3,0004-00-0001-06.png,0003-00-0001-10.png
00000009,226,1,1449505503181,1449505504029,939,322,0,0,0,4,3,1,7,0001-00-0000-81.png,0002-00-0001-65.png
00000009,227,0,1449505505099,1449505506597,1041,306,0,0,0,2,3,1,5,0003-00-0001-87.png,0002-00-0001-28.png
00000009,228,1,1449505509770,1449505510426,462,276,0,0,0,0,1,1,1,0005-00-0000-56.png,0004-00-0001-31.png
00000009,229,1,1449505511398,1449505513275,368,351,0,0,0,3,4,1,7,0002-00-0001-32.png,0001-00-0000-81.png
00000009,230,0,1449505514391,1449505515522,393,340,0,0,0,2,1,1,3,0003-00-0001-92.png,0004-00-0000-50.png
00000009,231,1,1449505521245,1449505521922,964,395,0,0,0,1,0,1,1,0004-00-0000-53.png,0005-00-0000-70.png
00000009,232,1,1449505522964,1449505523862,1041,279,0,0,0,3,2,1,5,0002-00-0001-79.png,0003-00-0000-11.png
00000009,233,1,1449505525004,1449505525107,876,473,0,0,0,1,0,1,1,0004-00-0001-26.png,0005-00-0000-10.png
00000009,234,0,1449505526492,1449505528198,945,313,0,0,0,3,4,1,7,0002-00-0001-89.png,0001-00-0001-82.png
00000009,235,1,1449505531414,1449505531974,1041,283,0,0,0,3,2,1,5,0002-00-0001-63.png,0003-00-0000-73.png
00000009,236,1,1449505533114,1449505534411,508,271,0,0,0,0,1,1,1,0005-00-0001-39.png,0004-00-0001-14.png
00000009,237,1,1449505535498,1449505537055,940,351,0,0,0,4,3,1,7,0001-00-0000-08.png,0002-00-0000-86.png
00000009,238,0,1449505538150,1449505538237,889,498,0,0,0,1,2,1,3,0004-00-0000-35.png,0003-00-0000-04.png
00000009,239,1,1449505541382,1449505541423,857,324,0,0,0,2,1,1,3,0003-00-0000-08.png,0004-00-0001-71.png
00000009,240,0,1449505542505,1449505542592,873,483,0,0,0,2,3,1,5,0003-00-0000-62.png,0002-00-0001-30.png
00000009,241,0,1449505545675,1449505545703,893,380,0,0,0,1,2,1,3,0004-00-0000-57.png,0003-00-0000-26.png
00000009,242,1,1449505548916,1449505549481,965,338,0,0,0,3,2,1,5,0002-00-0000-86.png,0003-00-0001-74.png
00000009,243,0,1449505550535,1449505550594,914,481,0,0,0,3,4,1,7,0002-00-0000-45.png,0001-00-0001-02.png
00000009,244,1,1449505553718,1449505554564,952,358,0,0,0,2,1,1,3,0003-00-0001-24.png,0004-00-0000-63.png
00000009,245,1,1449505555623,1449505556550,391,373,0,0,0,0,1,1,1,0005-00-0000-42.png,0004-00-0000-81.png
00000009,246,1,1449505557483,1449505559098,947,332,0,0,0,4,3,1,7,0001-00-0000-60.png,0002-00-0001-26.png
00000009,247,0,1449505560236,1449505561265,934,336,0,0,0,2,3,1,5,0003-00-0001-70.png,0002-00-0001-68.png
00000009,248,1,1449505564240,1449505564272,881,347,0,0,0,1,0,1,1,0004-00-0001-91.png,0005-00-0001-84.png
00000009,249,1,1449505565343,1449505565351,867,398,0,0,0,3,2,1,5,0002-00-0000-09.png,0003-00-0001-90.png
00000009,250,1,1449505566426,1449505567734,502,256,0,0,0,3,4,1,7,0002-00-0001-93.png,0001-00-0000-14.png
00000009,251,1,1449505568741,1449505569482,504,262,0,0,0,0,1,1,1,0005-00-0000-52.png,0004-00-0001-92.png
00000009,252,1,1449505570448,1449505571265,915,310,0,0,0,2,1,1,3,0003-00-0000-66.png,0004-00-0000-55.png
00000009,253,1,1449505572298,1449505572346,878,462,0,0,0,1,0,1,1,0004-00-0000-54.png,0005-00-0000-47.png
00000009,254,0,1449505573531,1449505574481,918,330,0,0,0,1,2,1,3,0004-00-0001-81.png,0003-00-0000-02.png
00000009,255,1,1449505577595,1449505577611,887,353,0,0,0,4,3,1,7,0001-00-0001-69.png,0002-00-0001-10.png
00000009,256,1,1449505578586,1449505579472,503,260,0,0,0,2,3,1,5,0003-00-0001-83.png,0002-00-0001-02.png
00000009,257,0,1449505580457,1449505581720,943,342,0,0,0,1,2,1,3,0004-00-0000-29.png,0003-00-0000-38.png
00000009,258,0,1449505584668,1449505585394,492,279,0,0,0,4,3,1,7,0001-00-0000-42.png,0002-00-0001-90.png
00000009,259,1,1449505588348,1449505589177,964,345,0,0,0,3,2,1,5,0002-00-0000-60.png,0003-00-0001-95.png
00000009,260,0,1449505590221,1449505590288,877,462,0,0,0,0,1,1,1,0005-00-0000-98.png,0004-00-0000-88.png
00000009,261,1,1449505593139,1449505594178,477,276,0,0,0,3,4,1,7,0002-00-0001-18.png,0001-00-0001-45.png
00000009,262,0,1449505595311,1449505596205,905,339,0,0,0,2,3,1,5,0003-00-0001-46.png,0002-00-0001-85.png
00000009,263,1,1449505599366,1449505600037,965,404,0,0,0,2,1,1,3,0003-00-0001-26.png,0004-00-0000-82.png
00000009,264,1,1449505601005,1449505601077,867,462,0,0,0,1,0,1,1,0004-00-0001-53.png,0005-00-0001-39.png
00000009,265,0,1449505602159,1449505603076,504,263,0,0,0,4,3,1,7,0001-00-0001-01.png,0002-00-0001-79.png
00000009,266,0,1449505606135,1449505606167,959,358,0,0,0,2,3,1,5,0003-00-0000-16.png,0002-00-0000-18.png
00000009,267,0,1449505609116,1449505609920,1016,279,0,0,0,3,4,1,7,0002-00-0001-00.png,0001-00-0000-16.png
00000009,268,1,1449505613126,1449505613143,888,335,0,0,0,1,0,1,1,0004-00-0000-97.png,0005-00-0001-76.png
00000009,269,0,1449505614126,1449505614222,874,480,0,0,0,0,1,1,1,0005-00-0001-82.png,0004-00-0001-52.png
00000009,270,1,1449505617177,1449505617201,974,375,0,0,0,3,2,1,5,0002-00-0000-10.png,0003-00-0001-25.png
00000009,271,1,1449505618229,1449505619115,1016,263,0,0,0,2,1,1,3,0003-00-0001-56.png,0004-00-0000-15.png
00000009,272,0,1449505620168,1449505620224,886,487,0,0,0,1,2,1,3,0004-00-0001-54.png,0003-00-0001-14.png
00000009,273,0,1449505623119,1449505623139,895,306,0,0,0,0,1,1,1,0005-00-0001-67.png,0004-00-0001-62.png
00000009,274,1,1449505626120,1449505626765,963,359,0,0,0,3,2,1,5,0002-00-0001-55.png,0003-00-0000-72.png
00000009,275,0,1449505627800,1449505627860,894,495,0,0,0,3,4,1,7,0002-00-0000-98.png,0001-00-0000-01.png
00000009,276,1,1449505630881,1449505631722,478,263,0,0,0,1,2,1,3,0004-00-0001-28.png,0003-00-0001-49.png
00000009,277,1,1449505632842,1449505632906,867,495,0,0,0,1,0,1,1,0004-00-0001-99.png,0005-00-0001-71.png
00000009,278,1,1449505634151,1449505634179,867,441,0,0,0,2,1,1,3,0003-00-0000-11.png,0004-00-0000-67.png
00000009,279,1,1449505635392,1449505635440,874,419,0,0,0,4,3,1,7,0001-00-0000-83.png,0002-00-0000-97.png
00000009,280,0,1449505636593,1449505636633,874,488,0,0,0,2,3,1,5,0003-00-0001-21.png,0002-00-0000-78.png
00000009,281,0,1449505639516,1449505639548,890,358,0,0,0,3,4,1,7,0002-00-0000-98.png,0001-00-0000-69.png
00000009,282,1,1449505642529,1449505642617,942,332,0,0,0,1,0,1,1,0004-00-0001-82.png,0005-00-0000-40.png
00000009,283,1,1449505643668,1449505644679,451,277,0,0,0,0,1,1,1,0005-00-0000-04.png,0004-00-0000-69.png
00000009,284,0,1449505645767,1449505645806,862,498,0,0,0,2,3,1,5,0003-00-0000-15.png,0002-00-0001-30.png
00000009,285,1,1449505648928,1449505649498,1066,281,0,0,0,2,1,1,3,0003-00-0001-35.png,0004-00-0000-88.png
00000009,286,1,1449505650478,1449505650534,874,496,0,0,0,4,3,1,7,0001-00-0001-14.png,0002-00-0000-27.png
00000009,287,0,1449505651727,1449505651820,867,443,0,0,0,1,2,1,3,0004-00-0001-85.png,0003-00-0000-49.png
00000009,288,1,1449505654957,1449505654997,913,332,0,0,0,3,2,1,5,0002-00-0001-16.png,0003-00-0001-23.png
00000009,289,1,1449505656020,1449505656157,874,541,0,0,0,1,0,1,1,0004-00-0001-40.png,0005-00-0000-00.png
00000009,290,0,1449505657423,1449505657498,864,534,0,0,0,2,3,1,5,0003-00-0000-28.png,0002-00-0000-88.png
00000009,291,1,1449505660605,1449505661225,1040,287,0,0,0,4,3,1,7,0001-00-0000-38.png,0002-00-0000-13.png
00000009,292,0,1449505662236,1449505663400,935,321,0,0,0,1,2,1,3,0004-00-0001-94.png,0003-00-0000-18.png
00000009,293,1,1449505666347,1449505666363,902,358,0,0,0,2,1,1,3,0003-00-0000-08.png,0004-00-0000-31.png
00000009,294,1,1449505667398,1449505668528,521,237,0,0,0,3,4,1,7,0002-00-0001-41.png,0001-00-0000-48.png
00000009,295,0,1449505669573,1449505669605,884,480,0,0,0,0,1,1,1,0005-00-0000-89.png,0004-00-0001-78.png
00000009,296,0,1449505672628,1449505673371,508,270,0,0,0,3,2,1,5,0002-00-0001-46.png,0003-00-0001-81.png
00000009,297,0,1449505676401,1449505676448,893,357,0,0,0,1,2,1,3,0004-00-0000-92.png,0003-00-0001-26.png
00000009,298,1,1449505679561,1449505680090,960,379,0,0,0,1,0,1,1,0004-00-0000-80.png,0005-00-0000-56.png
00000009,299,0,1449505681045,1449505681065,886,433,0,0,0,2,3,1,5,0003-00-0001-92.png,0002-00-0001-99.png
00000009,300,0,1449505684193,1449505684209,884,346,0,0,0,0,1,1,1,0005-00-0001-88.png,0004-00-0001-15.png
00000009,301,1,1449505687383,1449505687432,874,323,0,0,0,4,3,1,7,0001-00-0000-74.png,0002-00-0001-20.png
00000009,302,1,1449505688438,1449505689608,486,280,0,0,0,3,4,1,7,0002-00-0000-97.png,0001-00-0000-45.png
00000009,303,1,1449505690655,1449505691604,929,384,0,0,0,3,2,1,5,0002-00-0000-22.png,0003-00-0001-82.png
00000009,304,1,1449505692948,1449505692996,864,468,0,0,0,2,1,1,3,0003-00-0001-30.png,0004-00-0001-06.png
00000009,305,0,1449505694254,1449505695347,939,344,0,0,0,3,4,1,7,0002-00-0001-14.png,0001-00-0001-42.png
00000009,306,1,1449505698454,1449505699010,478,292,0,0,0,0,1,1,1,0005-00-0000-65.png,0004-00-0001-37.png
00000009,307,0,1449505699942,1449505701056,936,333,0,0,0,2,3,1,5,0003-00-0001-13.png,0002-00-0001-69.png
00000009,308,0,1449505704235,1449505704862,1070,284,0,0,0,1,2,1,3,0004-00-0000-86.png,0003-00-0001-21.png
00000009,309,1,1449505708044,1449505708060,933,323,0,0,0,2,1,1,3,0003-00-0001-37.png,0004-00-0001-39.png
00000009,310,1,1449505709158,1449505709912,1016,253,0,0,0,1,0,1,1,0004-00-0000-01.png,0005-00-0001-77.png
00000009,311,1,1449505710992,1449505711028,889,532,0,0,0,3,2,1,5,0002-00-0000-90.png,0003-00-0001-74.png
00000009,312,0,1449505712342,1449505713408,489,256,0,0,0,4,3,1,7,0001-00-0001-47.png,0002-00-0000-04.png
00000009,313,1,1449505716381,1449505716415,943,350,0,0,0,1,0,1,1,0004-00-0001-68.png,0005-00-0001-88.png
00000009,314,0,1449505717414,1449505718248,412,356,0,0,0,2,1,1,3,0003-00-0000-28.png,0004-00-0001-50.png
00000009,315,1,1449505721218,1449505722101,459,269,0,0,0,2,3,1,5,0003-00-0001-80.png,0002-00-0000-13.png
00000009,316,0,1449505723109,1449505723209,864,548,0,0,0,0,1,1,1,0005-00-0001-47.png,0004-00-0001-64.png
00000009,317,0,1449505726376,1449505726404,888,306,0,0,0,3,4,1,7,0002-00-0000-21.png,0001-00-0001-48.png
00000009,318,1,1449505729479,1449505729547,985,360,0,0,0,3,2,1,5,0002-00-0001-50.png,0003-00-0000-06.png
00000009,319,1,1449505730541,1449505731981,936,318,0,0,0,4,3,1,7,0001-00-0001-35.png,0002-00-0001-49.png
00000009,320,0,1449505733161,1449505734192,939,315,0,0,0,1,2,1,3,0004-00-0000-77.png,0003-00-0001-92.png
00000009,321,0,1449505737436,1449505737480,878,332,0,0,0,3,4,1,7,0002-00-0000-38.png,0001-00-0000-74.png
00000009,322,1,1449505740448,1449505740944,1045,285,0,0,0,2,1,1,3,0003-00-0000-14.png,0004-00-0001-00.png
00000009,323,1,1449505741917,1449505743039,383,377,0,0,0,1,2,1,3,0004-00-0001-84.png,0003-00-0001-05.png
00000009,324,1,1449505744085,1449505745824,510,261,0,0,0,2,3,1,5,0003-00-0000-73.png,0002-00-0000-97.png
00000009,325,1,1449505746837,1449505747890,980,275,0,0,0,3,2,1,5,0002-00-0000-13.png,0003-00-0000-20.png
00000009,326,1,1449505749034,1449505749998,1018,277,0,0,0,1,0,1,1,0004-00-0001-24.png,0005-00-0001-53.png
00000009,327,1,1449505751139,1449505753099,1016,332,0,0,0,4,3,1,7,0001-00-0000-19.png,0002-00-0001-69.png
00000009,328,0,1449505754888,1449505754932,890,483,0,0,0,0,1,1,1,0005-00-0001-70.png,0004-00-0001-36.png
00000009,329,0,1449505758105,1449505758737,1020,275,0,0,0,0,1,1,1,0005-00-0001-08.png,0004-00-0001-77.png
00000009,330,1,1449505761891,1449505762501,452,402,0,0,0,2,3,1,5,0003-00-0000-19.png,0002-00-0000-44.png
00000009,331,1,1449505763493,1449505764370,924,314,0,0,0,1,0,1,1,0004-00-0000-13.png,0005-00-0001-61.png
00000009,332,0,1449505765364,1449505765380,891,493,0,0,0,1,2,1,3,0004-00-0001-64.png,0003-00-0001-77.png
00000009,333,0,1449505768451,1449505768669,869,345,0,0,0,3,4,1,7,0002-00-0000-50.png,0001-00-0000-93.png
00000009,334,1,1449505771530,1449505772082,964,348,0,0,0,2,1,1,3,0003-00-0001-16.png,0004-00-0001-52.png
00000009,335,1,1449505773232,1449505773303,862,525,0,0,0,3,2,1,5,0002-00-0001-24.png,0003-00-0001-27.png
00000009,336,1,1449505774471,1449505774491,870,463,0,0,0,4,3,1,7,0001-00-0001-32.png,0002-00-0000-56.png
00000009,337,0,1449505775740,1449505775784,862,504,0,0,0,2,3,1,5,0003-00-0000-35.png,0002-00-0000-48.png
00000009,338,1,1449505778904,1449505778940,866,331,0,0,0,1,0,1,1,0004-00-0000-03.png,0005-00-0000-70.png
00000009,339,0,1449505779979,1449505781273,466,267,0,0,0,4,3,1,7,0001-00-0001-82.png,0002-00-0000-72.png
00000009,340,1,1449505784322,1449505785022,434,396,0,0,0,0,1,1,1,0005-00-0000-33.png,0004-00-0000-38.png
00000009,341,0,1449505785969,1449505786940,1013,322,0,0,0,1,2,1,3,0004-00-0001-46.png,0003-00-0000-19.png
00000009,342,0,1449505789794,1449505790581,488,265,0,0,0,2,1,1,3,0003-00-0001-58.png,0004-00-0001-77.png
00000009,343,0,1449505793721,1449505794484,940,345,0,0,0,3,4,1,7,0002-00-0001-45.png,0001-00-0001-32.png
00000009,344,1,1449505797598,1449505798265,967,382,0,0,0,3,2,1,5,0002-00-0000-82.png,0003-00-0000-74.png
00000009,345,1,1449505799228,1449505800127,482,252,0,0,0,0,1,1,1,0005-00-0001-07.png,0004-00-0000-44.png
00000009,346,1,1449505801044,1449505801879,939,348,0,0,0,1,0,1,1,0004-00-0001-26.png,0005-00-0001-40.png
00000009,347,0,1449505802895,1449505802923,905,467,0,0,0,3,4,1,7,0002-00-0001-26.png,0001-00-0001-95.png
00000009,348,0,1449505805915,1449505805931,881,368,0,0,0,1,2,1,3,0004-00-0001-60.png,0003-00-0001-79.png
00000009,349,1,1449505808824,1449505809409,1040,299,0,0,0,4,3,1,7,0001-00-0000-35.png,0002-00-0001-47.png
00000009,350,1,1449505810354,1449505810386,858,456,0,0,0,3,2,1,5,0002-00-0000-53.png,0003-00-0001-70.png
00000009,351,1,1449505811607,1449505812589,1002,279,0,0,0,2,1,1,3,0003-00-0001-93.png,0004-00-0001-35.png
00000009,352,0,1449505813542,1449505813578,897,480,0,0,0,2,3,1,5,0003-00-0001-36.png,0002-00-0000-09.png
00000009,353,1,1449505816963,1449505816987,886,330,0,0,0,3,2,1,5,0002-00-0000-77.png,0003-00-0000-05.png
00000009,354,1,1449505817930,1449505818655,491,264,0,0,0,0,1,1,1,0005-00-0000-91.png,0004-00-0000-58.png
00000009,355,1,1449505819639,1449505820849,1007,306,0,0,0,2,1,1,3,0003-00-0001-55.png,0004-00-0000-71.png
00000009,356,0,1449505821946,1449505823261,941,333,0,0,0,2,3,1,5,0003-00-0001-21.png,0002-00-0001-08.png
00000009,357,0,1449505826385,1449505826409,888,342,0,0,0,3,4,1,7,0002-00-0000-41.png,0001-00-0001-10.png
00000009,358,1,1449505829651,1449505829715,910,327,0,0,0,4,3,1,7,0001-00-0000-12.png,0002-00-0001-09.png
00000009,359,1,1449505830712,1449505831651,939,332,0,0,0,1,0,1,1,0004-00-0001-46.png,0005-00-0001-73.png
00000009,360,0,1449505832724,1449505832784,888,488,0,0,0,1,2,1,3,0004-00-0000-25.png,0003-00-0001-15.png
00000009,361,1,1449505835853,1449505835881,876,340,0,0,0,1,0,1,1,0004-00-0000-53.png,0005-00-0001-73.png
00000009,362,1,1449505836832,1449505837751,1016,279,0,0,0,3,2,1,5,0002-00-0000-44.png,0003-00-0001-98.png
00000009,363,0,1449505838835,1449505840171,478,397,0,0,0,2,1,1,3,0003-00-0000-81.png,0004-00-0001-47.png
00000009,364,1,1449505843267,1449505844291,939,356,0,0,0,4,3,1,7,0001-00-0001-37.png,0002-00-0001-07.png
00000009,365,0,1449505845297,1449505845353,889,496,0,0,0,1,2,1,3,0004-00-0001-10.png,0003-00-0000-02.png
00000009,366,0,1449505848415,1449505848431,862,384,0,0,0,0,1,1,1,0005-00-0000-85.png,0004-00-0000-32.png
00000009,367,0,1449505851306,1449505851326,857,423,0,0,0,2,3,1,5,0003-00-0000-98.png,0002-00-0000-28.png
00000009,368,0,1449505854259,1449505854354,959,381,0,0,0,3,4,1,7,0002-00-0001-45.png,0001-00-0001-13.png
00000009,369,1,1449505857556,1449505858075,504,289,0,0,0,0,1,1,1,0005-00-0000-58.png,0004-00-0000-73.png
00000009,370,0,1449505858978,1449505860068,420,343,0,0,0,2,1,1,3,0003-00-0000-18.png,0004-00-0001-78.png
00000009,371,1,1449505862903,1449505862923,890,433,0,0,0,1,0,1,1,0004-00-0000-44.png,0005-00-0001-63.png
00000009,372,0,1449505863953,1449505864961,917,343,0,0,0,1,2,1,3,0004-00-0001-50.png,0003-00-0000-87.png
00000009,373,0,1449505867831,1449505868557,1024,326,0,0,0,2,3,1,5,0003-00-0001-03.png,0002-00-0001-72.png
00000009,374,0,1449505871447,1449505872470,504,290,0,0,0,3,2,1,5,0002-00-0000-82.png,0003-00-0000-38.png
00000009,375,1,1449505875600,1449505876176,1042,278,0,0,0,4,3,1,7,0001-00-0000-76.png,0002-00-0000-95.png
00000009,376,0,1449505877165,1449505877189,863,435,0,0,0,3,4,1,7,0002-00-0000-26.png,0001-00-0000-44.png
00000009,377,0,1449505880254,1449505880302,913,358,0,0,0,0,1,1,1,0005-00-0001-73.png,0004-00-0001-97.png
00000009,378,0,1449505883315,1449505883908,1077,277,0,0,0,1,2,1,3,0004-00-0000-16.png,0003-00-0000-10.png
00000009,379,0,1449505886993,1449505887021,887,352,0,0,0,3,4,1,7,0002-00-0000-34.png,0001-00-0001-52.png
00000009,380,1,1449505890103,1449505890803,967,306,0,0,0,3,2,1,5,0002-00-0001-38.png,0003-00-0001-27.png
00000009,381,1,1449505891881,1449505891978,892,526,0,0,0,4,3,1,7,0001-00-0001-68.png,0002-00-0000-44.png
00000009,382,1,1449505893279,1449505893319,862,439,0,0,0,2,1,1,3,0003-00-0001-72.png,0004-00-0001-71.png
00000009,383,0,1449505894434,1449505894590,877,541,0,0,0,2,3,1,5,0003-00-0000-93.png,0002-00-0001-42.png
00000009,384,1,1449505897694,1449505898318,964,322,0,0,0,1,0,1,1,0004-00-0001-16.png,0005-00-0001-98.png
00000009,385,1,1449505899204,1449505899244,862,449,0,0,0,4,3,1,7,0001-00-0000-10.png,0002-00-0001-44.png
00000009,386,0,1449505900327,1449505900387,862,462,0,0,0,0,1,1,1,0005-00-0000-46.png,0004-00-0000-06.png
00000009,387,1,1449505903249,1449505903842,965,328,0,0,0,1,0,1,1,0004-00-0001-56.png,0005-00-0001-72.png
00000009,388,1,1449505904728,1449505904790,892,476,0,0,0,3,2,1,5,0002-00-0000-36.png,0003-00-0001-99.png
00000009,389,1,1449505905857,1449505907418,392,392,0,0,0,1,2,1,3,0004-00-0000-09.png,0003-00-0001-85.png
00000009,390,0,1449505908407,1449505909561,404,347,0,0,0,2,1,1,3,0003-00-0000-40.png,0004-00-0001-85.png
00000009,391,1,1449505912481,1449505913092,486,271,0,0,0,2,3,1,5,0003-00-0001-70.png,0002-00-0000-63.png
00000009,392,1,1449505914038,1449505914944,510,261,0,0,0,3,4,1,7,0002-00-0001-88.png,0001-00-0001-52.png
00000009,393,1,1449505915866,1449505915926,862,450,0,0,0,2,1,1,3,0003-00-0000-91.png,0004-00-0001-18.png
00000009,394,0,1449505917021,1449505917061,862,436,0,0,0,3,4,1,7,0002-00-0000-01.png,0001-00-0001-91.png
00000009,395,0,1449505920103,1449505920131,864,357,0,0,0,1,2,1,3,0004-00-0001-64.png,0003-00-0001-53.png
00000009,396,1,1449505923322,1449505924113,1067,306,0,0,0,3,2,1,5,0002-00-0001-56.png,0003-00-0001-60.png
00000009,397,0,1449505925103,1449505925157,876,489,0,0,0,0,1,1,1,0005-00-0000-48.png,0004-00-0001-05.png
00000009,398,1,1449505928039,1449505928595,1046,279,0,0,0,1,0,1,1,0004-00-0000-00.png,0005-00-0001-53.png
00000009,399,0,1449505929581,1449505929629,883,447,0,0,0,2,3,1,5,0003-00-0000-94.png,0002-00-0001-64.png
00000009,400,1,1449505932549,1449505933400,946,390,0,0,0,4,3,1,7,0001-00-0000-71.png,0002-00-0001-39.png
00000009,401,0,1449505934392,1449505934479,876,524,0,0,0,2,3,1,5,0003-00-0001-62.png,0002-00-0000-22.png
00000009,402,0,1449505937637,1449505937681,868,354,0,0,0,1,2,1,3,0004-00-0001-03.png,0003-00-0000-79.png
00000009,403,1,1449505940538,1449505941146,513,278,0,0,0,0,1,1,1,0005-00-0000-72.png,0004-00-0000-18.png
00000009,404,1,1449505942020,1449505943320,939,294,0,0,0,2,1,1,3,0003-00-0000-55.png,0004-00-0000-44.png
00000009,405,1,1449505944236,1449505945414,1067,296,0,0,0,4,3,1,7,0001-00-0001-96.png,0002-00-0000-71.png
00000009,406,0,1449505946502,1449505946542,912,495,0,0,0,3,4,1,7,0002-00-0000-62.png,0001-00-0001-14.png
00000009,407,1,1449505950828,1449505951364,964,342,0,0,0,3,2,1,5,0002-00-0000-44.png,0003-00-0001-99.png
00000009,408,1,1449505952255,1449505953041,939,410,0,0,0,1,0,1,1,0004-00-0001-61.png,0005-00-0000-94.png
00000009,409,1,1449505955091,1449505955674,504,240,0,0,0,0,1,1,1,0005-00-0001-03.png,0004-00-0000-74.png
00000009,410,0,1449505956630,1449505957461,511,245,0,0,0,4,3,1,7,0001-00-0001-77.png,0002-00-0001-02.png
00000009,411,1,1449505960575,1449505961201,964,306,0,0,0,3,2,1,5,0002-00-0000-01.png,0003-00-0001-33.png
00000009,412,0,1449505962163,1449505962211,873,436,0,0,0,2,3,1,5,0003-00-0000-43.png,0002-00-0000-11.png
00000009,413,0,1449505965054,1449505965729,401,372,0,0,0,2,1,1,3,0003-00-0001-33.png,0004-00-0001-06.png
00000009,414,0,1449505968623,1449505968651,920,410,0,0,0,1,2,1,3,0004-00-0000-78.png,0003-00-0001-00.png
00000009,415,1,1449505972481,1449505972520,893,326,0,0,0,1,0,1,1,0004-00-0001-58.png,0005-00-0001-11.png
00000009,416,0,1449505973546,1449505974518,960,338,0,0,0,3,4,1,7,0002-00-0001-53.png,0001-00-0000-80.png
00000009,417,1,1449505977417,1449505978075,967,329,0,0,0,4,3,1,7,0001-00-0001-18.png,0002-00-0000-32.png
00000009,418,0,1449505979038,1449505979060,862,410,0,0,0,0,1,1,1,0005-00-0000-89.png,0004-00-0000-30.png
00000009,419,0,1449505982024,1449505982061,498,411,0,0,0,1,0,1,1,0004-00-0000-14.png,0005-00-0000-45.png
00000009,420,1,1449505984931,1449505984959,948,347,0,0,0,2,1,1,3,0003-00-0001-33.png,0004-00-0000-92.png
00000009,421,0,1449505985979,1449505986043,878,489,0,0,0,2,3,1,5,0003-00-0000-68.png,0002-00-0001-89.png
00000009,422,0,1449505989077,1449505989109,939,306,0,0,0,1,2,1,3,0004-00-0000-38.png,0003-00-0000-89.png
00000009,423,0,1449505991974,1449505992798,401,344,0,0,0,3,2,1,5,0002-00-0001-89.png,0003-00-0000-12.png
00000009,424,0,1449505995783,1449505996375,974,326,0,0,0,3,4,1,7,0002-00-0000-80.png,0001-00-0001-55.png
00000009,425,1,1449505999527,1449505999594,915,317,0,0,0,2,1,1,3,0003-00-0000-66.png,0004-00-0000-95.png
00000009,426,0,1449506000582,1449506001383,489,248,0,0,0,4,3,1,7,0001-00-0000-54.png,0002-00-0001-91.png
00000009,427,1,1449506004578,1449506005338,471,417,0,0,0,3,4,1,7,0002-00-0001-30.png,0001-00-0000-58.png
00000009,428,1,1449506006358,1449506007428,471,260,0,0,0,1,2,1,3,0004-00-0001-57.png,0003-00-0001-16.png
00000009,429,1,1449506008404,1449506008428,859,462,0,0,0,3,2,1,5,0002-00-0001-33.png,0003-00-0001-15.png
00000009,430,0,1449506009456,1449506009527,862,462,0,0,0,2,3,1,5,0003-00-0001-76.png,0002-00-0000-33.png
00000009,431,1,1449506012646,1449506013159,1042,276,0,0,0,1,0,1,1,0004-00-0000-81.png,0005-00-0000-14.png
00000009,432,0,1449506014080,1449506014136,870,485,0,0,0,0,1,1,1,0005-00-0001-76.png,0004-00-0000-17.png
00000009,433,0,1449506018444,1449506018480,882,341,0,0,0,2,3,1,5,0003-00-0000-30.png,0002-00-0000-43.png
00000009,434,0,1449506021634,1449506022269,952,353,0,0,0,0,1,1,1,0005-00-0000-81.png,0004-00-0001-48.png
00000009,435,1,1449506025368,1449506025388,865,364,0,0,0,1,0,1,1,0004-00-0001-35.png,0005-00-0000-28.png
00000009,436,1,1449506026433,1449506026497,864,508,0,0,0,2,1,1,3,0003-00-0000-78.png,0004-00-0000-95.png
00000009,437,1,1449506027496,1449506028495,427,410,0,0,0,3,4,1,7,0002-00-0000-36.png,0001-00-0000-20.png
00000009,438,0,1449506029533,1449506029593,868,482,0,0,0,1,2,1,3,0004-00-0000-11.png,0003-00-0000-84.png
00000009,439,1,1449506032474,1449506033231,964,347,0,0,0,4,3,1,7,0001-00-0001-31.png,0002-00-0000-31.png
00000009,440,1,1449506034171,1449506034222,880,469,0,0,0,3,2,1,5,0002-00-0000-71.png,0003-00-0001-92.png
00000009,441,1,1449506035208,1449506035248,862,436,0,0,0,1,0,1,1,0004-00-0001-58.png,0005-00-0001-96.png
00000009,442,0,1449506036539,1449506036587,896,450,0,0,0,1,2,1,3,0004-00-0000-57.png,0003-00-0001-47.png
00000009,443,0,1449506039650,1449506040293,1032,293,0,0,0,2,3,1,5,0003-00-0001-26.png,0002-00-0001-55.png
00000009,444,1,1449506043374,1449506044011,967,397,0,0,0,2,1,1,3,0003-00-0000-12.png,0004-00-0001-07.png
00000009,445,1,1449506045027,1449506045055,890,449,0,0,0,3,2,1,5,0002-00-0000-37.png,0003-00-0000-12.png
00000009,446,0,1449506045928,1449506047152,489,296,0,0,0,4,3,1,7,0001-00-0000-36.png,0002-00-0001-66.png
00000009,447,0,1449506050125,1449506051059,1021,285,0,0,0,3,4,1,7,0002-00-0000-01.png,0001-00-0001-01.png
00000009,448,1,1449506054110,1449506054708,523,284,0,0,0,0,1,1,1,0005-00-0001-97.png,0004-00-0001-77.png
00000009,449,1,1449506055670,1449506056580,500,275,0,0,0,1,2,1,3,0004-00-0000-38.png,0003-00-0001-56.png
00000009,450,1,1449506057567,1449506058477,964,314,0,0,0,1,0,1,1,0004-00-0001-59.png,0005-00-0001-10.png
00000009,451,1,1449506059454,1449506059502,891,463,0,0,0,4,3,1,7,0001-00-0001-39.png,0002-00-0001-39.png
00000009,452,0,1449506060616,1449506060668,896,450,0,0,0,3,4,1,7,0002-00-0001-73.png,0001-00-0001-81.png
00000009,453,0,1449506063709,1449506064511,401,346,0,0,0,3,2,1,5,0002-00-0000-31.png,0003-00-0001-32.png
00000009,454,0,1449506067515,1449506068069,1087,328,0,0,0,2,3,1,5,0003-00-0001-30.png,0002-00-0000-71.png
00000009,455,1,1449506071109,1449506071683,515,266,0,0,0,0,1,1,1,0005-00-0001-05.png,0004-00-0001-60.png
00000009,456,0,1449506072729,1449506073526,507,242,0,0,0,2,1,1,3,0003-00-0000-28.png,0004-00-0000-05.png
00000009,457,1,1449506076597,1449506076633,862,344,0,0,0,2,1,1,3,0003-00-0001-69.png,0004-00-0000-21.png
00000009,458,0,1449506077687,1449506078443,496,261,0,0,0,4,3,1,7,0001-00-0001-91.png,0002-00-0001-05.png
00000009,459,1,1449506081518,1449506081583,862,358,0,0,0,3,2,1,5,0002-00-0001-32.png,0003-00-0001-49.png
00000009,460,1,1449506082539,1449506082610,859,441,0,0,0,1,0,1,1,0004-00-0001-64.png,0005-00-0001-32.png
00000009,461,1,1449506083635,1449506084769,453,426,0,0,0,2,3,1,5,0003-00-0001-90.png,0002-00-0000-16.png
00000009,462,0,1449506085818,1449506087790,964,345,0,0,0,1,2,1,3,0004-00-0000-68.png,0003-00-0001-59.png
00000009,463,0,1449506091093,1449506091981,988,460,0,0,0,3,4,1,7,0002-00-0001-73.png,0001-00-0001-90.png
00000009,464,1,1449506095031,1449506095586,504,262,0,0,0,0,1,1,1,0005-00-0001-11.png,0004-00-0001-49.png
00000009,465,1,1449506096579,1449506097571,939,317,0,0,0,1,0,1,1,0004-00-0001-97.png,0005-00-0001-59.png
00000009,466,0,1449506098549,1449506098686,877,541,0,0,0,3,4,1,7,0002-00-0000-42.png,0001-00-0000-74.png
00000009,467,0,1449506101527,1449506101563,862,405,0,0,0,1,2,1,3,0004-00-0001-14.png,0003-00-0001-14.png
00000009,468,1,1449506104587,1449506104624,875,336,0,0,0,2,1,1,3,0003-00-0000-02.png,0004-00-0001-92.png
00000009,469,1,1449506105612,1449506106316,414,335,0,0,0,0,1,1,1,0005-00-0001-26.png,0004-00-0000-90.png
00000009,470,0,1449506107222,1449506107995,504,242,0,0,0,3,2,1,5,0002-00-0001-91.png,0003-00-0000-22.png
00000009,471,1,1449506112919,1449506113680,1056,326,0,0,0,4,3,1,7,0001-00-0000-11.png,0002-00-0000-90.png
00000009,472,0,1449506114658,1449506114714,871,525,0,0,0,2,3,1,5,0003-00-0000-92.png,0002-00-0001-93.png
00000009,473,0,1449506117832,1449506118370,1041,278,0,0,0,3,4,1,7,0002-00-0000-95.png,0001-00-0000-84.png
00000009,474,1,1449506121306,1449506121860,929,400,0,0,0,1,0,1,1,0004-00-0001-03.png,0005-00-0000-94.png
00000009,475,0,1449506122758,1449506122847,866,503,0,0,0,1,2,1,3,0004-00-0001-05.png,0003-00-0000-36.png
00000009,476,1,1449506125987,1449506126621,964,347,0,0,0,2,1,1,3,0003-00-0001-24.png,0004-00-0001-46.png
00000009,477,0,1449506127610,1449506127669,891,494,0,0,0,2,3,1,5,0003-00-0000-22.png,0002-00-0000-16.png
00000009,478,1,1449506130796,1449506131825,1043,282,0,0,0,4,3,1,7,0001-00-0000-51.png,0002-00-0001-52.png
00000009,479,0,1449506132901,1449506133778,488,265,0,0,0,3,2,1,5,0002-00-0000-68.png,0003-00-0000-80.png
00000009,480,1,1449506137238,1449506137886,494,263,0,0,0,0,1,1,1,0005-00-0000-02.png,0004-00-0000-42.png
00000009,481,1,1449506138808,1449506139829,939,384,0,0,0,1,0,1,1,0004-00-0000-83.png,0005-00-0001-39.png
00000009,482,1,1449506140824,1449506141785,415,329,0,0,0,1,2,1,3,0004-00-0000-18.png,0003-00-0001-64.png
00000009,483,1,1449506142960,1449506143801,490,257,0,0,0,3,4,1,7,0002-00-0001-53.png,0001-00-0001-55.png
00000009,484,1,1449506145046,1449506146119,949,358,0,0,0,2,1,1,3,0003-00-0000-61.png,0004-00-0001-03.png
00000009,485,0,1449506147153,1449506147221,888,488,0,0,0,0,1,1,1,0005-00-0001-69.png,0004-00-0000-78.png
00000009,486,1,1449506150302,1449506150860,966,332,0,0,0,3,2,1,5,0002-00-0001-63.png,0003-00-0000-92.png
00000009,487,1,1449506151844,1449506151896,862,488,0,0,0,4,3,1,7,0001-00-0000-94.png,0002-00-0000-44.png
00000009,488,0,1449506153008,1449506153064,873,462,0,0,0,2,3,1,5,0003-00-0001-99.png,0002-00-0001-87.png
00000009,489,1,1449506156255,1449506156355,865,291,0,0,0,1,0,1,1,0004-00-0001-23.png,0005-00-0000-36.png
00000009,490,0,1449506157371,1449506158171,488,249,0,0,0,3,2,1,5,0002-00-0001-09.png,0003-00-0001-95.png
00000009,491,1,1449506161245,1449506161301,888,294,0,0,0,2,1,1,3,0003-00-0000-60.png,0004-00-0000-77.png
00000009,492,1,1449506162381,1449506162461,908,517,0,0,0,4,3,1,7,0001-00-0001-43.png,0002-00-0001-64.png
00000009,493,0,1449506163638,1449506163723,888,488,0,0,0,3,4,1,7,0002-00-0000-36.png,0001-00-0001-72.png
00000009,494,0,1449506166899,1449506167433,1067,253,0,0,0,1,2,1,3,0004-00-0001-27.png,0003-00-0000-11.png
00000009,495,0,1449506170303,1449506171133,1070,330,0,0,0,2,3,1,5,0003-00-0001-81.png,0002-00-0000-74.png
00000009,496,1,1449506173980,1449506174632,490,294,0,0,0,0,1,1,1,0005-00-0001-95.png,0004-00-0000-97.png
00000009,497,1,1449506175526,1449506175583,863,450,0,0,0,4,3,1,7,0001-00-0001-47.png,0002-00-0000-20.png
00000009,498,0,1449506176744,1449506176820,882,490,0,0,0,1,2,1,3,0004-00-0000-68.png,0003-00-0000-26.png
00000009,499,1,1449506179686,1449506180569,1062,364,0,0,0,2,1,1,3,0003-00-0000-47.png,0004-00-0001-61.png
00000009,500,1,1449506181635,1449506182555,1041,265,0,0,0,1,0,1,1,0004-00-0001-66.png,0005-00-0001-42.png
00000009,501,0,1449506183578,1449506184527,488,272,0,0,0,3,2,1,5,0002-00-0001-58.png,0003-00-0001-58.png
00000009,502,0,1449506187576,1449506187608,888,384,0,0,0,3,4,1,7,0002-00-0001-60.png,0001-00-0001-35.png
00000009,503,0,1449506190778,1449506190834,913,358,0,0,0,0,1,1,1,0005-00-0001-86.png,0004-00-0001-54.png
00000009,504,0,1449506194026,1449506194332,932,338,0,0,0,2,3,1,5,0003-00-0000-53.png,0002-00-0001-65.png
00000009,505,1,1449506197468,1449506198109,975,331,0,0,0,3,2,1,5,0002-00-0001-96.png,0003-00-0000-05.png
00000009,506,1,1449506199047,1449506199135,887,500,0,0,0,1,0,1,1,0004-00-0001-45.png,0005-00-0000-96.png
00000009,507,0,1449506200237,1449506200348,887,502,0,0,0,0,1,1,1,0005-00-0000-01.png,0004-00-0001-18.png
00000009,508,0,1449506203249,1449506204231,970,403,0,0,0,2,3,1,5,0003-00-0001-95.png,0002-00-0000-92.png
00000009,509,1,1449506208181,1449506208757,488,284,0,0,0,1,2,1,3,0004-00-0001-11.png,0003-00-0001-86.png
00000009,510,0,1449506209691,1449506210667,939,341,0,0,0,3,4,1,7,0002-00-0001-60.png,0001-00-0000-35.png
00000009,511,1,1449506213802,1449506213870,894,331,0,0,0,2,1,1,3,0003-00-0001-96.png,0004-00-0001-55.png
00000009,512,1,1449506214795,1449506214883,891,478,0,0,0,4,3,1,7,0001-00-0001-97.png,0002-00-0000-63.png
00000009,513,0,1449506216067,1449506216111,882,416,0,0,0,2,3,1,5,0003-00-0000-24.png,0002-00-0000-08.png
00000009,514,1,1449506219271,1449506219854,497,283,0,0,0,0,1,1,1,0005-00-0000-68.png,0004-00-0000-16.png
00000009,515,0,1449506220729,1449506220757,871,402,0,0,0,3,4,1,7,0002-00-0000-43.png,0001-00-0000-08.png
00000009,516,0,1449506223743,1449506224424,964,332,0,0,0,1,2,1,3,0004-00-0001-41.png,0003-00-0001-44.png
00000009,517,1,1449506227456,1449506227484,876,358,0,0,0,3,2,1,5,0002-00-0001-17.png,0003-00-0001-98.png
00000009,518,1,1449506228472,1449506228540,868,430,0,0,0,1,0,1,1,0004-00-0000-57.png,0005-00-0001-04.png
00000009,519,1,1449506229474,1449506229526,860,468,0,0,0,2,1,1,3,0003-00-0001-21.png,0004-00-0001-16.png
00000009,520,1,1449506230640,1449506230716,909,504,0,0,0,4,3,1,7,0001-00-0000-21.png,0002-00-0001-94.png
00000009,521,0,1449506231981,1449506232005,884,462,0,0,0,3,4,1,7,0002-00-0000-15.png,0001-00-0000-03.png
00000009,522,1,1449506234960,1449506235505,489,275,0,0,0,0,1,1,1,0005-00-0001-55.png,0004-00-0001-93.png
00000009,523,1,1449506236357,1449506237422,876,332,0,0,0,2,1,1,3,0003-00-0001-25.png,0004-00-0001-31.png
00000009,524,1,1449506238616,1449506238659,917,483,0,0,0,1,0,1,1,0004-00-0000-34.png,0005-00-0000-74.png
00000009,525,0,1449506239732,1449506239788,888,462,0,0,0,2,3,1,5,0003-00-0001-42.png,0002-00-0001-69.png
00000009,526,0,1449506242991,1449506243015,907,333,0,0,0,1,2,1,3,0004-00-0000-49.png,0003-00-0001-36.png
00000009,527,1,1449506246088,1449506246124,864,378,0,0,0,3,2,1,5,0002-00-0001-12.png,0003-00-0000-40.png
00000009,528,1,1449506247120,1449506247178,862,479,0,0,0,4,3,1,7,0001-00-0001-41.png,0002-00-0001-55.png
00000009,529,1,1449506248129,1449506248276,897,521,0,0,0,4,3,1,7,0001-00-0000-99.png,0002-00-0000-59.png
00000009,530,1,1449506249321,1449506249428,913,500,0,0,0,2,1,1,3,0003-00-0001-95.png,0004-00-0000-73.png
00000009,531,0,1449506250693,1449506250721,886,487,0,0,0,1,2,1,3,0004-00-0001-75.png,0003-00-0000-22.png
00000009,532,1,1449506253764,1449506254266,502,291,0,0,0,0,1,1,1,0005-00-0000-88.png,0004-00-0001-27.png
00000009,533,0,1449506255172,1449506256192,1016,279,0,0,0,2,3,1,5,0003-00-0001-50.png,0002-00-0001-64.png
00000009,534,1,1449506259078,1449506259630,939,394,0,0,0,1,0,1,1,0004-00-0000-33.png,0005-00-0001-66.png
00000009,535,0,1449506260527,1449506262060,1016,306,0,0,0,3,4,1,7,0002-00-0001-14.png,0001-00-0000-27.png
00000009,536,0,1449506265042,1449506266483,458,269,0,0,0,3,2,1,5,0002-00-0001-09.png,0003-00-0001-30.png
00000009,537,0,1449506269622,1449506270171,1043,272,0,0,0,1,2,1,3,0004-00-0000-65.png,0003-00-0001-79.png
00000009,538,1,1449506273253,1449506274016,453,289,0,0,0,3,4,1,7,0002-00-0000-75.png,0001-00-0000-71.png
00000009,539,1,1449506274942,1449506275839,906,328,0,0,0,2,1,1,3,0003-00-0001-44.png,0004-00-0001-32.png
00000009,540,0,1449506276870,1449506276965,909,462,0,0,0,2,3,1,5,0003-00-0001-84.png,0002-00-0001-76.png
00000009,541,1,1449506280096,1449506280327,862,426,0,0,0,3,2,1,5,0002-00-0001-56.png,0003-00-0001-14.png
00000009,542,1,1449506281267,1449506281329,889,457,0,0,0,4,3,1,7,0001-00-0001-46.png,0002-00-0001-33.png
00000009,543,0,1449506282381,1449506282527,877,496,0,0,0,0,1,1,1,0005-00-0001-50.png,0004-00-0001-70.png
00000009,544,1,1449506285406,1449506286009,1016,265,0,0,0,1,0,1,1,0004-00-0000-06.png,0005-00-0000-55.png
00000009,545,1,1449506286904,1449506286947,869,454,0,0,0,2,1,1,3,0003-00-0001-42.png,0004-00-0000-14.png
00000009,546,1,1449506287921,1449506287965,865,460,0,0,0,4,3,1,7,0001-00-0000-95.png,0002-00-0000-17.png
00000009,547,1,1449506289082,1449506289118,893,437,0,0,0,3,2,1,5,0002-00-0001-07.png,0003-00-0001-79.png
00000009,548,1,1449506290216,1449506290256,891,468,0,0,0,1,0,1,1,0004-00-0001-55.png,0005-00-0000-77.png
00000009,549,0,1449506291465,1449506291529,878,522,0,0,0,2,3,1,5,0003-00-0001-52.png,0002-00-0001-32.png
00000009,550,0,1449506294549,1449506295183,960,348,0,0,0,3,4,1,7,0002-00-0001-46.png,0001-00-0000-16.png
00000009,551,1,1449506298326,1449506298992,484,268,0,0,0,1,2,1,3,0004-00-0001-58.png,0003-00-0000-19.png
00000009,552,1,1449506299876,1449506300750,490,240,0,0,0,0,1,1,1,0005-00-0000-34.png,0004-00-0000-71.png
00000009,553,1,1449506301742,1449506302768,1018,279,0,0,0,3,2,1,5,0002-00-0001-36.png,0003-00-0001-86.png
00000009,554,1,1449506303867,1449506303899,891,435,0,0,0,4,3,1,7,0001-00-0000-06.png,0002-00-0000-67.png
00000009,555,1,1449506305013,1449506305041,878,406,0,0,0,2,1,1,3,0003-00-0001-98.png,0004-00-0000-54.png
00000009,556,0,1449506307972,1449506308508,488,309,0,0,0,1,0,1,1,0004-00-0001-22.png,0005-00-0001-22.png
00000009,557,1,1449506311521,1449506312245,488,279,0,0,0,1,2,1,3,0004-00-0001-63.png,0003-00-0000-97.png
00000009,558,0,1449506313211,1449506314143,936,302,0,0,0,2,3,1,5,0003-00-0001-49.png,0002-00-0001-44.png
00000009,559,0,1449506317306,1449506317908,955,362,0,0,0,0,1,1,1,0005-00-0001-75.png,0004-00-0000-15.png
00000009,560,1,1449506320999,1449506321778,514,284,0,0,0,3,4,1,7,0002-00-0001-54.png,0001-00-0001-94.png
00000009,561,0,1449506322694,1449506323813,478,263,0,0,0,3,2,1,5,0002-00-0000-60.png,0003-00-0000-15.png
00000009,562,1,1449506326792,1449506327314,1046,285,0,0,0,1,0,1,1,0004-00-0000-38.png,0005-00-0000-52.png
00000009,563,0,1449506328153,1449506328228,884,454,0,0,0,3,4,1,7,0002-00-0001-65.png,0001-00-0000-03.png
00000009,564,1,1449506331337,1449506331910,487,267,0,0,0,0,1,1,1,0005-00-0001-22.png,0004-00-0001-80.png
00000009,565,1,1449506332800,1449506333829,913,290,0,0,0,4,3,1,7,0001-00-0000-34.png,0002-00-0000-97.png
00000009,566,0,1449506334766,1449506334833,900,446,0,0,0,1,2,1,3,0004-00-0001-16.png,0003-00-0001-14.png
00000009,567,1,1449506337706,1449506338283,1019,271,0,0,0,2,1,1,3,0003-00-0000-26.png,0004-00-0001-22.png
00000009,568,0,1449506339215,1449506339273,888,462,0,0,0,2,3,1,5,0003-00-0000-84.png,0002-00-0001-44.png
00000009,569,0,1449506342434,1449506343131,1039,257,0,0,0,0,1,1,1,0005-00-0001-95.png,0004-00-0000-47.png
00000009,570,1,1449506346275,1449506346869,1046,282,0,0,0,1,0,1,1,0004-00-0001-05.png,0005-00-0001-81.png
00000009,571,1,1449506347807,1449506348845,938,304,0,0,0,2,1,1,3,0003-00-0001-22.png,0004-00-0000-69.png
00000009,572,0,1449506349791,1449506350685,1016,319,0,0,0,1,2,1,3,0004-00-0001-29.png,0003-00-0000-85.png
00000009,573,0,1449506353578,1449506353610,862,399,0,0,0,3,4,1,7,0002-00-0000-33.png,0001-00-0000-31.png
00000009,574,0,1449506356529,1449506357266,482,284,0,0,0,4,3,1,7,0001-00-0000-33.png,0002-00-0000-18.png
00000009,575,1,1449506360352,1449506360982,495,282,0,0,0,2,3,1,5,0003-00-0001-95.png,0002-00-0001-25.png
00000009,576,0,1449506361880,1449506362672,504,252,0,0,0,3,2,1,5,0002-00-0001-68.png,0003-00-0001-46.png
00000009,577,1,1449506365623,1449506366191,976,350,0,0,0,4,3,1,7,0001-00-0001-99.png,0002-00-0001-51.png
00000009,578,1,1449506367161,1449506367276,913,514,0,0,0,1,0,1,1,0004-00-0000-59.png,0005-00-0000-18.png
00000009,579,0,1449506368331,1449506369215,934,304,0,0,0,3,4,1,7,0002-00-0001-67.png,0001-00-0001-60.png
00000009,580,0,1449506372328,1449506372938,510,276,0,0,0,2,1,1,3,0003-00-0001-52.png,0004-00-0001-64.png
00000009,581,1,1449506376045,1449506376073,910,355,0,0,0,3,2,1,5,0002-00-0000-05.png,0003-00-0000-91.png
00000009,582,0,1449506377059,1449506377083,859,432,0,0,0,2,3,1,5,0003-00-0000-72.png,0002-00-0001-12.png
00000009,583,0,1449506380006,1449506380555,913,292,0,0,0,0,1,1,1,0005-00-0000-82.png,0004-00-0001-54.png
00000009,584,0,1449506383784,1449506383975,888,252,0,0,0,1,2,1,3,0004-00-0000-29.png,0003-00-0001-12.png
00000009,585,0,1449506386907,1449506387743,481,265,0,0,0,4,3,1,7,0001-00-0000-62.png,0002-00-0000-49.png
00000009,586,0,1449506390852,1449506390871,862,349,0,0,0,1,2,1,3,0004-00-0000-00.png,0003-00-0001-40.png
00000009,587,1,1449506394053,1449506394555,464,306,0,0,0,0,1,1,1,0005-00-0001-97.png,0004-00-0000-89.png
00000009,588,0,1449506395442,1449506396502,939,306,0,0,0,3,4,1,7,0002-00-0000-81.png,0001-00-0001-86.png
00000009,589,1,1449506399781,1449506400610,1071,319,0,0,0,2,1,1,3,0003-00-0001-77.png,0004-00-0000-79.png
00000009,590,1,1449506401548,1449506401584,863,436,0,0,0,3,2,1,5,0002-00-0001-91.png,0003-00-0001-71.png
00000009,591,1,1449506402602,1449506402650,867,444,0,0,0,1,0,1,1,0004-00-0000-24.png,0005-00-0000-98.png
00000009,592,0,1449506403809,1449506403841,888,426,0,0,0,2,3,1,5,0003-00-0000-85.png,0002-00-0000-34.png
00000009,593,0,1449506406762,1449506407369,1040,274,0,0,0,1,2,1,3,0004-00-0000-69.png,0003-00-0000-52.png
00000009,594,0,1449506410529,1449506410561,873,309,0,0,0,3,4,1,7,0002-00-0000-46.png,0001-00-0001-32.png
00000009,595,1,1449506413447,1449506413477,879,315,0,0,0,1,0,1,1,0004-00-0000-45.png,0005-00-0000-20.png
00000009,596,0,1449506414485,1449506415418,939,410,0,0,0,2,3,1,5,0003-00-0000-83.png,0002-00-0001-43.png
00000009,597,1,1449506418917,1449506419434,488,293,0,0,0,0,1,1,1,0005-00-0001-00.png,0004-00-0001-34.png
00000009,598,1,1449506420319,1449506421250,959,382,0,0,0,3,2,1,5,0002-00-0000-53.png,0003-00-0001-20.png
00000009,599,1,1449506422376,1449506422406,885,472,0,0,0,4,3,1,7,0001-00-0000-12.png,0002-00-0001-37.png
00000009,600,1,1449506423461,1449506423558,888,477,0,0,0,2,1,1,3,0003-00-0001-16.png,0004-00-0001-47.png
00000009,601,0,1449506424643,1449506424711,877,488,0,0,0,3,4,1,7,0002-00-0000-16.png,0001-00-0000-88.png
00000009,602,1,1449506427613,1449506428202,501,263,0,0,0,0,1,1,1,0005-00-0001-27.png,0004-00-0000-02.png
00000009,603,1,1449506429080,1449506430068,475,295,0,0,0,2,3,1,5,0003-00-0001-24.png,0002-00-0001-99.png
00000009,604,0,1449506431023,1449506432160,483,286,0,0,0,4,3,1,7,0001-00-0000-79.png,0002-00-0000-29.png
00000009,605,0,1449506435244,1449506435392,884,280,0,0,0,1,2,1,3,0004-00-0001-67.png,0003-00-0000-47.png
00000009,606,1,1449506438546,1449506438563,862,358,0,0,0,3,2,1,5,0002-00-0000-44.png,0003-00-0001-68.png
00000009,607,1,1449506439527,1449506440219,934,320,0,0,0,1,0,1,1,0004-00-0001-17.png,0005-00-0001-50.png
00000009,608,1,1449506441149,1449506441205,885,460,0,0,0,2,1,1,3,0003-00-0001-42.png,0004-00-0000-35.png
00000009,609,0,1449506442332,1449506442391,888,447,0,0,0,1,2,1,3,0004-00-0001-32.png,0003-00-0000-01.png
00000009,610,1,1449506445393,1449506445916,963,316,0,0,0,1,0,1,1,0004-00-0000-38.png,0005-00-0000-86.png
00000009,611,1,1449506446795,1449506446835,890,455,0,0,0,4,3,1,7,0001-00-0001-89.png,0002-00-0000-75.png
00000009,612,1,1449506447798,1449506449550,434,269,0,0,0,0,1,1,1,0005-00-0001-39.png,0004-00-0001-76.png
00000009,613,1,1449506450510,1449506451412,1041,291,0,0,0,3,2,1,5,0002-00-0001-07.png,0003-00-0001-68.png
00000009,614,1,1449506452410,1449506452470,914,423,0,0,0,2,1,1,3,0003-00-0000-15.png,0004-00-0000-98.png
00000009,615,0,1449506453539,1449506453559,888,436,0,0,0,2,3,1,5,0003-00-0000-64.png,0002-00-0001-46.png
00000009,616,1,1449506456403,1449506457186,430,365,0,0,0,3,4,1,7,0002-00-0001-07.png,0001-00-0001-39.png
00000009,617,1,1449506458129,1449506459389,486,271,0,0,0,2,3,1,5,0003-00-0001-39.png,0002-00-0000-29.png
00000009,618,1,1449506460349,1449506461376,955,333,0,0,0,1,0,1,1,0004-00-0000-64.png,0005-00-0001-04.png
00000009,619,0,1449506462365,1449506462432,885,473,0,0,0,0,1,1,1,0005-00-0001-59.png,0004-00-0001-20.png
00000009,620,1,1449506465296,1449506465891,954,361,0,0,0,4,3,1,7,0001-00-0001-39.png,0002-00-0001-82.png
00000009,621,1,1449506466771,1449506466912,941,552,0,0,0,2,1,1,3,0003-00-0000-39.png,0004-00-0000-46.png
00000009,622,0,1449506468046,1449506468070,909,437,0,0,0,3,4,1,7,0002-00-0001-64.png,0001-00-0001-97.png
00000009,623,1,1449506470982,1449506471705,947,333,0,0,0,3,2,1,5,0002-00-0000-90.png,0003-00-0001-76.png
00000009,624,0,1449506472623,1449506472700,919,473,0,0,0,1,2,1,3,0004-00-0000-43.png,0003-00-0001-99.png
00000009,625,1,1449506475811,1449506476401,932,362,0,0,0,1,0,1,1,0004-00-0001-14.png,0005-00-0001-52.png
00000009,626,1,1449506477299,1449506477319,875,433,0,0,0,3,2,1,5,0002-00-0000-56.png,0003-00-0001-28.png
00000009,627,0,1449506478177,1449506478241,862,462,0,0,0,0,1,1,1,0005-00-0001-42.png,0004-00-0001-83.png
00000009,628,1,1449506481216,1449506482138,481,290,0,0,0,2,3,1,5,0003-00-0000-18.png,0002-00-0001-03.png
00000009,629,1,1449506483013,1449506483053,866,439,0,0,0,4,3,1,7,0001-00-0001-83.png,0002-00-0001-74.png
00000009,630,1,1449506484067,1449506484136,882,488,0,0,0,2,1,1,3,0003-00-0000-03.png,0004-00-0001-41.png
00000009,631,0,1449506485209,1449506485233,897,411,0,0,0,1,2,1,3,0004-00-0001-61.png,0003-00-0000-90.png
00000009,632,0,1449506488252,1449506488927,939,332,0,0,0,3,4,1,7,0002-00-0000-05.png,0001-00-0001-67.png
00000009,633,0,1449506491997,1449506492045,895,346,0,0,0,0,1,1,1,0005-00-0001-66.png,0004-00-0000-19.png
00000009,634,1,1449506495027,1449506495781,482,269,0,0,0,1,2,1,3,0004-00-0001-97.png,0003-00-0000-38.png
00000009,635,0,1449506496698,1449506497543,963,315,0,0,0,2,3,1,5,0003-00-0001-96.png,0002-00-0001-08.png
00000009,636,1,1449506500669,1449506501233,939,384,0,0,0,1,0,1,1,0004-00-0000-23.png,0005-00-0001-07.png
00000009,637,1,1449506502093,1449506502153,860,491,0,0,0,2,1,1,3,0003-00-0001-88.png,0004-00-0000-82.png
00000009,638,1,1449506503208,1449506503330,861,511,0,0,0,4,3,1,7,0001-00-0000-37.png,0002-00-0000-46.png
00000009,639,1,1449506504491,1449506504527,873,441,0,0,0,3,2,1,5,0002-00-0001-03.png,0003-00-0000-59.png
00000009,640,1,1449506505657,1449506507152,483,272,0,0,0,3,4,1,7,0002-00-0000-70.png,0001-00-0001-58.png
00000009,641,0,1449506508141,1449506508208,862,488,0,0,0,1,2,1,3,0004-00-0000-14.png,0003-00-0000-01.png
00000009,642,0,1449506511170,1449506511877,504,269,0,0,0,2,1,1,3,0003-00-0001-22.png,0004-00-0000-26.png
00000009,643,1,1449506514934,1449506515177,866,372,0,0,0,1,0,1,1,0004-00-0001-79.png,0005-00-0001-86.png
00000009,644,1,1449506516144,1449506517039,370,367,0,0,0,2,3,1,5,0003-00-0001-70.png,0002-00-0000-93.png
00000009,645,1,1449506517933,1449506518900,488,253,0,0,0,3,4,1,7,0002-00-0001-29.png,0001-00-0001-67.png
00000009,646,1,1449506520052,1449506520170,874,520,0,0,0,4,3,1,7,0001-00-0000-76.png,0002-00-0001-03.png
00000009,647,0,1449506521126,1449506521172,862,488,0,0,0,0,1,1,1,0005-00-0001-87.png,0004-00-0000-70.png
00000009,648,1,1449506524326,1449506525142,1041,306,0,0,0,3,2,1,5,0002-00-0001-34.png,0003-00-0000-27.png
00000009,649,1,1449506526093,1449506526109,882,462,0,0,0,4,3,1,7,0001-00-0001-58.png,0002-00-0000-83.png
00000009,650,0,1449506527018,1449506527889,1022,271,0,0,0,3,4,1,7,0002-00-0000-37.png,0001-00-0000-72.png
00000009,651,1,1449506530770,1449506531311,483,280,0,0,0,0,1,1,1,0005-00-0000-06.png,0004-00-0001-17.png
00000009,652,1,1449506532191,1449506533041,472,287,0,0,0,2,3,1,5,0003-00-0001-20.png,0002-00-0001-65.png
00000009,653,1,1449506534012,1449506534717,946,457,0,0,0,1,0,1,1,0004-00-0001-80.png,0005-00-0000-16.png
00000009,654,0,1449506535696,1449506535712,879,447,0,0,0,1,2,1,3,0004-00-0001-39.png,0003-00-0001-70.png
00000009,655,0,1449506538578,1449506539168,475,403,0,0,0,2,1,1,3,0003-00-0001-00.png,0004-00-0001-89.png
00000009,656,1,1449506542203,1449506542788,939,306,0,0,0,3,2,1,5,0002-00-0000-02.png,0003-00-0000-30.png
00000009,657,0,1449506543622,1449506543688,888,448,0,0,0,2,3,1,5,0003-00-0001-79.png,0002-00-0000-43.png
00000009,658,1,1449506546842,1449506547494,1066,310,0,0,0,2,1,1,3,0003-00-0000-75.png,0004-00-0000-83.png
00000009,659,1,1449506548348,1449506549203,489,238,0,0,0,1,2,1,3,0004-00-0000-01.png,0003-00-0000-84.png
00000009,660,1,1449506550110,1449506551009,926,326,0,0,0,3,2,1,5,0002-00-0001-30.png,0003-00-0000-98.png
00000009,661,1,1449506551919,1449506551994,873,462,0,0,0,4,3,1,7,0001-00-0000-25.png,0002-00-0001-54.png
00000009,662,1,1449506553090,1449506553170,879,462,0,0,0,1,0,1,1,0004-00-0001-30.png,0005-00-0000-21.png
00000009,663,0,1449506554473,1449506554576,887,489,0,0,0,0,1,1,1,0005-00-0001-84.png,0004-00-0001-38.png
00000009,664,1,1449506557635,1449506558274,465,268,0,0,0,3,4,1,7,0002-00-0000-26.png,0001-00-0001-14.png
00000009,665,1,1449506559140,1449506559871,497,236,0,0,0,0,1,1,1,0005-00-0001-32.png,0004-00-0001-36.png
00000009,666,0,1449506560812,1449506561778,934,297,0,0,0,2,3,1,5,0003-00-0000-39.png,0002-00-0000-34.png
00000009,667,1,1449506564887,1449506564955,913,344,0,0,0,1,0,1,1,0004-00-0001-72.png,0005-00-0001-16.png
00000009,668,1,1449506565824,1449506566793,466,264,0,0,0,3,4,1,7,0002-00-0001-10.png,0001-00-0000-65.png
00000009,669,1,1449506567718,1449506568640,940,413,0,0,0,2,1,1,3,0003-00-0000-14.png,0004-00-0000-84.png
00000009,670,1,1449506569655,1449506569683,860,455,0,0,0,3,2,1,5,0002-00-0001-04.png,0003-00-0001-53.png
00000009,671,0,1449506570701,1449506570738,873,441,0,0,0,1,2,1,3,0004-00-0001-49.png,0003-00-0000-76.png
00000009,672,1,1449506573740,1449506574553,939,422,0,0,0,4,3,1,7,0001-00-0001-42.png,0002-00-0000-35.png
00000009,673,1,1449506575410,1449506575470,873,440,0,0,0,2,1,1,3,0003-00-0001-90.png,0004-00-0001-90.png
00000009,674,1,1449506576414,1449506577326,505,285,0,0,0,0,1,1,1,0005-00-0000-32.png,0004-00-0000-95.png
00000009,675,0,1449506578170,1449506579299,484,275,0,0,0,4,3,1,7,0001-00-0001-31.png,0002-00-0001-16.png
00000009,676,1,1449506582395,1449506583002,497,268,0,0,0,2,3,1,5,0003-00-0001-74.png,0002-00-0000-12.png
00000009,677,0,1449506583863,1449506585104,465,269,0,0,0,3,2,1,5,0002-00-0000-76.png,0003-00-0001-35.png
00000009,678,0,1449506588218,1449506588268,899,332,0,0,0,3,4,1,7,0002-00-0001-78.png,0001-00-0001-57.png
00000009,679,0,1449506591380,1449506591971,942,395,0,0,0,1,2,1,3,0004-00-0000-39.png,0003-00-0000-73.png
00000009,680,1,1449506594955,1449506595460,964,295,0,0,0,1,0,1,1,0004-00-0001-57.png,0005-00-0000-26.png
00000009,681,1,1449506596345,1449506596421,916,421,0,0,0,1,0,1,1,0004-00-0000-09.png,0005-00-0000-20.png
00000009,682,1,1449506597291,1449506597351,885,443,0,0,0,2,1,1,3,0003-00-0001-27.png,0004-00-0000-36.png
00000009,683,0,1449506598544,1449506598572,880,439,0,0,0,3,4,1,7,0002-00-0000-07.png,0001-00-0000-24.png
00000009,684,1,1449506601399,1449506601904,498,263,0,0,0,0,1,1,1,0005-00-0001-65.png,0004-00-0001-74.png
00000009,685,0,1449506602797,1449506602860,861,463,0,0,0,2,3,1,5,0003-00-0000-45.png,0002-00-0001-49.png
00000009,686,0,1449506606095,1449506606891,491,279,0,0,0,4,3,1,7,0001-00-0000-67.png,0002-00-0000-41.png
00000009,687,1,1449506609833,1449506610629,1070,286,0,0,0,3,2,1,5,0002-00-0000-94.png,0003-00-0001-64.png
00000009,688,0,1449506611603,1449506611663,861,458,0,0,0,1,2,1,3,0004-00-0001-51.png,0003-00-0001-49.png
00000009,689,1,1449506614693,1449506615268,437,410,0,0,0,2,3,1,5,0003-00-0000-85.png,0002-00-0001-94.png
00000009,690,1,1449506616687,1449506617516,922,306,0,0,0,3,2,1,5,0002-00-0001-98.png,0003-00-0001-09.png
00000009,691,0,1449506619196,1449506619812,443,410,0,0,0,4,3,1,7,0001-00-0001-23.png,0002-00-0001-29.png
00000009,692,0,1449506622819,1449506623305,984,380,0,0,0,3,4,1,7,0002-00-0001-60.png,0001-00-0000-42.png
00000009,693,1,1449506626303,1449506626836,502,266,0,0,0,0,1,1,1,0005-00-0001-93.png,0004-00-0000-66.png
00000009,694,0,1449506627739,1449506628831,937,370,0,0,0,1,2,1,3,0004-00-0000-86.png,0003-00-0001-09.png
00000009,695,1,1449506631704,1449506632342,1047,320,0,0,0,1,0,1,1,0004-00-0000-42.png,0005-00-0000-44.png
00000009,696,1,1449506633775,1449506635235,1041,306,0,0,0,2,1,1,3,0003-00-0001-25.png,0004-00-0001-50.png
00000009,697,0,1449506636311,1449506636384,886,510,0,0,0,2,3,1,5,0003-00-0001-43.png,0002-00-0001-82.png
00000009,698,1,1449506639250,1449506639796,1046,283,0,0,0,2,1,1,3,0003-00-0000-77.png,0004-00-0000-73.png
00000009,699,1,1449506640802,1449506641570,959,355,0,0,0,1,0,1,1,0004-00-0000-16.png,0005-00-0000-90.png
00000009,700,1,1449506642549,1449506642617,894,462,0,0,0,4,3,1,7,0001-00-0001-91.png,0002-00-0000-32.png
00000009,701,0,1449506643652,1449506643708,890,493,0,0,0,3,4,1,7,0002-00-0001-55.png,0001-00-0001-30.png
00000009,702,0,1449506646887,1449506647565,509,294,0,0,0,3,2,1,5,0002-00-0000-78.png,0003-00-0000-21.png
00000009,703,0,1449506650450,1449506651037,938,362,0,0,0,1,2,1,3,0004-00-0000-45.png,0003-00-0001-03.png
00000009,704,1,1449506654166,1449506654702,453,423,0,0,0,0,1,1,1,0005-00-0000-49.png,0004-00-0001-64.png
00000009,705,1,1449506655566,1449506656418,478,240,0,0,0,1,2,1,3,0004-00-0000-17.png,0003-00-0001-10.png
00000009,706,1,1449506657350,1449506658073,1027,271,0,0,0,1,0,1,1,0004-00-0001-91.png,0005-00-0001-48.png
00000009,707,1,1449506659209,1449506659253,890,543,0,0,0,2,1,1,3,0003-00-0000-95.png,0004-00-0001-87.png
00000009,708,0,1449506660500,1449506661214,1016,279,0,0,0,2,3,1,5,0003-00-0000-12.png,0002-00-0000-25.png
00000009,709,1,1449506664341,1449506664870,401,345,0,0,0,0,1,1,1,0005-00-0001-48.png,0004-00-0001-50.png
00000009,710,1,1449506666338,1449506666378,872,350,0,0,0,3,2,1,5,0002-00-0001-29.png,0003-00-0001-20.png
00000009,711,1,1449506667402,1449506668075,505,264,0,0,0,3,4,1,7,0002-00-0001-72.png,0001-00-0000-37.png
00000009,712,1,1449506669073,1449506670139,1014,264,0,0,0,4,3,1,7,0001-00-0001-67.png,0002-00-0001-56.png
00000009,713,0,1449506671140,1449506671168,865,462,0,0,0,0,1,1,1,0005-00-0000-07.png,0004-00-0000-56.png
00000009,714,1,1449506674277,1449506674850,964,344,0,0,0,3,2,1,5,0002-00-0001-73.png,0003-00-0001-04.png
00000009,715,0,1449506675752,1449506675824,893,480,0,0,0,1,2,1,3,0004-00-0001-56.png,0003-00-0001-95.png
00000009,716,1,1449506678978,1449506679997,504,266,0,0,0,2,3,1,5,0003-00-0001-06.png,0002-00-0001-48.png
00000009,717,1,1449506680899,1449506681953,486,250,0,0,0,3,4,1,7,0002-00-0000-74.png,0001-00-0001-47.png
00000009,718,1,1449506682896,1449506683576,1016,266,0,0,0,1,0,1,1,0004-00-0000-70.png,0005-00-0000-67.png
00000009,719,1,1449506685263,1449506686160,913,424,0,0,0,2,1,1,3,0003-00-0001-58.png,0004-00-0001-58.png
00000009,720,1,1449506687078,1449506687187,877,522,0,0,0,4,3,1,7,0001-00-0001-01.png,0002-00-0000-05.png
00000009,721,0,1449506688915,1449506688997,859,508,0,0,0,1,2,1,3,0004-00-0000-73.png,0003-00-0001-10.png
00000009,722,0,1449506691936,1449506692841,964,345,0,0,0,3,4,1,7,0002-00-0000-97.png,0001-00-0001-19.png
00000009,723,1,1449506696005,1449506696025,880,328,0,0,0,3,2,1,5,0002-00-0001-79.png,0003-00-0001-35.png
00000009,724,1,1449506697026,1449506697737,431,429,0,0,0,0,1,1,1,0005-00-0001-58.png,0004-00-0000-34.png
00000009,725,0,1449506698591,1449506699361,1040,271,0,0,0,2,3,1,5,0003-00-0000-99.png,0002-00-0001-31.png
00000009,726,1,1449506702384,1449506703122,959,379,0,0,0,2,1,1,3,0003-00-0000-93.png,0004-00-0001-97.png
00000009,727,1,1449506704022,1449506705027,1063,292,0,0,0,4,3,1,7,0001-00-0000-15.png,0002-00-0001-64.png
00000009,728,1,1449506705998,1449506706773,937,306,0,0,0,1,0,1,1,0004-00-0001-06.png,0005-00-0001-05.png
00000009,729,1,1449506707737,1449506707766,883,405,0,0,0,3,2,1,5,0002-00-0001-56.png,0003-00-0000-76.png
00000009,730,1,1449506708922,1449506708990,891,457,0,0,0,1,0,1,1,0004-00-0001-13.png,0005-00-0001-97.png
00000009,731,0,1449506710208,1449506710301,894,494,0,0,0,2,3,1,5,0003-00-0000-81.png,0002-00-0000-55.png
00000009,732,1,1449506713373,1449506714165,487,282,0,0,0,3,4,1,7,0002-00-0000-06.png,0001-00-0000-25.png
00000009,733,1,1449506715082,1449506715850,936,307,0,0,0,4,3,1,7,0001-00-0000-28.png,0002-00-0001-68.png
00000009,734,1,1449506716720,1449506717657,490,241,0,0,0,0,1,1,1,0005-00-0001-04.png,0004-00-0000-79.png
00000009,735,1,1449506718581,1449506719621,493,266,0,0,0,1,2,1,3,0004-00-0000-98.png,0003-00-0001-14.png
00000009,736,1,1449506720571,1449506721315,990,291,0,0,0,2,1,1,3,0003-00-0000-52.png,0004-00-0001-91.png
00000009,737,1,1449506722214,1449506723428,955,325,0,0,0,2,1,1,3,0003-00-0001-34.png,0004-00-0001-65.png
00000009,738,0,1449506724433,1449506724501,868,479,0,0,0,0,1,1,1,0005-00-0001-69.png,0004-00-0001-50.png
00000009,739,1,1449506727361,1449506728024,906,363,0,0,0,4,3,1,7,0001-00-0001-04.png,0002-00-0000-88.png
00000009,740,0,1449506728912,1449506728970,864,434,0,0,0,3,4,1,7,0002-00-0001-58.png,0001-00-0000-59.png
00000009,741,0,1449506731913,1449506732021,945,354,0,0,0,1,2,1,3,0004-00-0000-59.png,0003-00-0001-75.png
00000009,742,1,1449506735205,1449506735245,920,333,0,0,0,3,2,1,5,0002-00-0000-44.png,0003-00-0001-11.png
00000009,743,1,1449506736218,1449506737090,457,249,0,0,0,2,3,1,5,0003-00-0000-95.png,0002-00-0000-84.png
00000009,744,1,1449506737978,1449506738675,1025,270,0,0,0,1,0,1,1,0004-00-0000-61.png,0005-00-0000-75.png
00000009,745,0,1449506739576,1449506739596,879,428,0,0,0,3,4,1,7,0002-00-0000-35.png,0001-00-0000-71.png
00000009,746,0,1449506742427,1449506742511,888,358,0,0,0,2,3,1,5,0003-00-0001-59.png,0002-00-0001-87.png
00000009,747,1,1449506745480,1449506746009,939,400,0,0,0,1,0,1,1,0004-00-0000-89.png,0005-00-0001-28.png
00000009,748,1,1449506746857,1449506747554,932,364,0,0,0,2,1,1,3,0003-00-0001-56.png,0004-00-0000-77.png
00000009,749,0,1449506748479,1449506749480,415,329,0,0,0,4,3,1,7,0001-00-0000-34.png,0002-00-0000-08.png
00000009,750,1,1449506752392,1449506752993,462,384,0,0,0,1,2,1,3,0004-00-0001-53.png,0003-00-0000-05.png
00000009,751,0,1449506754414,1449506755169,490,267,0,0,0,3,2,1,5,0002-00-0000-96.png,0003-00-0001-22.png
00000009,752,1,1449506758279,1449506758861,491,266,0,0,0,0,1,1,1,0005-00-0000-25.png,0004-00-0001-57.png
00000009,753,1,1449506759704,1449506760571,499,270,0,0,0,0,1,1,1,0005-00-0001-08.png,0004-00-0000-37.png
00000009,754,1,1449506761446,1449506762301,939,290,0,0,0,3,2,1,5,0002-00-0000-00.png,0003-00-0001-21.png
00000009,755,1,1449506763171,1449506763899,1018,245,0,0,0,1,0,1,1,0004-00-0001-01.png,0005-00-0000-06.png
00000009,756,1,1449506764918,1449506765637,931,278,0,0,0,2,1,1,3,0003-00-0001-15.png,0004-00-0000-42.png
00000009,757,0,1449506766593,1449506766696,886,438,0,0,0,3,4,1,7,0002-00-0001-50.png,0001-00-0000-66.png
00000009,758,1,1449506769814,1449506769864,862,347,0,0,0,4,3,1,7,0001-00-0001-31.png,0002-00-0000-50.png
00000009,759,0,1449506770758,1449506771581,1041,264,0,0,0,1,2,1,3,0004-00-0001-36.png,0003-00-0001-38.png
00000009,760,1,1449506774643,1449506775359,484,267,0,0,0,2,3,1,5,0003-00-0001-17.png,0002-00-0000-19.png
00000009,761,1,1449506776189,1449506777083,941,305,0,0,0,2,1,1,3,0003-00-0001-44.png,0004-00-0000-78.png
00000009,762,1,1449506777962,1449506778026,868,440,0,0,0,4,3,1,7,0001-00-0001-63.png,0002-00-0000-29.png
00000009,763,0,1449506779176,1449506779220,865,441,0,0,0,1,2,1,3,0004-00-0000-31.png,0003-00-0000-52.png
00000009,764,1,1449506782268,1449506782851,1067,262,0,0,0,3,2,1,5,0002-00-0000-77.png,0003-00-0000-74.png
00000009,765,0,1449506783727,1449506783744,866,439,0,0,0,2,3,1,5,0003-00-0001-02.png,0002-00-0000-33.png
00000009,766,0,1449506786905,1449506786983,935,327,0,0,0,3,4,1,7,0002-00-0001-05.png,0001-00-0001-75.png
00000009,767,1,1449506790194,1449506790710,1066,271,0,0,0,1,0,1,1,0004-00-0001-33.png,0005-00-0000-79.png
00000009,768,0,1449506792223,1449506792377,894,556,0,0,0,0,1,1,1,0005-00-0000-96.png,0004-00-0001-75.png
00000009,769,1,1449506795272,1449506795798,493,274,0,0,0,0,1,1,1,0005-00-0001-97.png,0004-00-0001-76.png
00000009,770,0,1449506797270,1449506797781,936,307,0,0,0,2,3,1,5,0003-00-0000-18.png,0002-00-0001-35.png
00000009,771,1,1449506800875,1449506801419,504,237,0,0,0,3,4,1,7,0002-00-0000-96.png,0001-00-0000-08.png
00000009,772,0,1449506802286,1449506803089,512,232,0,0,0,4,3,1,7,0001-00-0001-48.png,0002-00-0001-51.png
00000009,773,1,1449506806220,1449506806749,964,332,0,0,0,2,1,1,3,0003-00-0001-64.png,0004-00-0000-67.png
00000009,774,0,1449506807590,1449506808330,1020,271,0,0,0,1,2,1,3,0004-00-0001-73.png,0003-00-0001-50.png
00000009,775,1,1449506811420,1449506811879,1077,253,0,0,0,1,0,1,1,0004-00-0001-28.png,0005-00-0000-79.png
00000009,776,1,1449506812713,1449506813529,1016,253,0,0,0,3,2,1,5,0002-00-0000-91.png,0003-00-0000-90.png
00000009,777,1,1449506814542,1449506815730,949,384,0,0,0,3,2,1,5,0002-00-0001-86.png,0003-00-0000-09.png
00000009,778,0,1449506816669,1449506816701,858,432,0,0,0,3,4,1,7,0002-00-0001-37.png,0001-00-0000-10.png
00000009,779,1,1449506819719,1449506820528,390,356,0,0,0,1,2,1,3,0004-00-0001-86.png,0003-00-0001-48.png
00000009,780,0,1449506821346,1449506822256,490,252,0,0,0,4,3,1,7,0001-00-0001-71.png,0002-00-0000-58.png
00000009,781,1,1449506825192,1449506825212,886,387,0,0,0,1,0,1,1,0004-00-0001-59.png,0005-00-0000-97.png
00000009,782,1,1449506826187,1449506826879,1041,294,0,0,0,2,1,1,3,0003-00-0001-00.png,0004-00-0000-56.png
00000009,783,0,1449506827797,1449506827837,870,389,0,0,0,2,3,1,5,0003-00-0000-58.png,0002-00-0000-95.png
00000009,784,1,1449506831293,1449506831878,517,291,0,0,0,0,1,1,1,0005-00-0001-15.png,0004-00-0001-19.png
00000009,785,1,1449506833269,1449506833913,476,274,0,0,0,3,4,1,7,0002-00-0000-35.png,0001-00-0000-50.png
00000009,786,1,1449506834822,1449506835559,485,255,0,0,0,0,1,1,1,0005-00-0000-64.png,0004-00-0000-71.png
00000009,787,0,1449506836578,1449506837564,1016,264,0,0,0,1,2,1,3,0004-00-0001-47.png,0003-00-0001-47.png
00000009,788,1,1449506840695,1449506841528,417,410,0,0,0,2,3,1,5,0003-00-0001-12.png,0002-00-0001-27.png
00000009,789,1,1449506842424,1449506843346,1043,274,0,0,0,3,2,1,5,0002-00-0001-82.png,0003-00-0001-70.png
00000009,790,1,1449506844286,1449506845279,939,292,0,0,0,1,0,1,1,0004-00-0001-54.png,0005-00-0000-84.png
00000009,791,1,1449506846745,1449506846794,867,473,0,0,0,4,3,1,7,0001-00-0001-47.png,0002-00-0000-00.png
00000009,792,1,1449506847890,1449506849249,921,363,0,0,0,2,1,1,3,0003-00-0001-23.png,0004-00-0001-17.png
00000009,793,1,1449506850286,1449506851420,977,338,0,0,0,1,0,1,1,0004-00-0000-19.png,0005-00-0001-98.png
00000009,794,1,1449506853149,1449506853762,964,295,0,0,0,4,3,1,7,0001-00-0000-99.png,0002-00-0001-71.png
00000009,795,1,1449506854737,1449506855692,488,265,0,0,0,2,3,1,5,0003-00-0000-02.png,0002-00-0001-73.png
00000009,796,1,1449506856623,1449506857468,958,324,0,0,0,3,2,1,5,0002-00-0001-03.png,0003-00-0000-79.png
00000009,797,0,1449506858456,1449506858523,882,436,0,0,0,3,4,1,7,0002-00-0000-72.png,0001-00-0001-93.png
00000009,798,1,1449506861520,1449506862108,439,410,0,0,0,1,2,1,3,0004-00-0001-36.png,0003-00-0000-84.png
00000009,799,1,1449506862954,1449506863689,939,393,0,0,0,2,1,1,3,0003-00-0001-16.png,0004-00-0000-02.png
00000009,800,1,1449506864562,1449506865314,515,251,0,0,0,0,1,1,1,0005-00-0000-43.png,0004-00-0001-23.png
00000009,801,1,1449506866162,1449506867238,446,391,0,0,0,2,3,1,5,0003-00-0000-10.png,0002-00-0000-10.png
00000009,802,1,1449506868169,1449506868210,867,409,0,0,0,3,2,1,5,0002-00-0000-85.png,0003-00-0000-28.png
00000009,803,0,1449506869289,1449506869336,864,449,0,0,0,0,1,1,1,0005-00-0000-14.png,0004-00-0001-25.png
00000009,804,1,1449506872246,1449506872770,1052,306,0,0,0,2,1,1,3,0003-00-0001-35.png,0004-00-0000-61.png
00000009,805,0,1449506874175,1449506874392,890,553,0,0,0,1,2,1,3,0004-00-0001-55.png,0003-00-0001-40.png
00000009,806,1,1449506877494,1449506878007,1067,290,0,0,0,1,0,1,1,0004-00-0001-15.png,0005-00-0000-90.png
00000009,807,0,1449506879407,1449506879477,859,439,0,0,0,3,4,1,7,0002-00-0000-91.png,0001-00-0000-60.png
00000009,808,0,1449506882582,1449506883274,493,271,0,0,0,4,3,1,7,0001-00-0000-09.png,0002-00-0000-62.png
00000009,809,0,1449506886246,1449506886301,881,382,0,0,0,1,2,1,3,0004-00-0001-36.png,0003-00-0000-70.png
00000009,810,1,1449506889475,1449506889487,873,358,0,0,0,2,1,1,3,0003-00-0000-63.png,0004-00-0000-23.png
00000009,811,0,1449506890413,1449506891413,392,376,0,0,0,3,2,1,5,0002-00-0001-11.png,0003-00-0001-78.png
00000009,812,0,1449506894533,1449506894593,890,330,0,0,0,3,4,1,7,0002-00-0000-66.png,0001-00-0000-40.png
00000009,813,0,1449506897726,1449506898238,1067,279,0,0,0,2,3,1,5,0003-00-0000-59.png,0002-00-0000-50.png
00000009,814,0,1449506901454,1449506901470,868,347,0,0,0,0,1,1,1,0005-00-0000-02.png,0004-00-0001-90.png
00000009,815,1,1449506904652,1449506905255,1016,321,0,0,0,1,0,1,1,0004-00-0001-78.png,0005-00-0000-71.png
00000009,816,1,1449506906138,1449506907257,933,309,0,0,0,4,3,1,7,0001-00-0001-84.png,0002-00-0001-24.png
00000009,817,1,1449506908119,1449506908160,894,372,0,0,0,1,0,1,1,0004-00-0001-66.png,0005-00-0000-01.png
00000009,818,1,1449506909169,1449506910106,520,234,0,0,0,0,1,1,1,0005-00-0000-76.png,0004-00-0001-51.png
00000009,819,1,1449506911061,1449506911865,478,246,0,0,0,2,3,1,5,0003-00-0001-47.png,0002-00-0001-92.png
00000009,820,0,1449506912848,1449506913680,912,308,0,0,0,1,2,1,3,0004-00-0001-20.png,0003-00-0001-54.png
00000009,821,1,1449506916824,1449506917636,981,341,0,0,0,4,3,1,7,0001-00-0000-87.png,0002-00-0001-48.png
00000009,822,0,1449506918522,1449506919309,491,243,0,0,0,2,1,1,3,0003-00-0001-20.png,0004-00-0000-25.png
00000009,823,1,1449506922387,1449506922910,1088,282,0,0,0,3,2,1,5,0002-00-0001-99.png,0003-00-0000-08.png
00000009,824,0,1449506923820,1449506923917,861,458,0,0,0,3,4,1,7,0002-00-0001-66.png,0001-00-0001-93.png
00000009,825,0,1449506926998,1449506927027,862,368,0,0,0,1,2,1,3,0004-00-0001-03.png,0003-00-0001-55.png
00000009,826,0,1449506930022,1449506930609,949,279,0,0,0,2,3,1,5,0003-00-0000-40.png,0002-00-0001-67.png
00000009,827,0,1449506933747,1449506934380,961,383,0,0,0,3,4,1,7,0002-00-0000-61.png,0001-00-0001-08.png
00000009,828,1,1449506937225,1449506937780,484,281,0,0,0,0,1,1,1,0005-00-0000-88.png,0004-00-0001-78.png
00000009,829,1,1449506938715,1449506939705,954,384,0,0,0,3,2,1,5,0002-00-0000-94.png,0003-00-0001-11.png
00000009,830,1,1449506940624,1449506941523,1041,306,0,0,0,2,1,1,3,0003-00-0000-65.png,0004-00-0000-91.png
00000009,831,1,1449506942404,1449506942475,862,470,0,0,0,4,3,1,7,0001-00-0001-09.png,0002-00-0000-49.png
00000009,832,1,1449506943455,1449506944296,939,306,0,0,0,1,0,1,1,0004-00-0000-58.png,0005-00-0000-45.png
00000009,833,1,1449506945188,1449506945929,461,408,0,0,0,1,2,1,3,0004-00-0000-01.png,0003-00-0001-14.png
00000009,834,1,1449506946833,1449506947622,402,319,0,0,0,0,1,1,1,0005-00-0001-92.png,0004-00-0001-87.png
00000009,835,0,1449506948573,1449506949359,518,268,0,0,0,4,3,1,7,0001-00-0001-54.png,0002-00-0000-12.png
00000009,836,1,1449506952510,1449506952554,959,357,0,0,0,3,2,1,5,0002-00-0000-66.png,0003-00-0001-18.png
00000009,837,1,1449506953450,1449506954105,1016,269,0,0,0,1,0,1,1,0004-00-0001-38.png,0005-00-0001-49.png
00000009,838,1,1449506954958,1449506954982,880,398,0,0,0,2,1,1,3,0003-00-0001-23.png,0004-00-0000-16.png
00000009,839,0,1449506956074,1449506956123,862,410,0,0,0,3,4,1,7,0002-00-0000-18.png,0001-00-0000-13.png
00000009,840,0,1449506959185,1449506959213,862,393,0,0,0,2,3,1,5,0003-00-0000-29.png,0002-00-0000-80.png
00000009,841,1,1449506962369,1449506962975,989,302,0,0,0,2,1,1,3,0003-00-0000-92.png,0004-00-0001-20.png
00000009,842,0,1449506964406,1449506964925,939,327,0,0,0,3,4,1,7,0002-00-0000-70.png,0001-00-0001-35.png
00000009,843,0,1449506968066,1449506968629,1098,278,0,0,0,2,3,1,5,0003-00-0001-30.png,0002-00-0001-58.png
00000009,844,0,1449506971496,1449506972186,500,267,0,0,0,4,3,1,7,0001-00-0001-12.png,0002-00-0001-60.png
00000009,845,1,1449506975344,1449506975413,960,321,0,0,0,3,2,1,5,0002-00-0000-96.png,0003-00-0000-05.png
00000009,846,0,1449506976332,1449506977311,939,316,0,0,0,1,2,1,3,0004-00-0000-86.png,0003-00-0001-14.png
00000009,847,1,1449506980429,1449506980973,491,291,0,0,0,0,1,1,1,0005-00-0001-50.png,0004-00-0001-99.png
00000009,848,1,1449506981807,1449506982667,1020,271,0,0,0,1,0,1,1,0004-00-0001-69.png,0005-00-0001-15.png
00000009,849,0,1449506983494,1449506984305,939,375,0,0,0,3,4,1,7,0002-00-0000-86.png,0001-00-0001-60.png
00000009,850,1,1449506987329,1449506987953,505,262,0,0,0,2,3,1,5,0003-00-0001-73.png,0002-00-0000-45.png
00000009,851,1,1449506988806,1449506989664,949,395,0,0,0,3,2,1,5,0002-00-0001-24.png,0003-00-0001-97.png
00000009,852,1,1449506990576,1449506991748,1069,289,0,0,0,4,3,1,7,0001-00-0001-70.png,0002-00-0001-35.png
00000009,853,1,1449506992816,1449506993788,1041,293,0,0,0,1,0,1,1,0004-00-0000-54.png,0005-00-0001-17.png
00000009,854,1,1449506994763,1449506995515,399,347,0,0,0,1,2,1,3,0004-00-0000-00.png,0003-00-0000-68.png
00000009,855,1,1449506996530,1449506997391,491,262,0,0,0,0,1,1,1,0005-00-0001-66.png,0004-00-0001-48.png
00000009,856,1,1449506998368,1449506999083,1041,253,0,0,0,2,1,1,3,0003-00-0000-15.png,0004-00-0001-35.png
00000009,857,1,1449507000117,1449507000961,943,309,0,0,0,3,2,1,5,0002-00-0000-43.png,0003-00-0001-07.png
00000009,858,0,1449507001916,1449507001944,885,455,0,0,0,3,4,1,7,0002-00-0000-31.png,0001-00-0001-86.png
00000009,859,1,1449507004778,1449507005277,1046,254,0,0,0,2,1,1,3,0003-00-0001-64.png,0004-00-0000-71.png
00000009,860,0,1449507006209,1449507006249,860,418,0,0,0,0,1,1,1,0005-00-0000-85.png,0004-00-0000-53.png
00000009,861,1,1449507009091,1449507009696,457,285,0,0,0,2,3,1,5,0003-00-0000-53.png,0002-00-0000-56.png
00000009,862,1,1449507010557,1449507011192,916,334,0,0,0,1,0,1,1,0004-00-0000-89.png,0005-00-0001-32.png
00000009,863,0,1449507012067,1449507013665,485,271,0,0,0,4,3,1,7,0001-00-0000-24.png,0002-00-0000-62.png
00000009,864,0,1449507016730,1449507017290,965,312,0,0,0,1,2,1,3,0004-00-0001-26.png,0003-00-0000-70.png
00000009,865,1,1449507020470,1449507020502,888,347,0,0,0,1,0,1,1,0004-00-0001-88.png,0005-00-0000-64.png
00000009,866,1,1449507021455,1449507022456,990,306,0,0,0,3,2,1,5,0002-00-0001-67.png,0003-00-0001-17.png
00000009,867,1,1449507023392,1449507024204,401,317,0,0,0,0,1,1,1,0005-00-0000-04.png,0004-00-0001-75.png
00000009,868,0,1449507025132,1449507026138,464,254,0,0,0,2,1,1,3,0003-00-0000-01.png,0004-00-0001-60.png
00000009,869,1,1449507029107,1449507029649,508,310,0,0,0,1,2,1,3,0004-00-0000-18.png,0003-00-0000-63.png
00000009,870,0,1449507030657,1449507030721,863,466,0,0,0,2,3,1,5,0003-00-0001-12.png,0002-00-0001-21.png
00000009,871,1,1449507034076,1449507034807,391,332,0,0,0,3,4,1,7,0002-00-0000-44.png,0001-00-0001-35.png
00000009,872,1,1449507035673,1449507035752,860,476,0,0,0,4,3,1,7,0001-00-0001-67.png,0002-00-0001-90.png
00000009,873,0,1449507036833,1449507036900,861,443,0,0,0,0,1,1,1,0005-00-0001-72.png,0004-00-0001-87.png
00000009,874,1,1449507040065,1449507040609,1069,288,0,0,0,4,3,1,7,0001-00-0001-30.png,0002-00-0001-44.png
00000009,875,1,1449507041479,1449507042367,491,240,0,0,0,1,2,1,3,0004-00-0001-60.png,0003-00-0000-12.png
00000009,876,1,1449507043265,1449507044169,928,306,0,0,0,1,0,1,1,0004-00-0001-82.png,0005-00-0001-53.png
00000009,877,1,1449507045044,1449507046104,479,253,0,0,0,2,3,1,5,0003-00-0001-45.png,0002-00-0000-03.png
00000009,878,1,1449507047163,1449507047986,918,283,0,0,0,2,1,1,3,0003-00-0000-15.png,0004-00-0000-20.png
00000009,879,0,1449507048876,1449507050009,913,396,0,0,0,3,4,1,7,0002-00-0000-28.png,0001-00-0001-78.png
00000009,880,1,1449507053051,1449507053650,1043,292,0,0,0,3,2,1,5,0002-00-0000-72.png,0003-00-0001-34.png
00000009,881,1,1449507054557,1449507055368,518,236,0,0,0,3,4,1,7,0002-00-0001-82.png,0001-00-0000-14.png
00000009,882,1,1449507056301,1449507057279,949,381,0,0,0,2,1,1,3,0003-00-0000-93.png,0004-00-0001-75.png
00000009,883,1,1449507058193,1449507058205,859,438,0,0,0,1,0,1,1,0004-00-0001-17.png,0005-00-0001-22.png
00000009,884,0,1449507059321,1449507060360,1016,279,0,0,0,1,2,1,3,0004-00-0000-39.png,0003-00-0000-53.png
00000009,885,1,1449507063477,1449507064125,921,407,0,0,0,3,2,1,5,0002-00-0000-66.png,0003-00-0001-75.png
00000009,886,1,1449507065029,1449507065735,492,218,0,0,0,0,1,1,1,0005-00-0001-91.png,0004-00-0001-41.png
00000009,887,1,1449507066627,1449507067491,1032,253,0,0,0,4,3,1,7,0001-00-0000-05.png,0002-00-0001-30.png
00000009,888,0,1449507068556,1449507069837,953,340,0,0,0,2,3,1,5,0003-00-0000-81.png,0002-00-0001-20.png
00000009,889,1,1449507072879,1449507073472,997,385,0,0,0,2,1,1,3,0003-00-0001-18.png,0004-00-0000-99.png
00000009,890,1,1449507074418,1449507075290,1041,253,0,0,0,3,2,1,5,0002-00-0001-14.png,0003-00-0001-98.png
00000009,891,0,1449507076156,1449507076210,868,407,0,0,0,2,3,1,5,0003-00-0000-40.png,0002-00-0000-56.png
00000009,892,1,1449507079069,1449507079685,486,278,0,0,0,0,1,1,1,0005-00-0001-53.png,0004-00-0001-78.png
00000009,893,1,1449507080563,1449507081429,1041,265,0,0,0,4,3,1,7,0001-00-0000-71.png,0002-00-0000-07.png
00000009,894,1,1449507082328,1449507083526,478,265,0,0,0,3,4,1,7,0002-00-0000-13.png,0001-00-0000-15.png
00000009,895,0,1449507084485,1449507085232,509,257,0,0,0,1,0,1,1,0004-00-0001-97.png,0005-00-0001-04.png
00000009,896,0,1449507088251,1449507088292,876,358,0,0,0,1,2,1,3,0004-00-0000-44.png,0003-00-0001-93.png
00000009,897,1,1449507091301,1449507091325,862,350,0,0,0,2,1,1,3,0003-00-0000-62.png,0004-00-0001-66.png
00000009,898,1,1449507092299,1449507093647,420,390,0,0,0,3,4,1,7,0002-00-0000-14.png,0001-00-0000-31.png
00000009,899,1,1449507094540,1449507095284,495,235,0,0,0,0,1,1,1,0005-00-0001-90.png,0004-00-0000-92.png
00000009,900,0,1449507096215,1449507097392,1042,271,0,0,0,2,3,1,5,0003-00-0001-36.png,0002-00-0000-68.png
00000009,901,1,1449507103258,1449507103884,1037,277,0,0,0,4,3,1,7,0001-00-0001-92.png,0002-00-0001-15.png
00000009,902,0,1449507104823,1449507105571,460,374,0,0,0,1,0,1,1,0004-00-0000-56.png,0005-00-0000-74.png
00000009,903,1,1449507108634,1449507109320,521,268,0,0,0,1,2,1,3,0004-00-0000-10.png,0003-00-0001-20.png
00000009,904,1,1449507110208,1449507111228,935,336,0,0,0,3,2,1,5,0002-00-0000-40.png,0003-00-0001-30.png
00000009,905,0,1449507112094,1449507112139,866,388,0,0,0,3,4,1,7,0002-00-0000-41.png,0001-00-0001-48.png
00000009,906,1,1449507115269,1449507115832,484,269,0,0,0,0,1,1,1,0005-00-0000-46.png,0004-00-0001-36.png
00000009,907,1,1449507117268,1449507117904,927,357,0,0,0,3,2,1,5,0002-00-0001-66.png,0003-00-0000-02.png
00000009,908,1,1449507118748,1449507119806,939,290,0,0,0,4,3,1,7,0001-00-0000-13.png,0002-00-0001-93.png
00000009,909,1,1449507120767,1449507120834,885,458,0,0,0,1,0,1,1,0004-00-0000-17.png,0005-00-0001-72.png
00000009,910,1,1449507121917,1449507122721,513,285,0,0,0,1,2,1,3,0004-00-0000-95.png,0003-00-0001-62.png
00000009,911,0,1449507123732,1449507124746,408,337,0,0,0,2,1,1,3,0003-00-0001-35.png,0004-00-0000-40.png
00000009,912,1,1449507127650,1449507128278,501,265,0,0,0,2,3,1,5,0003-00-0000-81.png,0002-00-0001-74.png
00000009,913,1,1449507129172,1449507130303,422,401,0,0,0,2,3,1,5,0003-00-0000-36.png,0002-00-0001-32.png
00000009,914,1,1449507131177,1449507132200,939,290,0,0,0,3,2,1,5,0002-00-0001-59.png,0003-00-0000-71.png
00000009,915,0,1449507133095,1449507133156,868,436,0,0,0,3,4,1,7,0002-00-0001-74.png,0001-00-0001-25.png
00000009,916,0,1449507136081,1449507136656,489,283,0,0,0,4,3,1,7,0001-00-0001-07.png,0002-00-0000-63.png
00000009,917,1,1449507142672,1449507143180,475,280,0,0,0,1,2,1,3,0004-00-0000-57.png,0003-00-0000-13.png
00000009,918,1,1449507144088,1449507144809,488,239,0,0,0,0,1,1,1,0005-00-0000-08.png,0004-00-0001-00.png
00000009,919,1,1449507145677,1449507146587,1016,244,0,0,0,1,0,1,1,0004-00-0001-95.png,0005-00-0000-13.png
00000009,920,1,1449507147436,1449507147512,858,416,0,0,0,2,1,1,3,0003-00-0000-11.png,0004-00-0000-26.png
00000009,921,1,1449507148569,1449507149313,432,336,0,0,0,1,2,1,3,0004-00-0001-09.png,0003-00-0000-27.png
00000009,922,1,1449507150330,1449507151290,460,244,0,0,0,0,1,1,1,0005-00-0000-67.png,0004-00-0001-06.png
00000009,923,1,1449507152195,1449507153136,1025,279,0,0,0,3,2,1,5,0002-00-0000-19.png,0003-00-0000-40.png
00000009,924,1,1449507154128,1449507154148,875,404,0,0,0,4,3,1,7,0001-00-0000-70.png,0002-00-0000-43.png
00000009,925,0,1449507155246,1449507156217,517,240,0,0,0,2,1,1,3,0003-00-0001-31.png,0004-00-0001-26.png
00000009,926,0,1449507159351,1449507159878,964,291,0,0,0,2,3,1,5,0003-00-0000-57.png,0002-00-0001-08.png
00000009,927,1,1449507162709,1449507163233,964,384,0,0,0,1,0,1,1,0004-00-0001-85.png,0005-00-0001-11.png
00000009,928,1,1449507164122,1449507165071,470,253,0,0,0,3,4,1,7,0002-00-0000-98.png,0001-00-0000-76.png
00000009,929,1,1449507165988,1449507166760,939,293,0,0,0,2,1,1,3,0003-00-0000-51.png,0004-00-0000-88.png
00000009,930,0,1449507167681,1449507168581,944,282,0,0,0,2,3,1,5,0003-00-0000-30.png,0002-00-0000-66.png
00000009,931,1,1449507171604,1449507174456,1033,302,0,0,0,1,0,1,1,0004-00-0001-48.png,0005-00-0000-46.png
00000009,932,0,1449507175311,1449507176648,956,384,0,0,0,1,2,1,3,0004-00-0001-01.png,0003-00-0001-50.png
00000009,933,0,1449507179841,1449507180427,502,274,0,0,0,3,2,1,5,0002-00-0001-05.png,0003-00-0001-16.png
00000009,934,0,1449507183679,1449507183739,964,318,0,0,0,0,1,1,1,0005-00-0001-91.png,0004-00-0000-68.png
00000009,935,1,1449507186811,1449507187369,929,322,0,0,0,4,3,1,7,0001-00-0000-53.png,0002-00-0001-57.png
00000009,936,0,1449507193569,1449507194084,965,328,0,0,0,3,4,1,7,0002-00-0000-80.png,0001-00-0000-28.png
00000009,937,1,1449507196965,1449507197471,1066,254,0,0,0,1,0,1,1,0004-00-0000-75.png,0005-00-0001-55.png
00000009,938,0,1449507198331,1449507198398,888,474,0,0,0,1,2,1,3,0004-00-0001-81.png,0003-00-0000-99.png
00000009,939,0,1449507201534,1449507201558,862,358,0,0,0,3,4,1,7,0002-00-0001-84.png,0001-00-0001-08.png
00000009,940,1,1449507204604,1449507205132,504,290,0,0,0,0,1,1,1,0005-00-0001-59.png,0004-00-0000-69.png
00000009,941,1,1449507205978,1449507207103,487,239,0,0,0,2,3,1,5,0003-00-0001-81.png,0002-00-0001-33.png
00000009,942,1,1449507207999,1449507208821,956,312,0,0,0,2,1,1,3,0003-00-0000-78.png,0004-00-0000-41.png
00000009,943,1,1449507209742,1449507209766,888,397,0,0,0,4,3,1,7,0001-00-0000-02.png,0002-00-0000-06.png
00000009,944,1,1449507210737,1449507211702,934,304,0,0,0,3,2,1,5,0002-00-0000-64.png,0003-00-0000-16.png
00000009,945,0,1449507212576,1449507212620,861,407,0,0,0,2,3,1,5,0003-00-0001-96.png,0002-00-0000-84.png
00000009,946,1,1449507215905,1449507216444,1041,288,0,0,0,1,0,1,1,0004-00-0001-65.png,0005-00-0000-75.png
00000009,947,1,1449507217275,1449507218490,484,267,0,0,0,3,4,1,7,0002-00-0001-28.png,0001-00-0000-46.png
00000009,948,1,1449507219370,1449507219423,862,410,0,0,0,3,2,1,5,0002-00-0001-45.png,0003-00-0000-22.png
00000009,949,1,1449507220510,1449507221203,491,278,0,0,0,0,1,1,1,0005-00-0001-01.png,0004-00-0001-20.png
00000009,950,1,1449507222205,1449507222976,509,243,0,0,0,1,2,1,3,0004-00-0001-75.png,0003-00-0001-26.png
