subject_id,trial,correct_response,stim_time,response_time,x_coord,y_coord,trial_timeout,timeout_time,interTrial_timeout,left_rank,right_rank,distance,joint_rank,left_image,right_image
00000009,1,0,1449762567513,1449762568186,935,394,0,0,0,3,4,1,7,0002-00-0000-42.png,0001-00-0000-69.png
00000009,2,1,1449762571310,1449762572188,482,264,0,0,0,1,2,1,3,0004-00-0001-82.png,0003-00-0001-18.png
00000009,3,0,1449762573225,1449762574386,495,256,0,0,0,4,3,1,7,0001-00-0001-50.png,0002-00-0000-72.png
00000009,4,0,1449762577528,1449762577556,897,277,0,0,0,2,3,1,5,0003-00-0000-29.png,0002-00-0001-51.png
00000009,5,1,1449762580439,1449762580960,940,327,0,0,0,3,2,1,5,0002-00-0000-04.png,0003-00-0000-48.png
00000009,6,1,1449762581870,1449762582819,466,238,0,0,0,0,1,1,1,0005-00-0000-13.png,0004-00-0000-44.png
00000009,7,0,1449762583729,1449762584552,450,245,0,0,0,1,0,1,1,0004-00-0000-86.png,0005-00-0001-80.png
00000009,8,1,1449762587495,1449762587513,941,351,0,0,0,2,1,1,3,0003-00-0000-61.png,0004-00-0000-59.png
00000009,9,1,1449762588544,1449762588608,863,509,0,0,0,2,1,1,3,0003-00-0000-32.png,0004-00-0000-57.png
00000009,10,1,1449762589750,1449762590479,381,351,0,0,0,1,2,1,3,0004-00-0001-89.png,0003-00-0000-68.png
00000009,11,1,1449762591580,1449762592512,913,332,0,0,0,3,2,1,5,0002-00-0000-97.png,0003-00-0001-45.png
00000009,12,0,1449762593608,1449762594681,1010,246,0,0,0,3,4,1,7,0002-00-0000-26.png,0001-00-0001-97.png
00000009,13,0,1449762597592,1449762598167,939,332,0,0,0,0,1,1,1,0005-00-0001-99.png,0004-00-0001-47.png
00000009,14,0,1449762601337,1449762601369,868,277,0,0,0,2,3,1,5,0003-00-0000-06.png,0002-00-0000-36.png
00000009,15,1,1449762604421,1449762605082,958,473,0,0,0,4,3,1,7,0001-00-0001-54.png,0002-00-0000-35.png
00000009,16,1,1449762606089,1449762606848,913,315,0,0,0,1,0,1,1,0004-00-0001-52.png,0005-00-0001-70.png
00000009,17,1,1449762607931,1449762608974,1041,297,0,0,0,3,2,1,5,0002-00-0001-61.png,0003-00-0000-41.png
00000009,18,1,1449762610047,1449762610734,453,241,0,0,0,1,2,1,3,0004-00-0001-23.png,0003-00-0001-31.png
00000009,19,1,1449762611825,1449762612732,1016,253,0,0,0,2,1,1,3,0003-00-0001-36.png,0004-00-0001-90.png
00000009,20,1,1449762613741,1449762614463,473,247,0,0,0,0,1,1,1,0005-00-0000-86.png,0004-00-0000-33.png
00000009,21,0,1449762615510,1449762616584,917,319,0,0,0,2,3,1,5,0003-00-0000-57.png,0002-00-0000-07.png
00000009,22,1,1449762715032,1449762716284,922,371,0,0,0,4,3,1,7,0001-00-0001-63.png,0002-00-0001-25.png
00000009,23,1,1449762717284,1449762717329,925,373,0,0,0,1,0,1,1,0004-00-0001-89.png,0005-00-0000-38.png
00000009,24,0,1449762718296,1449762718352,885,415,0,0,0,3,4,1,7,0002-00-0000-91.png,0001-00-0000-97.png
00000009,25,0,1449762721387,1449762722016,942,323,0,0,0,3,4,1,7,0002-00-0000-84.png,0001-00-0000-36.png
00000009,26,1,1449762725031,1449762725790,462,274,0,0,0,2,3,1,5,0003-00-0000-66.png,0002-00-0000-97.png
00000009,27,1,1449762726733,1449762727411,1024,262,0,0,0,1,0,1,1,0004-00-0000-08.png,0005-00-0000-06.png
00000009,28,1,1449762728321,1449762728356,889,418,0,0,0,4,3,1,7,0001-00-0000-09.png,0002-00-0001-87.png
00000009,29,1,1449762729384,1449762730157,359,379,0,0,0,0,1,1,1,0005-00-0001-04.png,0004-00-0000-28.png
00000009,30,1,1449762731085,1449762731845,1046,268,0,0,0,3,2,1,5,0002-00-0001-45.png,0003-00-0001-57.png
00000009,31,0,1449762732854,1449762732886,873,389,0,0,0,1,2,1,3,0004-00-0000-51.png,0003-00-0001-18.png
00000009,32,1,1449762735866,1449762736424,1010,282,0,0,0,2,1,1,3,0003-00-0001-63.png,0004-00-0000-10.png
00000009,33,0,1449762737384,1449762737462,869,453,0,0,0,1,2,1,3,0004-00-0000-08.png,0003-00-0001-77.png
00000009,34,1,1449762742192,1449762742873,471,279,0,0,0,0,1,1,1,0005-00-0000-77.png,0004-00-0001-27.png
00000009,35,0,1449762743979,1449762744704,1027,308,0,0,0,3,4,1,7,0002-00-0001-37.png,0001-00-0000-26.png
00000009,36,1,1449762747631,1449762748433,453,271,0,0,0,2,3,1,5,0003-00-0001-21.png,0002-00-0001-32.png
00000009,37,1,1449762749380,1449762750282,903,335,0,0,0,3,2,1,5,0002-00-0001-90.png,0003-00-0001-41.png
00000009,38,0,1449762751213,1449762751950,473,267,0,0,0,1,0,1,1,0004-00-0000-62.png,0005-00-0000-49.png
00000009,39,1,1449762755242,1449762755857,938,303,0,0,0,2,1,1,3,0003-00-0000-59.png,0004-00-0000-88.png
00000009,40,1,1449762756844,1449762756920,863,512,0,0,0,4,3,1,7,0001-00-0001-22.png,0002-00-0001-11.png
00000009,41,0,1449762757956,1449762759066,1020,275,0,0,0,3,4,1,7,0002-00-0001-89.png,0001-00-0000-65.png
00000009,42,1,1449762762180,1449762763102,383,378,0,0,0,2,3,1,5,0003-00-0000-53.png,0002-00-0001-52.png
00000009,43,1,1449762764079,1449762764897,990,266,0,0,0,4,3,1,7,0001-00-0001-42.png,0002-00-0001-59.png
00000009,44,1,1449762765814,1449762766478,357,379,0,0,0,0,1,1,1,0005-00-0001-81.png,0004-00-0001-70.png
00000009,45,0,1449762767417,1449762768233,478,259,0,0,0,1,0,1,1,0004-00-0000-19.png,0005-00-0000-68.png
00000009,46,1,1449762771389,1449762772044,1035,313,0,0,0,3,2,1,5,0002-00-0001-30.png,0003-00-0000-03.png
00000009,47,0,1449762772982,1449762773140,890,519,0,0,0,1,2,1,3,0004-00-0000-73.png,0003-00-0000-29.png
00000009,48,1,1449762776188,1449762776333,860,402,0,0,0,2,1,1,3,0003-00-0001-55.png,0004-00-0001-42.png
00000009,49,1,1449762777346,1449762778064,1005,252,0,0,0,1,0,1,1,0004-00-0000-62.png,0005-00-0001-23.png
00000009,50,0,1449762778942,1449762779974,476,241,0,0,0,3,2,1,5,0002-00-0000-14.png,0003-00-0000-82.png
00000009,51,0,1449762783167,1449762783973,459,277,0,0,0,2,1,1,3,0003-00-0001-38.png,0004-00-0000-30.png
00000009,52,0,1449762787156,1449762787256,911,280,0,0,0,0,1,1,1,0005-00-0000-46.png,0004-00-0001-71.png
00000009,53,0,1449762790343,1449762790391,873,301,0,0,0,2,3,1,5,0003-00-0000-92.png,0002-00-0001-61.png
00000009,54,1,1449762793591,1449762794238,1039,293,0,0,0,4,3,1,7,0001-00-0001-77.png,0002-00-0001-07.png
00000009,55,1,1449762795252,1449762795976,460,274,0,0,0,1,2,1,3,0004-00-0000-41.png,0003-00-0000-58.png
00000009,56,0,1449762796900,1449762796979,862,449,0,0,0,3,4,1,7,0002-00-0001-95.png,0001-00-0000-98.png
00000009,57,0,1449762800086,1449762800157,894,284,0,0,0,1,2,1,3,0004-00-0000-11.png,0003-00-0001-35.png
00000009,58,1,1449762803261,1449762803899,455,282,0,0,0,2,3,1,5,0003-00-0001-15.png,0002-00-0000-97.png
00000009,59,0,1449762804904,1449762804952,877,457,0,0,0,3,4,1,7,0002-00-0000-85.png,0001-00-0000-57.png
00000009,60,0,1449762808041,1449762808617,1041,296,0,0,0,0,1,1,1,0005-00-0000-84.png,0004-00-0001-21.png
00000009,61,1,1449762811661,1449762812149,940,305,0,0,0,2,1,1,3,0003-00-0001-84.png,0004-00-0001-05.png
00000009,62,1,1449762813109,1449762813987,929,374,0,0,0,3,2,1,5,0002-00-0001-10.png,0003-00-0001-64.png
00000009,63,1,1449762814899,1449762814947,866,427,0,0,0,4,3,1,7,0001-00-0000-31.png,0002-00-0000-23.png
00000009,64,1,1449762815965,1449762816028,866,493,0,0,0,1,0,1,1,0004-00-0000-97.png,0005-00-0001-70.png
00000009,65,0,1449762817088,1449762817171,862,476,0,0,0,2,3,1,5,0003-00-0000-07.png,0002-00-0000-29.png
00000009,66,0,1449762820142,1449762820724,453,277,0,0,0,2,1,1,3,0003-00-0000-30.png,0004-00-0000-04.png
00000009,67,1,1449762823573,1449762823586,925,332,0,0,0,1,0,1,1,0004-00-0000-65.png,0005-00-0001-88.png
00000009,68,1,1449762824599,1449762825366,915,334,0,0,0,4,3,1,7,0001-00-0000-94.png,0002-00-0000-36.png
00000009,69,0,1449762826359,1449762827121,907,313,0,0,0,3,4,1,7,0002-00-0000-09.png,0001-00-0000-85.png
00000009,70,1,1449762829971,1449762830107,862,410,0,0,0,3,2,1,5,0002-00-0001-56.png,0003-00-0000-93.png
00000009,71,0,1449762831195,1449762831279,888,430,0,0,0,1,2,1,3,0004-00-0000-54.png,0003-00-0000-13.png
00000009,72,0,1449762834209,1449762834348,1006,388,0,0,0,0,1,1,1,0005-00-0000-49.png,0004-00-0001-31.png
00000009,73,1,1449762837329,1449762837994,908,322,0,0,0,3,2,1,5,0002-00-0001-44.png,0003-00-0000-53.png
00000009,74,0,1449762838935,1449762839973,1012,273,0,0,0,3,4,1,7,0002-00-0000-97.png,0001-00-0001-97.png
00000009,75,0,1449762842905,1449762843663,390,361,0,0,0,1,0,1,1,0004-00-0000-13.png,0005-00-0000-56.png
00000009,76,1,1449762846829,1449762847352,451,279,0,0,0,1,2,1,3,0004-00-0000-48.png,0003-00-0001-51.png
00000009,77,1,1449762848271,1449762849143,458,244,0,0,0,0,1,1,1,0005-00-0001-43.png,0004-00-0001-91.png
00000009,78,1,1449762850129,1449762851226,455,226,0,0,0,2,3,1,5,0003-00-0001-66.png,0002-00-0000-94.png
00000009,79,1,1449762852204,1449762853053,913,267,0,0,0,2,1,1,3,0003-00-0000-63.png,0004-00-0001-26.png
00000009,80,1,1449762854093,1449762854165,862,467,0,0,0,4,3,1,7,0001-00-0000-14.png,0002-00-0001-36.png
00000009,81,1,1449762855268,1449762856087,418,336,0,0,0,1,2,1,3,0004-00-0001-28.png,0003-00-0000-93.png
00000009,82,1,1449762857042,1449762858081,922,324,0,0,0,1,0,1,1,0004-00-0001-21.png,0005-00-0000-52.png
00000009,83,1,1449762859072,1449762859889,1016,240,0,0,0,4,3,1,7,0001-00-0000-11.png,0002-00-0001-91.png
00000009,84,0,1449762860861,1449762860905,877,410,0,0,0,0,1,1,1,0005-00-0000-17.png,0004-00-0000-83.png
00000009,85,0,1449762864024,1449762864736,487,288,0,0,0,3,2,1,5,0002-00-0000-50.png,0003-00-0000-10.png
00000009,86,1,1449762867635,1449762868185,1067,279,0,0,0,2,1,1,3,0003-00-0000-12.png,0004-00-0000-69.png
00000009,87,0,1449762869139,1449762869167,898,458,0,0,0,2,3,1,5,0003-00-0001-37.png,0002-00-0001-70.png
00000009,88,1,1449762872059,1449762872925,392,379,0,0,0,3,4,1,7,0002-00-0001-21.png,0001-00-0001-06.png
00000009,89,1,1449762873969,1449762873993,869,425,0,0,0,1,0,1,1,0004-00-0001-58.png,0005-00-0001-14.png
00000009,90,0,1449762874931,1449762874987,866,444,0,0,0,2,3,1,5,0003-00-0001-19.png,0002-00-0001-63.png
00000009,91,1,1449762878062,1449762878836,390,410,0,0,0,0,1,1,1,0005-00-0000-74.png,0004-00-0001-66.png
00000009,92,1,1449762879787,1449762880683,478,236,0,0,0,1,2,1,3,0004-00-0001-19.png,0003-00-0000-39.png
00000009,93,1,1449762881735,1449762881747,872,406,0,0,0,2,1,1,3,0003-00-0000-26.png,0004-00-0000-79.png
00000009,94,1,1449762882725,1449762882757,870,427,0,0,0,4,3,1,7,0001-00-0001-54.png,0002-00-0001-98.png
00000009,95,1,1449762883867,1449762883883,884,479,0,0,0,3,2,1,5,0002-00-0001-46.png,0003-00-0000-96.png
00000009,96,0,1449762884941,1449762884977,870,436,0,0,0,3,4,1,7,0002-00-0000-35.png,0001-00-0001-79.png
00000009,97,1,1449762888121,1449762888729,939,384,0,0,0,2,1,1,3,0003-00-0000-56.png,0004-00-0001-13.png
00000009,98,0,1449762889737,1449762890514,479,272,0,0,0,1,0,1,1,0004-00-0001-29.png,0005-00-0000-94.png
00000009,99,1,1449762893636,1449762893672,899,326,0,0,0,3,2,1,5,0002-00-0001-34.png,0003-00-0001-12.png
00000009,100,0,1449762894746,1449762894880,888,488,0,0,0,0,1,1,1,0005-00-0001-03.png,0004-00-0001-30.png
00000009,101,1,1449762900005,1449762900803,437,384,0,0,0,3,4,1,7,0002-00-0001-99.png,0001-00-0000-87.png
00000009,102,0,1449762901800,1449762902711,1016,274,0,0,0,2,3,1,5,0003-00-0000-20.png,0002-00-0000-44.png
00000009,103,1,1449762905845,1449762906568,1017,252,0,0,0,4,3,1,7,0001-00-0001-18.png,0002-00-0000-02.png
00000009,104,1,1449762907553,1449762908218,384,363,0,0,0,1,2,1,3,0004-00-0000-25.png,0003-00-0000-15.png
00000009,105,0,1449762909265,1449762909968,917,277,0,0,0,3,4,1,7,0002-00-0000-60.png,0001-00-0001-51.png
00000009,106,1,1449762913689,1449762914417,917,325,0,0,0,2,1,1,3,0003-00-0001-99.png,0004-00-0001-24.png
00000009,107,0,1449762915443,1449762916346,479,233,0,0,0,3,2,1,5,0002-00-0001-03.png,0003-00-0001-80.png
00000009,108,0,1449762919351,1449762919391,861,337,0,0,0,1,2,1,3,0004-00-0000-29.png,0003-00-0001-78.png
00000009,109,1,1449762922306,1449762922819,1041,306,0,0,0,4,3,1,7,0001-00-0001-86.png,0002-00-0001-35.png
00000009,110,1,1449762923737,1449762923880,874,497,0,0,0,1,0,1,1,0004-00-0001-25.png,0005-00-0000-76.png
00000009,111,1,1449762924878,1449762925619,472,267,0,0,0,2,3,1,5,0003-00-0000-22.png,0002-00-0001-90.png
00000009,112,0,1449762926665,1449762927346,913,303,0,0,0,0,1,1,1,0005-00-0001-48.png,0004-00-0001-37.png
00000009,113,1,1449762930392,1449762930560,878,436,0,0,0,4,3,1,7,0001-00-0000-58.png,0002-00-0001-97.png
00000009,114,1,1449762931649,1449762932541,951,354,0,0,0,3,2,1,5,0002-00-0001-04.png,0003-00-0001-83.png
00000009,115,1,1449762933611,1449762933662,859,456,0,0,0,2,1,1,3,0003-00-0000-18.png,0004-00-0001-64.png
00000009,116,0,1449762934605,1449762934645,862,421,0,0,0,0,1,1,1,0005-00-0001-53.png,0004-00-0001-48.png
00000009,117,1,1449762937795,1449762937951,862,425,0,0,0,1,0,1,1,0004-00-0000-82.png,0005-00-0000-17.png
00000009,118,1,1449762938978,1449762939683,506,244,0,0,0,1,2,1,3,0004-00-0001-22.png,0003-00-0001-12.png
00000009,119,1,1449762940593,1449762941589,392,353,0,0,0,3,4,1,7,0002-00-0000-09.png,0001-00-0000-45.png
00000009,120,1,1449762942603,1449762943577,470,245,0,0,0,2,3,1,5,0003-00-0001-21.png,0002-00-0001-31.png
00000009,121,1,1449762944588,1449762945349,474,267,0,0,0,1,2,1,3,0004-00-0001-45.png,0003-00-0001-93.png
00000009,122,1,1449762946314,1449762947087,927,305,0,0,0,2,1,1,3,0003-00-0001-10.png,0004-00-0001-64.png
00000009,123,0,1449762948063,1449762948815,491,238,0,0,0,1,0,1,1,0004-00-0001-53.png,0005-00-0001-52.png
00000009,124,1,1449762951899,1449762952763,948,349,0,0,0,4,3,1,7,0001-00-0001-56.png,0002-00-0001-71.png
00000009,125,1,1449762953788,1449762954812,926,332,0,0,0,3,2,1,5,0002-00-0001-67.png,0003-00-0001-72.png
00000009,126,0,1449762955810,1449762956620,947,403,0,0,0,0,1,1,1,0005-00-0001-43.png,0004-00-0000-68.png
00000009,127,1,1449762959728,1449762960433,504,270,0,0,0,2,3,1,5,0003-00-0000-55.png,0002-00-0001-65.png
00000009,128,1,1449762961426,1449762962925,460,274,0,0,0,3,4,1,7,0002-00-0000-55.png,0001-00-0001-72.png
00000009,129,1,1449762963910,1449762964893,387,358,0,0,0,3,4,1,7,0002-00-0000-20.png,0001-00-0000-61.png
00000009,130,1,1449762965860,1449762966555,913,440,0,0,0,1,0,1,1,0004-00-0000-24.png,0005-00-0001-27.png
00000009,131,1,1449762967484,1449762968299,477,228,0,0,0,1,2,1,3,0004-00-0001-16.png,0003-00-0000-97.png
00000009,132,1,1449762969266,1449762970089,1013,256,0,0,0,4,3,1,7,0001-00-0000-56.png,0002-00-0001-83.png
00000009,133,0,1449762971098,1449762971174,872,528,0,0,0,0,1,1,1,0005-00-0000-82.png,0004-00-0000-52.png
00000009,134,1,1449762974364,1449762975061,479,276,0,0,0,2,3,1,5,0003-00-0000-35.png,0002-00-0001-62.png
00000009,135,1,1449762975996,1449762976989,1050,279,0,0,0,3,2,1,5,0002-00-0001-87.png,0003-00-0001-27.png
00000009,136,0,1449762978043,1449762978910,395,347,0,0,0,2,1,1,3,0003-00-0001-38.png,0004-00-0000-31.png
00000009,137,1,1449762982017,1449762982768,1041,279,0,0,0,3,2,1,5,0002-00-0001-90.png,0003-00-0000-82.png
00000009,138,0,1449762983786,1449762983814,875,427,0,0,0,1,2,1,3,0004-00-0000-09.png,0003-00-0001-79.png
00000009,139,1,1449762986932,1449762987576,960,374,0,0,0,2,1,1,3,0003-00-0000-98.png,0004-00-0001-70.png
00000009,140,0,1449762988504,1449762988613,900,462,0,0,0,0,1,1,1,0005-00-0001-03.png,0004-00-0001-59.png
00000009,141,1,1449762991578,1449762992126,1041,239,0,0,0,1,0,1,1,0004-00-0000-70.png,0005-00-0000-69.png
00000009,142,0,1449762993046,1449762993957,1037,259,0,0,0,3,4,1,7,0002-00-0000-90.png,0001-00-0001-30.png
00000009,143,1,1449762996951,1449762997749,1018,260,0,0,0,4,3,1,7,0001-00-0001-17.png,0002-00-0000-45.png
00000009,144,1,1449762998791,1449762999511,481,257,0,0,0,2,3,1,5,0003-00-0000-77.png,0002-00-0000-68.png
00000009,145,1,1449763000477,1449763001499,939,279,0,0,0,3,2,1,5,0002-00-0000-49.png,0003-00-0000-51.png
00000009,146,1,1449763002527,1449763002579,867,426,0,0,0,1,0,1,1,0004-00-0000-36.png,0005-00-0000-00.png
00000009,147,0,1449763003560,1449763004313,484,242,0,0,0,4,3,1,7,0001-00-0000-27.png,0002-00-0001-50.png
00000009,148,0,1449763007186,1449763007708,910,306,0,0,0,0,1,1,1,0005-00-0001-25.png,0004-00-0001-16.png
00000009,149,1,1449763010815,1449763010947,887,295,0,0,0,2,1,1,3,0003-00-0000-54.png,0004-00-0000-45.png
00000009,150,0,1449763011989,1449763012782,939,378,0,0,0,3,4,1,7,0002-00-0001-58.png,0001-00-0000-36.png
00000009,151,1,1449763015774,1449763016553,486,270,0,0,0,2,3,1,5,0003-00-0000-15.png,0002-00-0000-44.png
00000009,152,1,1449763017502,1449763018154,478,280,0,0,0,1,2,1,3,0004-00-0000-48.png,0003-00-0001-46.png
00000009,153,1,1449763019053,1449763019795,913,397,0,0,0,3,2,1,5,0002-00-0000-53.png,0003-00-0001-47.png
00000009,154,1,1449763020722,1449763020771,884,429,0,0,0,1,0,1,1,0004-00-0000-00.png,0005-00-0000-72.png
00000009,155,1,1449763021704,1449763022382,465,263,0,0,0,0,1,1,1,0005-00-0000-79.png,0004-00-0001-81.png
00000009,156,0,1449763023220,1449763024221,439,406,0,0,0,4,3,1,7,0001-00-0000-43.png,0002-00-0000-33.png
00000009,157,0,1449763027110,1449763027915,964,373,0,0,0,3,4,1,7,0002-00-0000-73.png,0001-00-0000-36.png
00000009,158,1,1449763031059,1449763031577,389,323,0,0,0,1,2,1,3,0004-00-0001-45.png,0003-00-0001-48.png
00000009,159,1,1449763032496,1449763033502,511,218,0,0,0,2,3,1,5,0003-00-0000-96.png,0002-00-0000-15.png
00000009,160,1,1449763034376,1449763035118,1016,267,0,0,0,2,1,1,3,0003-00-0001-71.png,0004-00-0001-11.png
00000009,161,1,1449763036143,1449763036246,888,479,0,0,0,2,1,1,3,0003-00-0000-76.png,0004-00-0000-64.png
00000009,162,1,1449763037260,1449763037284,862,450,0,0,0,4,3,1,7,0001-00-0001-93.png,0002-00-0000-26.png
00000009,163,0,1449763038431,1449763038500,890,542,0,0,0,1,2,1,3,0004-00-0000-11.png,0003-00-0001-08.png
00000009,164,1,1449763041657,1449763042430,961,391,0,0,0,3,2,1,5,0002-00-0000-08.png,0003-00-0000-84.png
00000009,165,1,1449763043336,1449763043463,888,502,0,0,0,1,0,1,1,0004-00-0001-13.png,0005-00-0000-20.png
00000009,166,0,1449763044538,1449763045601,913,314,0,0,0,2,3,1,5,0003-00-0000-80.png,0002-00-0000-36.png
00000009,167,0,1449763048595,1449763049378,939,358,0,0,0,3,4,1,7,0002-00-0001-33.png,0001-00-0000-32.png
00000009,168,0,1449763052523,1449763053174,985,330,0,0,0,0,1,1,1,0005-00-0000-14.png,0004-00-0001-38.png
00000009,169,1,1449763056356,1449763056421,913,306,0,0,0,3,2,1,5,0002-00-0001-82.png,0003-00-0000-53.png
00000009,170,0,1449763057400,1449763057499,888,488,0,0,0,2,3,1,5,0003-00-0000-85.png,0002-00-0001-63.png
00000009,171,1,1449763060637,1449763061345,1016,292,0,0,0,2,1,1,3,0003-00-0000-68.png,0004-00-0001-73.png
00000009,172,1,1449763062319,1449763063124,469,246,0,0,0,0,1,1,1,0005-00-0000-84.png,0004-00-0001-26.png
00000009,173,1,1449763064008,1449763064656,497,261,0,0,0,1,2,1,3,0004-00-0001-07.png,0003-00-0001-46.png
00000009,174,1,1449763065584,1449763066407,912,309,0,0,0,4,3,1,7,0001-00-0000-86.png,0002-00-0001-40.png
00000009,175,0,1449763067388,1449763067404,859,453,0,0,0,3,4,1,7,0002-00-0000-70.png,0001-00-0001-88.png
00000009,176,0,1449763070257,1449763070921,410,363,0,0,0,1,0,1,1,0004-00-0001-25.png,0005-00-0000-18.png
00000009,177,1,1449763073774,1449763074273,939,306,0,0,0,1,0,1,1,0004-00-0001-35.png,0005-00-0000-27.png
00000009,178,1,1449763075208,1449763076073,1012,273,0,0,0,3,2,1,5,0002-00-0001-86.png,0003-00-0000-64.png
00000009,179,1,1449763077017,1449763077816,460,248,0,0,0,2,3,1,5,0003-00-0001-75.png,0002-00-0000-56.png
00000009,180,1,1449763078724,1449763079837,471,256,0,0,0,3,4,1,7,0002-00-0001-53.png,0001-00-0001-72.png
00000009,181,0,1449763080722,1449763081875,1006,288,0,0,0,0,1,1,1,0005-00-0001-19.png,0004-00-0000-32.png
00000009,182,0,1449763084752,1449763085837,415,431,0,0,0,4,3,1,7,0001-00-0000-73.png,0002-00-0000-16.png
00000009,183,1,1449763088712,1449763088772,895,386,0,0,0,2,1,1,3,0003-00-0001-75.png,0004-00-0001-92.png
00000009,184,0,1449763089738,1449763090648,939,306,0,0,0,1,2,1,3,0004-00-0001-75.png,0003-00-0001-74.png
00000009,185,1,1449763093750,1449763094333,469,262,0,0,0,1,2,1,3,0004-00-0000-68.png,0003-00-0001-04.png
00000009,186,1,1449763095232,1449763096609,379,376,0,0,0,3,4,1,7,0002-00-0001-93.png,0001-00-0001-99.png
00000009,187,0,1449763097536,1449763098330,457,405,0,0,0,2,1,1,3,0003-00-0001-07.png,0004-00-0000-73.png
00000009,188,1,1449763101378,1449763101857,1016,269,0,0,0,1,0,1,1,0004-00-0001-22.png,0005-00-0001-72.png
00000009,189,1,1449763102722,1449763103742,498,269,0,0,0,0,1,1,1,0005-00-0001-09.png,0004-00-0001-70.png
00000009,190,1,1449763104590,1449763105577,934,298,0,0,0,4,3,1,7,0001-00-0000-70.png,0002-00-0000-46.png
00000009,191,1,1449763106582,1449763106638,862,478,0,0,0,3,2,1,5,0002-00-0000-18.png,0003-00-0001-60.png
00000009,192,1,1449763107642,1449763108574,445,260,0,0,0,2,3,1,5,0003-00-0000-30.png,0002-00-0000-85.png
00000009,193,1,1449763109503,1449763110443,486,242,0,0,0,2,3,1,5,0003-00-0001-64.png,0002-00-0001-33.png
00000009,194,1,1449763111334,1449763112354,395,363,0,0,0,3,4,1,7,0002-00-0001-45.png,0001-00-0000-71.png
00000009,195,0,1449763113300,1449763114301,457,262,0,0,0,4,3,1,7,0001-00-0000-98.png,0002-00-0001-99.png
00000009,196,0,1449763117230,1449763117922,1016,263,0,0,0,1,2,1,3,0004-00-0000-24.png,0003-00-0000-06.png
00000009,197,1,1449763120990,1449763121042,888,361,0,0,0,3,2,1,5,0002-00-0000-56.png,0003-00-0000-05.png
00000009,198,0,1449763121995,1449763122800,448,254,0,0,0,2,1,1,3,0003-00-0001-24.png,0004-00-0001-72.png
00000009,199,1,1449763125966,1449763126017,910,301,0,0,0,1,0,1,1,0004-00-0001-26.png,0005-00-0000-38.png
00000009,200,1,1449763126934,1449763127607,390,358,0,0,0,0,1,1,1,0005-00-0000-79.png,0004-00-0001-17.png
00000009,201,1,1449763128637,1449763129346,990,279,0,0,0,1,0,1,1,0004-00-0001-30.png,0005-00-0001-68.png
00000009,202,1,1449763130362,1449763130390,868,389,0,0,0,2,1,1,3,0003-00-0001-33.png,0004-00-0001-77.png
00000009,203,0,1449763131520,1449763131600,888,488,0,0,0,0,1,1,1,0005-00-0000-92.png,0004-00-0001-83.png
00000009,204,1,1449763134579,1449763135293,478,263,0,0,0,2,3,1,5,0003-00-0000-09.png,0002-00-0001-08.png
00000009,205,0,1449763136162,1449763137133,888,315,0,0,0,1,2,1,3,0004-00-0001-39.png,0003-00-0000-16.png
00000009,206,0,1449763140015,1449763141022,939,358,0,0,0,3,4,1,7,0002-00-0000-15.png,0001-00-0001-50.png
00000009,207,0,1449763144874,1449763145686,486,271,0,0,0,4,3,1,7,0001-00-0001-87.png,0002-00-0001-85.png
00000009,208,1,1449763148624,1449763148645,872,390,0,0,0,3,2,1,5,0002-00-0001-73.png,0003-00-0001-01.png
00000009,209,0,1449763149651,1449763150572,939,317,0,0,0,3,4,1,7,0002-00-0000-58.png,0001-00-0000-53.png
00000009,210,1,1449763153616,1449763154236,432,376,0,0,0,2,3,1,5,0003-00-0001-53.png,0002-00-0000-58.png
00000009,211,1,1449763155176,1449763156088,916,299,0,0,0,3,2,1,5,0002-00-0000-06.png,0003-00-0000-65.png
00000009,212,1,1449763157031,1449763157107,862,447,0,0,0,1,0,1,1,0004-00-0000-57.png,0005-00-0000-28.png
00000009,213,1,1449763158225,1449763159082,469,260,0,0,0,1,2,1,3,0004-00-0000-10.png,0003-00-0001-81.png
00000009,214,0,1449763160107,1449763161129,492,268,0,0,0,4,3,1,7,0001-00-0000-83.png,0002-00-0000-08.png
00000009,215,0,1449763164050,1449763164625,918,371,0,0,0,0,1,1,1,0005-00-0000-99.png,0004-00-0000-91.png
00000009,216,0,1449763167587,1449763168155,509,269,0,0,0,2,1,1,3,0003-00-0000-08.png,0004-00-0000-86.png
00000009,217,0,1449763171153,1449763171692,937,369,0,0,0,0,1,1,1,0005-00-0001-13.png,0004-00-0000-33.png
00000009,218,0,1449763174842,1449763175016,907,424,0,0,0,2,3,1,5,0003-00-0001-75.png,0002-00-0000-27.png
00000009,219,0,1449763178112,1449763178234,862,420,0,0,0,1,2,1,3,0004-00-0000-65.png,0003-00-0001-50.png
00000009,220,1,1449763181109,1449763181707,946,361,0,0,0,4,3,1,7,0001-00-0001-51.png,0002-00-0001-64.png
00000009,221,1,1449763182581,1449763182704,888,477,0,0,0,1,0,1,1,0004-00-0000-82.png,0005-00-0001-14.png
00000009,222,1,1449763183765,1449763183957,865,554,0,0,0,2,1,1,3,0003-00-0000-58.png,0004-00-0000-30.png
00000009,223,1,1449763185116,1449763186071,936,322,0,0,0,3,2,1,5,0002-00-0001-38.png,0003-00-0001-25.png
00000009,224,1,1449763187040,1449763187968,490,247,0,0,0,3,4,1,7,0002-00-0000-10.png,0001-00-0001-66.png
00000009,225,1,1449763188944,1449763190032,898,306,0,0,0,2,1,1,3,0003-00-0001-11.png,0004-00-0000-31.png
00000009,226,1,1449763190998,1449763191843,464,278,0,0,0,3,4,1,7,0002-00-0000-75.png,0001-00-0001-00.png
00000009,227,1,1449763192768,1449763193599,939,317,0,0,0,4,3,1,7,0001-00-0000-78.png,0002-00-0000-24.png
00000009,228,0,1449763194548,1449763194596,881,432,0,0,0,0,1,1,1,0005-00-0000-01.png,0004-00-0000-33.png
00000009,229,1,1449763197700,1449763197747,933,304,0,0,0,1,0,1,1,0004-00-0001-69.png,0005-00-0001-19.png
00000009,230,1,1449763198701,1449763199693,474,269,0,0,0,2,3,1,5,0003-00-0001-70.png,0002-00-0001-12.png
00000009,231,0,1449763200576,1449763201469,391,347,0,0,0,3,2,1,5,0002-00-0001-11.png,0003-00-0000-62.png
00000009,232,1,1449763204552,1449763205107,468,406,0,0,0,1,2,1,3,0004-00-0000-47.png,0003-00-0000-22.png
00000009,233,0,1449763205959,1449763206783,503,240,0,0,0,2,1,1,3,0003-00-0000-25.png,0004-00-0001-80.png
00000009,234,1,1449763209717,1449763209771,888,384,0,0,0,4,3,1,7,0001-00-0001-64.png,0002-00-0000-49.png
00000009,235,1,1449763210720,1449763211517,448,400,0,0,0,0,1,1,1,0005-00-0000-41.png,0004-00-0001-03.png
00000009,236,0,1449763212413,1449763213359,1028,253,0,0,0,2,3,1,5,0003-00-0001-49.png,0002-00-0000-69.png
00000009,237,1,1449763216846,1449763217375,939,373,0,0,0,3,2,1,5,0002-00-0000-91.png,0003-00-0001-10.png
00000009,238,0,1449763218256,1449763218381,862,488,0,0,0,1,2,1,3,0004-00-0000-66.png,0003-00-0001-50.png
00000009,239,1,1449763221588,1449763222271,495,249,0,0,0,3,4,1,7,0002-00-0000-93.png,0001-00-0000-35.png
00000009,240,0,1449763223138,1449763223908,401,332,0,0,0,1,0,1,1,0004-00-0000-94.png,0005-00-0000-34.png
00000009,241,1,1449763227058,1449763227745,493,271,0,0,0,0,1,1,1,0005-00-0000-94.png,0004-00-0000-44.png
00000009,242,0,1449763228607,1449763229726,925,452,0,0,0,3,4,1,7,0002-00-0001-27.png,0001-00-0000-16.png
00000009,243,1,1449763232766,1449763232790,876,358,0,0,0,2,1,1,3,0003-00-0001-27.png,0004-00-0000-50.png
00000009,244,1,1449763233749,1449763234472,404,353,0,0,0,2,3,1,5,0003-00-0000-55.png,0002-00-0000-26.png
00000009,245,1,1449763235416,1449763236293,925,411,0,0,0,1,0,1,1,0004-00-0001-62.png,0005-00-0001-70.png
00000009,246,1,1449763237238,1449763237316,862,462,0,0,0,3,2,1,5,0002-00-0001-28.png,0003-00-0000-18.png
00000009,247,0,1449763238298,1449763238399,878,514,0,0,0,1,2,1,3,0004-00-0001-52.png,0003-00-0001-16.png
00000009,248,1,1449763241299,1449763242143,1069,408,0,0,0,4,3,1,7,0001-00-0000-74.png,0002-00-0001-05.png
00000009,249,1,1449763243018,1449763243880,444,361,0,0,0,2,3,1,5,0003-00-0000-82.png,0002-00-0001-22.png
00000009,250,0,1449763244796,1449763245731,939,306,0,0,0,3,4,1,7,0002-00-0001-33.png,0001-00-0001-51.png
00000009,251,1,1449763248563,1449763249397,463,261,0,0,0,1,2,1,3,0004-00-0000-05.png,0003-00-0001-28.png
00000009,252,0,1449763250263,1449763251057,492,269,0,0,0,2,1,1,3,0003-00-0001-96.png,0004-00-0001-51.png
00000009,253,1,1449763254269,1449763255003,1041,264,0,0,0,4,3,1,7,0001-00-0000-44.png,0002-00-0001-41.png
00000009,254,1,1449763255868,1449763255998,858,478,0,0,0,3,2,1,5,0002-00-0000-02.png,0003-00-0000-37.png
00000009,255,1,1449763256958,1449763257671,508,255,0,0,0,0,1,1,1,0005-00-0000-38.png,0004-00-0000-01.png
00000009,256,1,1449763258519,1449763259217,1021,260,0,0,0,1,0,1,1,0004-00-0001-36.png,0005-00-0001-24.png
00000009,257,0,1449763260201,1449763260252,868,427,0,0,0,3,4,1,7,0002-00-0000-94.png,0001-00-0001-17.png
00000009,258,0,1449763263151,1449763263815,502,285,0,0,0,2,1,1,3,0003-00-0000-24.png,0004-00-0000-24.png
00000009,259,1,1449763266947,1449763267547,1026,296,0,0,0,3,2,1,5,0002-00-0000-29.png,0003-00-0001-24.png
00000009,260,1,1449763268397,1449763268460,862,368,0,0,0,4,3,1,7,0001-00-0000-37.png,0002-00-0001-80.png
00000009,261,0,1449763269550,1449763269766,881,527,0,0,0,1,2,1,3,0004-00-0001-59.png,0003-00-0001-32.png
00000009,262,0,1449763272788,1449763272829,906,311,0,0,0,0,1,1,1,0005-00-0000-89.png,0004-00-0001-00.png
00000009,263,1,1449763275843,1449763276433,476,291,0,0,0,2,3,1,5,0003-00-0001-10.png,0002-00-0000-66.png
00000009,264,1,1449763277277,1449763278114,934,408,0,0,0,1,0,1,1,0004-00-0000-36.png,0005-00-0001-59.png
00000009,265,0,1449763279528,1449763279717,907,535,0,0,0,0,1,1,1,0005-00-0000-52.png,0004-00-0001-43.png
00000009,266,1,1449763282958,1449763283718,400,411,0,0,0,2,3,1,5,0003-00-0001-20.png,0002-00-0000-43.png
00000009,267,0,1449763284574,1449763285616,411,371,0,0,0,4,3,1,7,0001-00-0001-33.png,0002-00-0001-32.png
00000009,268,1,1449763288750,1449763289248,915,304,0,0,0,3,2,1,5,0002-00-0001-62.png,0003-00-0001-64.png
00000009,269,1,1449763290119,1449763291032,418,380,0,0,0,3,4,1,7,0002-00-0001-36.png,0001-00-0000-11.png
00000009,270,1,1449763291960,1449763292652,1047,296,0,0,0,2,1,1,3,0003-00-0000-53.png,0004-00-0000-33.png
00000009,271,0,1449763294137,1449763294945,895,321,0,0,0,1,2,1,3,0004-00-0001-43.png,0003-00-0000-78.png
00000009,272,1,1449763297944,1449763298566,917,299,0,0,0,1,0,1,1,0004-00-0000-17.png,0005-00-0000-29.png
00000009,273,1,1449763299474,1449763299518,860,427,0,0,0,3,2,1,5,0002-00-0000-47.png,0003-00-0000-93.png
00000009,274,1,1449763300508,1449763301214,890,314,0,0,0,2,1,1,3,0003-00-0000-13.png,0004-00-0000-33.png
00000009,275,1,1449763302062,1449763302106,900,443,0,0,0,1,0,1,1,0004-00-0000-50.png,0005-00-0000-35.png
00000009,276,0,1449763303345,1449763303421,884,495,0,0,0,2,3,1,5,0003-00-0001-56.png,0002-00-0000-45.png
00000009,277,1,1449763306546,1449763307125,1024,256,0,0,0,4,3,1,7,0001-00-0000-76.png,0002-00-0000-07.png
00000009,278,0,1449763308025,1449763308123,861,510,0,0,0,3,4,1,7,0002-00-0000-25.png,0001-00-0001-34.png
00000009,279,1,1449763311327,1449763312028,522,282,0,0,0,0,1,1,1,0005-00-0000-42.png,0004-00-0001-18.png
00000009,280,1,1449763313437,1449763314012,387,332,0,0,0,1,2,1,3,0004-00-0001-34.png,0003-00-0001-88.png
00000009,281,0,1449763314916,1449763315591,891,279,0,0,0,0,1,1,1,0005-00-0000-10.png,0004-00-0000-60.png
00000009,282,1,1449763318526,1449763319069,999,279,0,0,0,4,3,1,7,0001-00-0001-17.png,0002-00-0001-41.png
00000009,283,1,1449763319941,1449763320924,511,233,0,0,0,1,2,1,3,0004-00-0001-63.png,0003-00-0000-94.png
00000009,284,1,1449763321942,1449763322685,483,257,0,0,0,2,3,1,5,0003-00-0000-81.png,0002-00-0001-89.png
00000009,285,1,1449763323659,1449763324287,913,296,0,0,0,2,1,1,3,0003-00-0000-67.png,0004-00-0000-41.png
00000009,286,1,1449763325268,1449763325316,888,439,0,0,0,3,2,1,5,0002-00-0000-57.png,0003-00-0001-43.png
00000009,287,0,1449763326453,1449763326489,865,464,0,0,0,3,4,1,7,0002-00-0000-20.png,0001-00-0000-31.png
00000009,288,1,1449763329490,1449763330028,959,341,0,0,0,1,0,1,1,0004-00-0000-52.png,0005-00-0001-94.png
00000009,289,0,1449763330904,1449763330944,879,447,0,0,0,2,3,1,5,0003-00-0000-74.png,0002-00-0001-17.png
00000009,290,1,1449763333884,1449763334428,939,358,0,0,0,2,1,1,3,0003-00-0000-42.png,0004-00-0001-20.png
00000009,291,0,1449763335348,1449763335434,883,482,0,0,0,3,4,1,7,0002-00-0000-33.png,0001-00-0001-13.png
00000009,292,1,1449763338468,1449763338472,861,334,0,0,0,3,2,1,5,0002-00-0001-20.png,0003-00-0001-52.png
00000009,293,1,1449763339400,1449763340057,1044,246,0,0,0,1,0,1,1,0004-00-0001-16.png,0005-00-0001-34.png
00000009,294,0,1449763340886,1449763340977,888,462,0,0,0,1,2,1,3,0004-00-0000-82.png,0003-00-0000-98.png
00000009,295,1,1449763343973,1449763344530,401,347,0,0,0,0,1,1,1,0005-00-0001-26.png,0004-00-0000-74.png
00000009,296,0,1449763345376,1449763346653,513,249,0,0,0,4,3,1,7,0001-00-0001-46.png,0002-00-0000-38.png
00000009,297,0,1449763349755,1449763350450,934,309,0,0,0,2,3,1,5,0003-00-0001-87.png,0002-00-0001-02.png
00000009,298,1,1449763353542,1449763354025,939,410,0,0,0,4,3,1,7,0001-00-0001-51.png,0002-00-0001-64.png
00000009,299,0,1449763354934,1449763355719,941,338,0,0,0,0,1,1,1,0005-00-0000-00.png,0004-00-0000-15.png
00000009,300,1,1449763358767,1449763358779,889,360,0,0,0,1,0,1,1,0004-00-0001-24.png,0005-00-0001-63.png
00000009,301,0,1449763359749,1449763359864,862,459,0,0,0,1,2,1,3,0004-00-0000-64.png,0003-00-0001-01.png
00000009,302,1,1449763362793,1449763364014,471,284,0,0,0,3,4,1,7,0002-00-0000-83.png,0001-00-0001-49.png
00000009,303,1,1449763364938,1449763365786,922,424,0,0,0,3,2,1,5,0002-00-0001-32.png,0003-00-0000-00.png
00000009,304,1,1449763366907,1449763367012,888,535,0,0,0,2,1,1,3,0003-00-0000-02.png,0004-00-0001-94.png
00000009,305,1,1449763368139,1449763368187,862,474,0,0,0,3,2,1,5,0002-00-0001-61.png,0003-00-0000-53.png
00000009,306,0,1449763369315,1449763369367,862,480,0,0,0,2,3,1,5,0003-00-0001-41.png,0002-00-0001-08.png
00000009,307,0,1449763372302,1449763373183,488,251,0,0,0,4,3,1,7,0001-00-0001-70.png,0002-00-0001-33.png
00000009,308,0,1449763376217,1449763376786,472,280,0,0,0,2,1,1,3,0003-00-0000-14.png,0004-00-0001-89.png
00000009,309,1,1449763379916,1449763380474,404,379,0,0,0,1,2,1,3,0004-00-0000-10.png,0003-00-0001-78.png
00000009,310,1,1449763381322,1449763382040,1118,358,0,0,0,1,0,1,1,0004-00-0001-64.png,0005-00-0000-96.png
00000009,311,1,1449763382926,1449763383733,394,315,0,0,0,0,1,1,1,0005-00-0001-59.png,0004-00-0001-11.png
00000009,312,0,1449763384704,1449763385637,990,243,0,0,0,3,4,1,7,0002-00-0000-66.png,0001-00-0000-59.png
00000009,313,1,1449763388588,1449763389142,903,381,0,0,0,4,3,1,7,0001-00-0001-59.png,0002-00-0000-53.png
00000009,314,0,1449763390060,1449763391422,504,236,0,0,0,2,1,1,3,0003-00-0001-68.png,0004-00-0001-76.png
00000009,315,0,1449763394410,1449763394446,888,381,0,0,0,1,2,1,3,0004-00-0001-27.png,0003-00-0001-97.png
00000009,316,0,1449763397891,1449763397991,857,286,0,0,0,3,4,1,7,0002-00-0000-53.png,0001-00-0000-37.png
00000009,317,0,1449763401170,1449763401738,884,381,0,0,0,2,3,1,5,0003-00-0000-87.png,0002-00-0001-87.png
00000009,318,0,1449763404939,1449763404987,891,381,0,0,0,0,1,1,1,0005-00-0001-88.png,0004-00-0000-72.png
00000009,319,1,1449763407855,1449763408392,1036,290,0,0,0,1,0,1,1,0004-00-0000-43.png,0005-00-0000-17.png
00000009,320,1,1449763409301,1449763410119,932,328,0,0,0,3,2,1,5,0002-00-0001-82.png,0003-00-0000-91.png
00000009,321,0,1449763411050,1449763411864,510,261,0,0,0,4,3,1,7,0001-00-0000-21.png,0002-00-0000-23.png
00000009,322,1,1449763414832,1449763414932,866,325,0,0,0,3,2,1,5,0002-00-0001-67.png,0003-00-0001-14.png
00000009,323,0,1449763415901,1449763415957,859,452,0,0,0,2,3,1,5,0003-00-0001-82.png,0002-00-0001-20.png
00000009,324,1,1449763418967,1449763419582,493,267,0,0,0,0,1,1,1,0005-00-0000-26.png,0004-00-0000-81.png
00000009,325,0,1449763420457,1449763421420,1016,279,0,0,0,3,4,1,7,0002-00-0000-20.png,0001-00-0001-51.png
00000009,326,0,1449763424545,1449763425232,913,306,0,0,0,1,2,1,3,0004-00-0001-43.png,0003-00-0000-46.png
00000009,327,1,1449763428347,1449763428588,917,373,0,0,0,2,1,1,3,0003-00-0001-78.png,0004-00-0000-13.png
00000009,328,1,1449763429575,1449763429631,862,423,0,0,0,1,0,1,1,0004-00-0000-88.png,0005-00-0001-15.png
00000009,329,0,1449763430567,1449763430679,860,484,0,0,0,0,1,1,1,0005-00-0000-72.png,0004-00-0001-91.png
00000009,330,1,1449763433814,1449763434444,406,380,0,0,0,3,4,1,7,0002-00-0000-18.png,0001-00-0001-83.png
00000009,331,1,1449763435398,1449763436009,913,306,0,0,0,2,1,1,3,0003-00-0000-54.png,0004-00-0000-53.png
00000009,332,0,1449763436907,1449763436963,863,427,0,0,0,1,2,1,3,0004-00-0000-57.png,0003-00-0001-35.png
00000009,333,1,1449763439958,1449763440498,996,277,0,0,0,1,0,1,1,0004-00-0000-97.png,0005-00-0001-46.png
00000009,334,0,1449763441409,1449763441585,889,563,0,0,0,2,3,1,5,0003-00-0001-27.png,0002-00-0000-33.png
00000009,335,1,1449763444706,1449763445252,940,369,0,0,0,4,3,1,7,0001-00-0001-58.png,0002-00-0000-02.png
00000009,336,0,1449763446127,1449763447063,496,259,0,0,0,3,2,1,5,0002-00-0000-44.png,0003-00-0000-79.png
00000009,337,1,1449763450042,1449763450709,489,280,0,0,0,3,4,1,7,0002-00-0000-88.png,0001-00-0001-34.png
00000009,338,1,1449763451699,1449763452586,913,332,0,0,0,1,0,1,1,0004-00-0001-31.png,0005-00-0000-34.png
00000009,339,0,1449763453484,1449763453532,863,429,0,0,0,1,2,1,3,0004-00-0001-18.png,0003-00-0000-02.png
00000009,340,0,1449763456632,1449763457180,508,286,0,0,0,4,3,1,7,0001-00-0000-36.png,0002-00-0001-90.png
00000009,341,0,1449763460159,1449763460800,939,384,0,0,0,2,3,1,5,0003-00-0001-46.png,0002-00-0000-00.png
00000009,342,1,1449763463886,1449763464425,941,359,0,0,0,2,1,1,3,0003-00-0001-66.png,0004-00-0000-57.png
00000009,343,1,1449763465329,1449763466056,504,236,0,0,0,0,1,1,1,0005-00-0001-21.png,0004-00-0000-86.png
00000009,344,1,1449763466979,1449763468082,964,316,0,0,0,3,2,1,5,0002-00-0000-78.png,0003-00-0001-61.png
00000009,345,1,1449763469214,1449763469298,873,493,0,0,0,3,2,1,5,0002-00-0001-15.png,0003-00-0001-61.png
00000009,346,1,1449763470354,1449763470456,873,495,0,0,0,2,1,1,3,0003-00-0000-34.png,0004-00-0000-50.png
00000009,347,1,1449763471583,1449763471680,904,519,0,0,0,1,0,1,1,0004-00-0000-29.png,0005-00-0000-31.png
00000009,348,0,1449763472744,1449763472807,875,497,0,0,0,1,2,1,3,0004-00-0001-34.png,0003-00-0000-31.png
00000009,349,0,1449763475881,1449763475923,874,358,0,0,0,2,3,1,5,0003-00-0001-13.png,0002-00-0001-80.png
00000009,350,0,1449763478782,1449763478802,888,365,0,0,0,3,4,1,7,0002-00-0000-35.png,0001-00-0001-30.png
00000009,351,1,1449763481910,1449763482462,1019,281,0,0,0,4,3,1,7,0001-00-0000-81.png,0002-00-0001-68.png
00000009,352,0,1449763483332,1449763484137,913,279,0,0,0,0,1,1,1,0005-00-0000-69.png,0004-00-0001-23.png
00000009,353,0,1449763487349,1449763487884,502,279,0,0,0,4,3,1,7,0001-00-0001-22.png,0002-00-0000-13.png
00000009,354,0,1449763491049,1449763491065,900,302,0,0,0,1,2,1,3,0004-00-0001-04.png,0003-00-0000-52.png
00000009,355,1,1449763494196,1449763494216,868,331,0,0,0,2,1,1,3,0003-00-0000-95.png,0004-00-0000-92.png
00000009,356,0,1449763495183,1449763496266,937,314,0,0,0,2,3,1,5,0003-00-0001-64.png,0002-00-0001-11.png
00000009,357,0,1449763499395,1449763500173,428,342,0,0,0,3,2,1,5,0002-00-0001-57.png,0003-00-0001-22.png
00000009,358,0,1449763503333,1449763503370,883,315,0,0,0,3,4,1,7,0002-00-0000-45.png,0001-00-0000-50.png
00000009,359,1,1449763506273,1449763507294,478,266,0,0,0,0,1,1,1,0005-00-0001-36.png,0004-00-0000-14.png
00000009,360,1,1449763508252,1449763509146,939,358,0,0,0,1,0,1,1,0004-00-0000-05.png,0005-00-0000-02.png
00000009,361,0,1449763510098,1449763510170,902,452,0,0,0,0,1,1,1,0005-00-0000-38.png,0004-00-0000-13.png
00000009,362,0,1449763513258,1449763513295,870,306,0,0,0,2,3,1,5,0003-00-0001-51.png,0002-00-0001-07.png
00000009,363,1,1449763516369,1449763516985,1065,328,0,0,0,2,1,1,3,0003-00-0000-49.png,0004-00-0000-31.png
00000009,364,1,1449763517890,1449763518056,887,531,0,0,0,4,3,1,7,0001-00-0001-05.png,0002-00-0000-05.png
00000009,365,1,1449763519177,1449763519360,873,550,0,0,0,1,0,1,1,0004-00-0000-29.png,0005-00-0001-85.png
00000009,366,0,1449763520498,1449763520600,857,493,0,0,0,3,4,1,7,0002-00-0001-44.png,0001-00-0001-02.png
00000009,367,0,1449763524170,1449763524684,1021,280,0,0,0,1,2,1,3,0004-00-0000-40.png,0003-00-0001-21.png
00000009,368,1,1449763527863,1449763527954,916,299,0,0,0,3,2,1,5,0002-00-0000-65.png,0003-00-0001-50.png
00000009,369,1,1449763528861,1449763529607,401,325,0,0,0,1,2,1,3,0004-00-0001-96.png,0003-00-0000-53.png
00000009,370,1,1449763530455,1449763531153,922,358,0,0,0,2,1,1,3,0003-00-0000-40.png,0004-00-0001-69.png
00000009,371,1,1449763532100,1449763532164,888,428,0,0,0,1,0,1,1,0004-00-0001-79.png,0005-00-0001-81.png
00000009,372,0,1449763533252,1449763533300,884,441,0,0,0,0,1,1,1,0005-00-0001-85.png,0004-00-0001-95.png
00000009,373,0,1449763536721,1449763537640,474,253,0,0,0,4,3,1,7,0001-00-0000-50.png,0002-00-0000-46.png
00000009,374,0,1449763540690,1449763540759,913,306,0,0,0,3,4,1,7,0002-00-0000-43.png,0001-00-0000-59.png
00000009,375,0,1449763544076,1449763544112,909,308,0,0,0,2,3,1,5,0003-00-0001-31.png,0002-00-0000-59.png
00000009,376,1,1449763546955,1449763546987,875,358,0,0,0,3,2,1,5,0002-00-0001-28.png,0003-00-0000-61.png
00000009,377,0,1449763547921,1449763548702,913,395,0,0,0,3,4,1,7,0002-00-0001-17.png,0001-00-0000-03.png
00000009,378,1,1449763551856,1449763551880,885,296,0,0,0,1,0,1,1,0004-00-0001-64.png,0005-00-0000-20.png
00000009,379,0,1449763552868,1449763553910,939,270,0,0,0,1,2,1,3,0004-00-0001-51.png,0003-00-0000-28.png
00000009,380,1,1449763556975,1449763557058,880,226,0,0,0,4,3,1,7,0001-00-0001-31.png,0002-00-0001-51.png
00000009,381,1,1449763558005,1449763558804,484,257,0,0,0,2,3,1,5,0003-00-0000-68.png,0002-00-0001-23.png
00000009,382,1,1449763559747,1449763560605,927,383,0,0,0,3,2,1,5,0002-00-0000-16.png,0003-00-0000-15.png
00000009,383,0,1449763561595,1449763561678,880,447,0,0,0,0,1,1,1,0005-00-0001-54.png,0004-00-0001-80.png
00000009,384,0,1449763564522,1449763565269,453,395,0,0,0,2,1,1,3,0003-00-0000-74.png,0004-00-0000-40.png
00000009,385,1,1449763568863,1449763569400,939,358,0,0,0,1,0,1,1,0004-00-0000-89.png,0005-00-0000-17.png
00000009,386,1,1449763570247,1449763571031,502,267,0,0,0,0,1,1,1,0005-00-0001-53.png,0004-00-0001-47.png
00000009,387,0,1449763571888,1449763572765,492,265,0,0,0,2,1,1,3,0003-00-0000-07.png,0004-00-0000-80.png
00000009,388,1,1449763575767,1449763575946,874,410,0,0,0,4,3,1,7,0001-00-0001-28.png,0002-00-0000-95.png
00000009,389,1,1449763576916,1449763577860,484,275,0,0,0,2,3,1,5,0003-00-0001-89.png,0002-00-0000-57.png
00000009,390,1,1449763578807,1449763579869,485,262,0,0,0,3,4,1,7,0002-00-0000-33.png,0001-00-0001-34.png
00000009,391,0,1449763580784,1449763581725,1013,255,0,0,0,1,2,1,3,0004-00-0000-73.png,0003-00-0001-26.png
00000009,392,1,1449763584805,1449763584829,864,304,0,0,0,3,2,1,5,0002-00-0001-97.png,0003-00-0001-56.png
00000009,393,1,1449763585742,1449763586633,490,245,0,0,0,2,3,1,5,0003-00-0000-50.png,0002-00-0000-75.png
00000009,394,0,1449763587517,1449763588422,917,391,0,0,0,1,2,1,3,0004-00-0000-79.png,0003-00-0001-21.png
00000009,395,1,1449763591453,1449763592085,500,264,0,0,0,3,4,1,7,0002-00-0001-05.png,0001-00-0000-11.png
00000009,396,1,1449763592920,1449763593843,1016,279,0,0,0,2,1,1,3,0003-00-0000-29.png,0004-00-0000-69.png
00000009,397,0,1449763594792,1449763594880,862,462,0,0,0,0,1,1,1,0005-00-0000-37.png,0004-00-0000-75.png
00000009,398,1,1449763597975,1449763598498,939,384,0,0,0,1,0,1,1,0004-00-0000-79.png,0005-00-0001-67.png
00000009,399,1,1449763599416,1449763599496,868,520,0,0,0,4,3,1,7,0001-00-0000-51.png,0002-00-0000-77.png
00000009,400,1,1449763600497,1449763601412,917,337,0,0,0,3,2,1,5,0002-00-0001-79.png,0003-00-0000-36.png
00000009,401,1,1449763602275,1449763603024,925,328,0,0,0,4,3,1,7,0001-00-0000-86.png,0002-00-0001-55.png
00000009,402,1,1449763604007,1449763604857,514,254,0,0,0,1,2,1,3,0004-00-0001-10.png,0003-00-0000-42.png
00000009,403,1,1449763605703,1449763606698,939,306,0,0,0,2,1,1,3,0003-00-0001-93.png,0004-00-0000-43.png
00000009,404,1,1449763607622,1449763607689,899,436,0,0,0,1,0,1,1,0004-00-0000-50.png,0005-00-0000-55.png
00000009,405,1,1449763608794,1449763608866,862,506,0,0,0,3,2,1,5,0002-00-0000-59.png,0003-00-0001-61.png
00000009,406,1,1449763609969,1449763611064,511,253,0,0,0,2,3,1,5,0003-00-0000-15.png,0002-00-0001-95.png
00000009,407,0,1449763611934,1449763612592,913,320,0,0,0,0,1,1,1,0005-00-0000-43.png,0004-00-0000-41.png
00000009,408,0,1449763615572,1449763616141,913,457,0,0,0,3,4,1,7,0002-00-0000-45.png,0001-00-0001-35.png
00000009,409,0,1449763619201,1449763619776,508,302,0,0,0,2,1,1,3,0003-00-0000-77.png,0004-00-0000-83.png
00000009,410,1,1449763622964,1449763623060,898,265,0,0,0,4,3,1,7,0001-00-0000-13.png,0002-00-0001-22.png
00000009,411,0,1449763624028,1449763625119,913,306,0,0,0,1,2,1,3,0004-00-0000-80.png,0003-00-0000-11.png
00000009,412,0,1449763627993,1449763628581,1042,280,0,0,0,3,4,1,7,0002-00-0000-62.png,0001-00-0001-25.png
00000009,413,1,1449763631712,1449763632702,456,445,0,0,0,2,3,1,5,0003-00-0001-56.png,0002-00-0001-82.png
00000009,414,0,1449763633589,1449763634282,502,275,0,0,0,3,2,1,5,0002-00-0001-01.png,0003-00-0000-97.png
00000009,415,0,1449763637207,1449763637787,1145,380,0,0,0,0,1,1,1,0005-00-0001-08.png,0004-00-0001-95.png
00000009,416,1,1449763640735,1449763641279,932,382,0,0,0,1,0,1,1,0004-00-0000-83.png,0005-00-0001-53.png
00000009,417,1,1449763642137,1449763642834,939,346,0,0,0,1,0,1,1,0004-00-0001-94.png,0005-00-0000-85.png
00000009,418,1,1449763643693,1449763643785,866,420,0,0,0,4,3,1,7,0001-00-0000-82.png,0002-00-0000-45.png
00000009,419,0,1449763644890,1449763644963,864,465,0,0,0,3,4,1,7,0002-00-0000-73.png,0001-00-0001-41.png
00000009,420,1,1449763648029,1449763648561,494,261,0,0,0,1,2,1,3,0004-00-0001-99.png,0003-00-0000-13.png
00000009,421,0,1449763649453,1449763650218,888,317,0,0,0,0,1,1,1,0005-00-0001-13.png,0004-00-0001-64.png
00000009,422,0,1449763653296,1449763653873,478,262,0,0,0,3,2,1,5,0002-00-0000-50.png,0003-00-0000-31.png
00000009,423,1,1449763656825,1449763657515,930,384,0,0,0,2,1,1,3,0003-00-0000-86.png,0004-00-0000-18.png
00000009,424,1,1449763658351,1449763659406,486,244,0,0,0,2,3,1,5,0003-00-0000-79.png,0002-00-0000-70.png
00000009,425,1,1449763660290,1449763660954,964,262,0,0,0,2,1,1,3,0003-00-0001-82.png,0004-00-0001-77.png
00000009,426,1,1449763661932,1449763662959,959,390,0,0,0,4,3,1,7,0001-00-0000-18.png,0002-00-0000-71.png
00000009,427,1,1449763663990,1449763664671,489,251,0,0,0,0,1,1,1,0005-00-0000-41.png,0004-00-0000-09.png
00000009,428,1,1449763665600,1449763666251,939,367,0,0,0,1,0,1,1,0004-00-0000-14.png,0005-00-0001-82.png
00000009,429,0,1449763667159,1449763667238,879,453,0,0,0,3,4,1,7,0002-00-0000-91.png,0001-00-0001-29.png
00000009,430,1,1449763670217,1449763670983,939,375,0,0,0,3,2,1,5,0002-00-0001-95.png,0003-00-0000-46.png
00000009,431,1,1449763671913,1449763672573,418,314,0,0,0,2,3,1,5,0003-00-0001-82.png,0002-00-0001-37.png
00000009,432,1,1449763673529,1449763674440,472,275,0,0,0,1,2,1,3,0004-00-0001-28.png,0003-00-0000-83.png
00000009,433,0,1449763675296,1449763675993,939,349,0,0,0,0,1,1,1,0005-00-0001-37.png,0004-00-0000-12.png
00000009,434,1,1449763679042,1449763679154,900,279,0,0,0,1,0,1,1,0004-00-0000-23.png,0005-00-0000-63.png
00000009,435,1,1449763680106,1449763680877,493,233,0,0,0,1,2,1,3,0004-00-0001-38.png,0003-00-0000-57.png
00000009,436,0,1449763681776,1449763682701,1005,285,0,0,0,3,4,1,7,0002-00-0000-70.png,0001-00-0001-79.png
00000009,437,1,1449763685768,1449763686445,514,252,0,0,0,2,3,1,5,0003-00-0001-88.png,0002-00-0001-49.png
00000009,438,1,1449763687271,1449763687335,862,447,0,0,0,3,2,1,5,0002-00-0001-66.png,0003-00-0000-20.png
00000009,439,1,1449763688263,1449763689054,989,273,0,0,0,4,3,1,7,0001-00-0001-67.png,0002-00-0000-83.png
00000009,440,1,1449763690063,1449763690107,888,474,0,0,0,2,1,1,3,0003-00-0001-22.png,0004-00-0001-71.png
00000009,441,1,1449763691245,1449763692316,510,271,0,0,0,3,4,1,7,0002-00-0000-41.png,0001-00-0000-63.png
00000009,442,0,1449763693191,1449763694331,920,322,0,0,0,2,3,1,5,0003-00-0000-10.png,0002-00-0000-24.png
00000009,443,1,1449763697325,1449763697525,913,424,0,0,0,3,2,1,5,0002-00-0001-48.png,0003-00-0001-01.png
00000009,444,1,1449763698530,1449763699473,495,253,0,0,0,1,2,1,3,0004-00-0000-80.png,0003-00-0000-12.png
00000009,445,1,1449763700367,1449763701072,897,384,0,0,0,2,1,1,3,0003-00-0001-06.png,0004-00-0001-97.png
00000009,446,1,1449763702058,1449763702102,884,438,0,0,0,4,3,1,7,0001-00-0001-44.png,0002-00-0000-16.png
00000009,447,0,1449763703140,1449763703220,879,494,0,0,0,0,1,1,1,0005-00-0000-23.png,0004-00-0001-02.png
00000009,448,1,1449763706307,1449763706867,938,361,0,0,0,1,0,1,1,0004-00-0001-99.png,0005-00-0001-58.png
00000009,449,1,1449763707706,1449763708314,496,260,0,0,0,0,1,1,1,0005-00-0001-34.png,0004-00-0001-87.png
00000009,450,1,1449763709728,1449763710510,897,339,0,0,0,2,1,1,3,0003-00-0000-18.png,0004-00-0000-20.png
00000009,451,1,1449763711396,1449763711436,864,440,0,0,0,4,3,1,7,0001-00-0001-01.png,0002-00-0000-54.png
00000009,452,1,1449763712491,1449763713473,510,260,0,0,0,2,3,1,5,0003-00-0000-78.png,0002-00-0001-24.png
00000009,453,0,1449763714926,1449763714961,861,459,0,0,0,1,2,1,3,0004-00-0000-01.png,0003-00-0000-74.png
00000009,454,0,1449763717907,1449763718472,917,374,0,0,0,3,4,1,7,0002-00-0000-25.png,0001-00-0000-57.png
00000009,455,1,1449763721454,1449763721494,859,322,0,0,0,1,0,1,1,0004-00-0001-37.png,0005-00-0001-18.png
00000009,456,0,1449763722446,1449763723330,406,377,0,0,0,3,2,1,5,0002-00-0001-08.png,0003-00-0001-97.png
00000009,457,0,1449763726212,1449763726240,888,410,0,0,0,1,2,1,3,0004-00-0000-52.png,0003-00-0001-18.png
00000009,458,0,1449763729090,1449763729817,489,255,0,0,0,3,2,1,5,0002-00-0001-99.png,0003-00-0000-55.png
00000009,459,0,1449763732713,1449763732761,925,381,0,0,0,0,1,1,1,0005-00-0001-30.png,0004-00-0001-02.png
00000009,460,1,1449763735608,1449763736161,1032,267,0,0,0,4,3,1,7,0001-00-0000-53.png,0002-00-0000-42.png
00000009,461,0,1449763737043,1449763737216,866,520,0,0,0,2,3,1,5,0003-00-0000-56.png,0002-00-0001-07.png
00000009,462,1,1449763740770,1449763741365,1016,293,0,0,0,1,0,1,1,0004-00-0001-19.png,0005-00-0001-84.png
00000009,463,1,1449763742208,1449763742935,913,347,0,0,0,2,1,1,3,0003-00-0001-83.png,0004-00-0000-34.png
00000009,464,0,1449763743901,1449763743953,893,450,0,0,0,3,4,1,7,0002-00-0000-86.png,0001-00-0000-62.png
00000009,465,0,1449763747061,1449763747101,901,358,0,0,0,3,4,1,7,0002-00-0001-77.png,0001-00-0000-76.png
00000009,466,1,1449763750134,1449763750154,883,333,0,0,0,3,2,1,5,0002-00-0000-95.png,0003-00-0001-78.png
00000009,467,0,1449763751080,1449763751940,512,243,0,0,0,2,1,1,3,0003-00-0000-51.png,0004-00-0001-76.png
00000009,468,0,1449763754823,1449763755366,939,279,0,0,0,0,1,1,1,0005-00-0000-33.png,0004-00-0000-85.png
00000009,469,1,1449763758393,1449763759169,457,273,0,0,0,2,3,1,5,0003-00-0000-77.png,0002-00-0000-02.png
00000009,470,1,1449763760066,1449763761026,913,374,0,0,0,1,0,1,1,0004-00-0000-66.png,0005-00-0000-31.png
00000009,471,0,1449763761892,1449763761930,882,439,0,0,0,1,2,1,3,0004-00-0000-34.png,0003-00-0000-18.png
00000009,472,1,1449763764933,1449763765541,964,335,0,0,0,4,3,1,7,0001-00-0000-64.png,0002-00-0001-63.png
00000009,473,0,1449763766440,1449763766539,874,475,0,0,0,2,3,1,5,0003-00-0000-02.png,0002-00-0000-18.png
00000009,474,1,1449763769603,1449763770094,951,279,0,0,0,1,0,1,1,0004-00-0001-38.png,0005-00-0000-43.png
00000009,475,0,1449763770949,1449763771021,858,443,0,0,0,3,4,1,7,0002-00-0001-30.png,0001-00-0001-75.png
00000009,476,1,1449763773861,1449763774688,939,393,0,0,0,3,2,1,5,0002-00-0001-55.png,0003-00-0000-14.png
00000009,477,0,1449763775543,1449763775693,892,509,0,0,0,1,2,1,3,0004-00-0000-55.png,0003-00-0000-60.png
00000009,478,1,1449763778605,1449763779178,913,332,0,0,0,2,1,1,3,0003-00-0001-18.png,0004-00-0001-97.png
00000009,479,0,1449763780067,1449763780202,864,538,0,0,0,0,1,1,1,0005-00-0001-69.png,0004-00-0000-03.png
00000009,480,0,1449763783046,1449763783629,488,286,0,0,0,4,3,1,7,0001-00-0000-73.png,0002-00-0000-04.png
00000009,481,1,1449763786721,1449763786783,988,293,0,0,0,2,1,1,3,0003-00-0000-63.png,0004-00-0001-63.png
00000009,482,0,1449763787700,1449763788332,1011,261,0,0,0,0,1,1,1,0005-00-0000-99.png,0004-00-0001-71.png
00000009,483,0,1449763791393,1449763792081,504,261,0,0,0,4,3,1,7,0001-00-0000-92.png,0002-00-0000-79.png
00000009,484,0,1449763795100,1449763795658,1041,270,0,0,0,1,2,1,3,0004-00-0000-68.png,0003-00-0000-73.png
00000009,485,1,1449763798679,1449763798739,906,329,0,0,0,1,0,1,1,0004-00-0000-07.png,0005-00-0001-09.png
00000009,486,1,1449763799752,1449763799878,884,538,0,0,0,3,2,1,5,0002-00-0001-01.png,0003-00-0001-64.png
00000009,487,0,1449763800904,1449763801022,862,488,0,0,0,2,3,1,5,0003-00-0001-25.png,0002-00-0000-42.png
00000009,488,1,1449763804115,1449763804780,518,267,0,0,0,3,4,1,7,0002-00-0001-00.png,0001-00-0001-25.png
00000009,489,1,1449763805629,1449763805798,865,498,0,0,0,1,0,1,1,0004-00-0000-35.png,0005-00-0000-56.png
00000009,490,0,1449763806894,1449763808166,504,262,0,0,0,2,1,1,3,0003-00-0001-88.png,0004-00-0001-09.png
00000009,491,0,1449763811279,1449763811860,939,374,0,0,0,0,1,1,1,0005-00-0001-74.png,0004-00-0000-56.png
00000009,492,1,1449763815026,1449763815555,913,293,0,0,0,3,2,1,5,0002-00-0000-70.png,0003-00-0001-77.png
00000009,493,1,1449763816497,1449763817968,510,250,0,0,0,3,4,1,7,0002-00-0000-52.png,0001-00-0000-66.png
00000009,494,0,1449763818850,1449763819681,929,385,0,0,0,1,2,1,3,0004-00-0001-78.png,0003-00-0001-95.png
00000009,495,1,1449763822726,1449763823379,913,332,0,0,0,4,3,1,7,0001-00-0000-11.png,0002-00-0000-87.png
00000009,496,1,1449763824348,1449763825196,480,242,0,0,0,2,3,1,5,0003-00-0001-85.png,0002-00-0001-62.png
00000009,497,0,1449763826101,1449763826810,913,415,0,0,0,1,2,1,3,0004-00-0001-76.png,0003-00-0000-08.png
00000009,498,1,1449763829879,1449763830475,401,343,0,0,0,3,4,1,7,0002-00-0000-49.png,0001-00-0000-75.png
00000009,499,1,1449763831399,1449763832074,913,374,0,0,0,1,0,1,1,0004-00-0000-71.png,0005-00-0000-24.png
00000009,500,0,1449763832962,1449763833073,861,504,0,0,0,2,3,1,5,0003-00-0001-96.png,0002-00-0000-12.png
00000009,501,0,1449763835990,1449763836514,508,288,0,0,0,2,1,1,3,0003-00-0001-28.png,0004-00-0000-38.png
00000009,502,1,1449763839648,1449763839672,862,315,0,0,0,3,2,1,5,0002-00-0000-74.png,0003-00-0000-18.png
00000009,503,1,1449763840593,1449763841283,484,244,0,0,0,0,1,1,1,0005-00-0000-52.png,0004-00-0000-55.png
00000009,504,1,1449763842139,1449763842863,939,389,0,0,0,4,3,1,7,0001-00-0000-58.png,0002-00-0000-65.png
00000009,505,1,1449763843812,1449763844683,1118,358,0,0,0,3,2,1,5,0002-00-0001-90.png,0003-00-0000-86.png
00000009,506,0,1449763845539,1449763845592,872,416,0,0,0,2,3,1,5,0003-00-0001-97.png,0002-00-0000-12.png
00000009,507,1,1449763848523,1449763849127,492,277,0,0,0,1,2,1,3,0004-00-0001-08.png,0003-00-0001-86.png
00000009,508,1,1449763849981,1449763850634,998,260,0,0,0,2,1,1,3,0003-00-0001-30.png,0004-00-0000-92.png
00000009,509,1,1449763851600,1449763851632,862,412,0,0,0,4,3,1,7,0001-00-0001-14.png,0002-00-0000-64.png
00000009,510,1,1449763852745,1449763852846,862,488,0,0,0,1,0,1,1,0004-00-0001-74.png,0005-00-0000-81.png
00000009,511,0,1449763854021,1449763854104,865,516,0,0,0,3,4,1,7,0002-00-0000-87.png,0001-00-0000-57.png
00000009,512,1,1449763857533,1449763858225,513,281,0,0,0,0,1,1,1,0005-00-0001-67.png,0004-00-0001-47.png
00000009,513,0,1449763859692,1449763859893,891,540,0,0,0,3,4,1,7,0002-00-0001-16.png,0001-00-0001-65.png
00000009,514,1,1449763863070,1449763863776,444,339,0,0,0,2,3,1,5,0003-00-0000-38.png,0002-00-0000-89.png
00000009,515,1,1449763864722,1449763865362,1018,263,0,0,0,2,1,1,3,0003-00-0000-98.png,0004-00-0001-02.png
00000009,516,1,1449763866227,1449763866298,866,449,0,0,0,1,0,1,1,0004-00-0000-72.png,0005-00-0001-80.png
00000009,517,1,1449763867352,1449763868233,512,280,0,0,0,1,2,1,3,0004-00-0001-25.png,0003-00-0000-02.png
00000009,518,0,1449763869361,1449763870466,493,285,0,0,0,3,2,1,5,0002-00-0000-55.png,0003-00-0000-53.png
00000009,519,1,1449763873592,1449763874169,1016,262,0,0,0,4,3,1,7,0001-00-0001-25.png,0002-00-0000-81.png
00000009,520,0,1449763875054,1449763875840,1016,265,0,0,0,0,1,1,1,0005-00-0000-77.png,0004-00-0000-33.png
00000009,521,1,1449763878819,1449763878895,862,358,0,0,0,2,1,1,3,0003-00-0000-49.png,0004-00-0001-45.png
00000009,522,1,1449763879927,1449763880790,395,360,0,0,0,2,3,1,5,0003-00-0000-61.png,0002-00-0001-23.png
00000009,523,1,1449763881651,1449763882586,928,305,0,0,0,4,3,1,7,0001-00-0001-98.png,0002-00-0001-76.png
00000009,524,1,1449763883571,1449763883591,860,412,0,0,0,1,0,1,1,0004-00-0000-10.png,0005-00-0000-76.png
00000009,525,0,1449763884706,1449763884786,866,447,0,0,0,3,4,1,7,0002-00-0000-99.png,0001-00-0001-90.png
00000009,526,1,1449763887901,1449763888478,468,410,0,0,0,1,2,1,3,0004-00-0001-68.png,0003-00-0001-65.png
00000009,527,1,1449763889373,1449763890009,483,252,0,0,0,0,1,1,1,0005-00-0001-90.png,0004-00-0000-97.png
00000009,528,0,1449763890840,1449763891912,521,257,0,0,0,3,2,1,5,0002-00-0001-32.png,0003-00-0001-26.png
00000009,529,1,1449763894747,1449763895557,913,306,0,0,0,3,2,1,5,0002-00-0000-50.png,0003-00-0001-46.png
00000009,530,1,1449763896439,1449763896511,859,419,0,0,0,2,1,1,3,0003-00-0000-41.png,0004-00-0000-77.png
00000009,531,1,1449763897488,1449763898267,394,339,0,0,0,3,4,1,7,0002-00-0000-81.png,0001-00-0000-08.png
00000009,532,1,1449763899201,1449763899878,1008,286,0,0,0,1,0,1,1,0004-00-0001-26.png,0005-00-0001-70.png
00000009,533,0,1449763900697,1449763901571,516,226,0,0,0,4,3,1,7,0001-00-0001-30.png,0002-00-0000-32.png
00000009,534,0,1449763904499,1449763904535,876,371,0,0,0,1,2,1,3,0004-00-0001-61.png,0003-00-0001-56.png
00000009,535,0,1449763907708,1449763908279,915,307,0,0,0,0,1,1,1,0005-00-0001-71.png,0004-00-0001-07.png
00000009,536,1,1449763911194,1449763912231,417,346,0,0,0,2,3,1,5,0003-00-0001-18.png,0002-00-0001-92.png
00000009,537,1,1449763913117,1449763913267,866,504,0,0,0,1,0,1,1,0004-00-0000-97.png,0005-00-0001-64.png
00000009,538,1,1449763914406,1449763915200,476,237,0,0,0,1,2,1,3,0004-00-0001-52.png,0003-00-0000-65.png
00000009,539,0,1449763916097,1449763916862,912,310,0,0,0,2,3,1,5,0003-00-0001-30.png,0002-00-0001-30.png
00000009,540,1,1449763919941,1449763920527,1049,292,0,0,0,2,1,1,3,0003-00-0000-45.png,0004-00-0001-97.png
00000009,541,1,1449763921391,1449763922105,486,241,0,0,0,0,1,1,1,0005-00-0000-48.png,0004-00-0001-60.png
00000009,542,0,1449763922948,1449763924054,920,313,0,0,0,3,4,1,7,0002-00-0001-81.png,0001-00-0000-28.png
00000009,543,1,1449763927016,1449763927630,939,316,0,0,0,3,2,1,5,0002-00-0000-94.png,0003-00-0000-79.png
00000009,544,1,1449763928505,1449763928588,862,449,0,0,0,4,3,1,7,0001-00-0001-00.png,0002-00-0000-70.png
00000009,545,1,1449763929533,1449763930418,911,409,0,0,0,1,0,1,1,0004-00-0000-71.png,0005-00-0001-66.png
00000009,546,0,1449763931278,1449763931338,871,509,0,0,0,1,2,1,3,0004-00-0001-88.png,0003-00-0001-15.png
00000009,547,0,1449763934211,1449763934846,488,281,0,0,0,3,2,1,5,0002-00-0001-72.png,0003-00-0000-37.png
00000009,548,0,1449763937879,1449763938461,1007,253,0,0,0,0,1,1,1,0005-00-0000-11.png,0004-00-0000-35.png
00000009,549,1,1449763941334,1449763942078,939,319,0,0,0,4,3,1,7,0001-00-0000-35.png,0002-00-0001-57.png
00000009,550,0,1449763942987,1449763943103,859,505,0,0,0,2,3,1,5,0003-00-0000-10.png,0002-00-0001-61.png
00000009,551,1,1449763945958,1449763946660,913,359,0,0,0,2,1,1,3,0003-00-0000-36.png,0004-00-0000-12.png
00000009,552,0,1449763947596,1449763948750,938,324,0,0,0,3,4,1,7,0002-00-0001-81.png,0001-00-0000-77.png
00000009,553,1,1449763951743,1449763952314,939,358,0,0,0,2,1,1,3,0003-00-0000-50.png,0004-00-0000-82.png
00000009,554,0,1449763953191,1449763953329,872,520,0,0,0,2,3,1,5,0003-00-0000-24.png,0002-00-0001-96.png
00000009,555,1,1449763956488,1449763957346,949,429,0,0,0,3,2,1,5,0002-00-0001-36.png,0003-00-0000-37.png
00000009,556,1,1449763958217,1449763959094,480,228,0,0,0,0,1,1,1,0005-00-0000-91.png,0004-00-0000-61.png
00000009,557,1,1449763960596,1449763961488,1016,253,0,0,0,4,3,1,7,0001-00-0001-18.png,0002-00-0001-82.png
00000009,558,1,1449763962343,1449763962410,872,436,0,0,0,1,0,1,1,0004-00-0000-14.png,0005-00-0000-96.png
00000009,559,0,1449763963546,1449763963685,881,522,0,0,0,3,4,1,7,0002-00-0000-61.png,0001-00-0001-37.png
00000009,560,0,1449763966536,1449763967211,1041,306,0,0,0,1,2,1,3,0004-00-0001-54.png,0003-00-0001-42.png
00000009,561,1,1449763970323,1449763971086,517,254,0,0,0,3,4,1,7,0002-00-0000-01.png,0001-00-0001-01.png
00000009,562,0,1449763971964,1449763973043,939,332,0,0,0,2,3,1,5,0003-00-0001-36.png,0002-00-0000-47.png
00000009,563,1,1449763976195,1449763976815,933,370,0,0,0,1,0,1,1,0004-00-0001-49.png,0005-00-0001-15.png
00000009,564,1,1449763977636,1449763978364,491,238,0,0,0,1,2,1,3,0004-00-0001-33.png,0003-00-0001-36.png
00000009,565,1,1449763979226,1449763979972,490,239,0,0,0,0,1,1,1,0005-00-0000-03.png,0004-00-0001-03.png
00000009,566,0,1449763980824,1449763981794,510,252,0,0,0,4,3,1,7,0001-00-0001-24.png,0002-00-0000-27.png
00000009,567,1,1449763984683,1449763984743,862,380,0,0,0,3,2,1,5,0002-00-0000-17.png,0003-00-0000-53.png
00000009,568,1,1449763985698,1449763986305,1024,279,0,0,0,2,1,1,3,0003-00-0000-52.png,0004-00-0001-35.png
00000009,569,1,1449763987207,1449763987297,858,454,0,0,0,4,3,1,7,0001-00-0000-18.png,0002-00-0001-05.png
00000009,570,1,1449763988200,1449763989504,503,268,0,0,0,2,3,1,5,0003-00-0000-21.png,0002-00-0000-18.png
00000009,571,1,1449763990367,1449763991003,896,272,0,0,0,2,1,1,3,0003-00-0000-11.png,0004-00-0001-12.png
00000009,572,0,1449763992008,1449763992048,880,411,0,0,0,3,4,1,7,0002-00-0000-12.png,0001-00-0000-95.png
00000009,573,1,1449763995177,1449763995829,922,306,0,0,0,3,2,1,5,0002-00-0001-26.png,0003-00-0000-18.png
00000009,574,1,1449763996676,1449763997363,486,245,0,0,0,1,2,1,3,0004-00-0000-01.png,0003-00-0000-25.png
00000009,575,1,1449763998196,1449763999133,489,264,0,0,0,0,1,1,1,0005-00-0000-80.png,0004-00-0001-78.png
00000009,576,1,1449764000534,1449764001140,946,429,0,0,0,1,0,1,1,0004-00-0000-47.png,0005-00-0001-06.png
00000009,577,1,1449764002043,1449764002879,489,242,0,0,0,2,3,1,5,0003-00-0000-29.png,0002-00-0001-92.png
00000009,578,1,1449764003760,1449764004475,998,261,0,0,0,4,3,1,7,0001-00-0000-88.png,0002-00-0001-68.png
00000009,579,1,1449764005442,1449764005510,899,443,0,0,0,1,0,1,1,0004-00-0000-03.png,0005-00-0001-04.png
00000009,580,1,1449764006617,1449764006654,862,488,0,0,0,2,1,1,3,0003-00-0001-07.png,0004-00-0001-35.png
00000009,581,0,1449764007877,1449764007944,862,488,0,0,0,3,4,1,7,0002-00-0001-64.png,0001-00-0000-74.png
00000009,582,0,1449764011047,1449764011075,911,306,0,0,0,0,1,1,1,0005-00-0000-43.png,0004-00-0000-77.png
00000009,583,0,1449764014174,1449764014723,939,315,0,0,0,1,2,1,3,0004-00-0001-09.png,0003-00-0001-67.png
00000009,584,0,1449764017854,1449764018416,497,294,0,0,0,3,2,1,5,0002-00-0001-12.png,0003-00-0001-62.png
00000009,585,1,1449764021322,1449764021970,500,278,0,0,0,3,4,1,7,0002-00-0001-42.png,0001-00-0000-34.png
00000009,586,1,1449764022875,1449764023622,496,235,0,0,0,1,2,1,3,0004-00-0001-91.png,0003-00-0001-49.png
00000009,587,0,1449764024458,1449764025267,502,272,0,0,0,1,0,1,1,0004-00-0000-68.png,0005-00-0000-18.png
00000009,588,0,1449764028109,1449764028679,1016,268,0,0,0,2,3,1,5,0003-00-0001-03.png,0002-00-0000-65.png
00000009,589,1,1449764031639,1449764032230,1016,243,0,0,0,3,2,1,5,0002-00-0001-25.png,0003-00-0000-57.png
00000009,590,1,1449764033171,1449764033250,888,508,0,0,0,4,3,1,7,0001-00-0001-40.png,0002-00-0001-04.png
00000009,591,1,1449764034191,1449764034938,454,376,0,0,0,0,1,1,1,0005-00-0000-17.png,0004-00-0000-89.png
00000009,592,0,1449764036347,1449764037272,497,219,0,0,0,2,1,1,3,0003-00-0001-34.png,0004-00-0001-06.png
00000009,593,0,1449764040472,1449764041035,1016,266,0,0,0,1,2,1,3,0004-00-0001-27.png,0003-00-0000-85.png
00000009,594,1,1449764043920,1449764044489,500,285,0,0,0,0,1,1,1,0005-00-0000-44.png,0004-00-0001-56.png
00000009,595,1,1449764045337,1449764046150,997,262,0,0,0,1,0,1,1,0004-00-0001-29.png,0005-00-0001-25.png
00000009,596,0,1449764046980,1449764047020,868,440,0,0,0,2,3,1,5,0003-00-0001-24.png,0002-00-0000-87.png
00000009,597,1,1449764049940,1449764050745,934,383,0,0,0,4,3,1,7,0001-00-0000-41.png,0002-00-0001-02.png
00000009,598,1,1449764051672,1449764051829,865,530,0,0,0,2,1,1,3,0003-00-0001-16.png,0004-00-0001-77.png
00000009,599,1,1449764052856,1449764052944,871,436,0,0,0,3,2,1,5,0002-00-0001-33.png,0003-00-0001-69.png
00000009,600,0,1449764053978,1449764054026,872,494,0,0,0,3,4,1,7,0002-00-0001-23.png,0001-00-0000-51.png
00000009,601,1,1449764057039,1449764057623,475,268,0,0,0,0,1,1,1,0005-00-0001-42.png,0004-00-0000-36.png
00000009,602,1,1449764058470,1449764059374,414,378,0,0,0,1,2,1,3,0004-00-0001-80.png,0003-00-0000-44.png
00000009,603,1,1449764060279,1449764060893,1016,261,0,0,0,1,0,1,1,0004-00-0000-70.png,0005-00-0000-03.png
00000009,604,1,1449764061797,1449764061895,873,451,0,0,0,3,2,1,5,0002-00-0000-45.png,0003-00-0001-36.png
00000009,605,1,1449764062971,1449764063039,871,459,0,0,0,2,1,1,3,0003-00-0001-94.png,0004-00-0000-46.png
00000009,606,0,1449764064220,1449764064300,862,527,0,0,0,2,3,1,5,0003-00-0001-30.png,0002-00-0000-03.png
00000009,607,0,1449764067182,1449764067785,921,373,0,0,0,3,4,1,7,0002-00-0000-09.png,0001-00-0000-05.png
00000009,608,1,1449764070839,1449764071458,964,297,0,0,0,4,3,1,7,0001-00-0001-92.png,0002-00-0000-27.png
00000009,609,1,1449764072351,1449764073278,471,250,0,0,0,2,3,1,5,0003-00-0000-00.png,0002-00-0001-49.png
00000009,610,1,1449764074737,1449764074878,862,503,0,0,0,2,1,1,3,0003-00-0001-67.png,0004-00-0000-30.png
00000009,611,0,1449764075868,1449764075943,862,462,0,0,0,3,4,1,7,0002-00-0000-46.png,0001-00-0000-86.png
00000009,612,0,1449764078909,1449764079440,939,367,0,0,0,1,2,1,3,0004-00-0001-27.png,0003-00-0001-04.png
00000009,613,0,1449764082600,1449764083193,501,309,0,0,0,1,0,1,1,0004-00-0001-35.png,0005-00-0000-71.png
00000009,614,1,1449764086153,1449764086749,416,358,0,0,0,0,1,1,1,0005-00-0001-11.png,0004-00-0000-92.png
00000009,615,1,1449764087616,1449764088330,996,246,0,0,0,3,2,1,5,0002-00-0001-94.png,0003-00-0001-89.png
00000009,616,1,1449764089243,1449764089311,862,424,0,0,0,4,3,1,7,0001-00-0000-93.png,0002-00-0000-69.png
00000009,617,1,1449764090289,1449764091785,475,237,0,0,0,2,3,1,5,0003-00-0001-70.png,0002-00-0001-29.png
00000009,618,1,1449764092640,1449764093313,385,382,0,0,0,1,2,1,3,0004-00-0000-33.png,0003-00-0001-90.png
00000009,619,0,1449764094205,1449764094924,990,279,0,0,0,0,1,1,1,0005-00-0001-24.png,0004-00-0000-95.png
00000009,620,1,1449764098057,1449764098566,964,372,0,0,0,1,0,1,1,0004-00-0000-26.png,0005-00-0000-38.png
00000009,621,1,1449764099439,1449764100433,937,384,0,0,0,3,2,1,5,0002-00-0000-01.png,0003-00-0000-55.png
00000009,622,0,1449764101448,1449764101468,861,439,0,0,0,3,4,1,7,0002-00-0000-03.png,0001-00-0001-75.png
00000009,623,1,1449764104472,1449764104501,862,384,0,0,0,4,3,1,7,0001-00-0000-51.png,0002-00-0000-89.png
00000009,624,1,1449764105475,1449764106167,1007,247,0,0,0,2,1,1,3,0003-00-0001-59.png,0004-00-0000-53.png
00000009,625,1,1449764107055,1449764107111,867,405,0,0,0,1,0,1,1,0004-00-0001-04.png,0005-00-0001-86.png
00000009,626,1,1449764108284,1449764108406,862,514,0,0,0,4,3,1,7,0001-00-0000-92.png,0002-00-0001-16.png
00000009,627,0,1449764109468,1449764109556,876,502,0,0,0,1,2,1,3,0004-00-0001-85.png,0003-00-0000-86.png
00000009,628,1,1449764112536,1449764113316,449,400,0,0,0,3,4,1,7,0002-00-0000-91.png,0001-00-0000-63.png
00000009,629,0,1449764114186,1449764115368,413,344,0,0,0,3,2,1,5,0002-00-0000-52.png,0003-00-0000-68.png
00000009,630,0,1449764118238,1449764118274,881,411,0,0,0,0,1,1,1,0005-00-0000-54.png,0004-00-0000-72.png
00000009,631,0,1449764121227,1449764121792,1051,279,0,0,0,2,3,1,5,0003-00-0000-07.png,0002-00-0001-64.png
00000009,632,1,1449764124868,1449764125407,939,306,0,0,0,2,1,1,3,0003-00-0001-45.png,0004-00-0000-03.png
00000009,633,0,1449764126261,1449764127283,913,332,0,0,0,1,2,1,3,0004-00-0001-78.png,0003-00-0001-66.png
00000009,634,1,1449764130362,1449764130472,862,295,0,0,0,1,0,1,1,0004-00-0000-40.png,0005-00-0001-64.png
00000009,635,1,1449764131379,1449764132570,1008,298,0,0,0,3,2,1,5,0002-00-0001-47.png,0003-00-0000-53.png
00000009,636,0,1449764133493,1449764133573,865,441,0,0,0,0,1,1,1,0005-00-0001-34.png,0004-00-0000-67.png
00000009,637,1,1449764136399,1449764137098,939,373,0,0,0,4,3,1,7,0001-00-0000-91.png,0002-00-0000-27.png
00000009,638,0,1449764138018,1449764138105,868,467,0,0,0,2,3,1,5,0003-00-0001-32.png,0002-00-0001-32.png
00000009,639,0,1449764141425,1449764141937,485,269,0,0,0,2,1,1,3,0003-00-0000-25.png,0004-00-0000-14.png
00000009,640,0,1449764145060,1449764145088,943,329,0,0,0,3,4,1,7,0002-00-0000-54.png,0001-00-0000-24.png
00000009,641,1,1449764148212,1449764148728,957,315,0,0,0,2,1,1,3,0003-00-0001-81.png,0004-00-0001-45.png
00000009,642,1,1449764149612,1449764150563,480,242,0,0,0,2,3,1,5,0003-00-0000-29.png,0002-00-0001-29.png
00000009,643,1,1449764151550,1449764152341,897,279,0,0,0,1,0,1,1,0004-00-0000-25.png,0005-00-0001-57.png
00000009,644,1,1449764153600,1449764154611,912,387,0,0,0,3,2,1,5,0002-00-0001-23.png,0003-00-0000-34.png
00000009,645,1,1449764155524,1449764155635,877,462,0,0,0,4,3,1,7,0001-00-0000-04.png,0002-00-0000-38.png
00000009,646,0,1449764156600,1449764156685,862,488,0,0,0,0,1,1,1,0005-00-0001-63.png,0004-00-0001-08.png
00000009,647,0,1449764159668,1449764159717,888,343,0,0,0,3,4,1,7,0002-00-0001-11.png,0001-00-0000-96.png
00000009,648,1,1449764162709,1449764163255,478,264,0,0,0,1,2,1,3,0004-00-0000-42.png,0003-00-0000-99.png
00000009,649,1,1449764164109,1449764164894,501,238,0,0,0,2,3,1,5,0003-00-0001-11.png,0002-00-0001-50.png
00000009,650,1,1449764165737,1449764166475,447,410,0,0,0,1,2,1,3,0004-00-0001-62.png,0003-00-0000-09.png
00000009,651,1,1449764167361,1449764168339,517,260,0,0,0,0,1,1,1,0005-00-0001-52.png,0004-00-0001-80.png
00000009,652,0,1449764169272,1449764170425,924,325,0,0,0,3,4,1,7,0002-00-0001-67.png,0001-00-0000-12.png
00000009,653,0,1449764173583,1449764174401,448,426,0,0,0,3,2,1,5,0002-00-0000-45.png,0003-00-0001-26.png
00000009,654,1,1449764177416,1449764177987,945,378,0,0,0,1,0,1,1,0004-00-0000-45.png,0005-00-0000-55.png
00000009,655,1,1449764178889,1449764179699,1016,279,0,0,0,2,1,1,3,0003-00-0001-49.png,0004-00-0000-25.png
00000009,656,1,1449764180646,1449764180733,857,431,0,0,0,4,3,1,7,0001-00-0000-22.png,0002-00-0001-52.png
00000009,657,0,1449764181681,1449764181843,864,502,0,0,0,3,4,1,7,0002-00-0001-56.png,0001-00-0001-84.png
00000009,658,1,1449764184931,1449764185739,416,358,0,0,0,2,3,1,5,0003-00-0000-75.png,0002-00-0000-83.png
00000009,659,1,1449764186658,1449764187566,508,271,0,0,0,0,1,1,1,0005-00-0000-69.png,0004-00-0000-51.png
00000009,660,1,1449764189056,1449764190223,1037,332,0,0,0,4,3,1,7,0001-00-0001-06.png,0002-00-0000-99.png
00000009,661,1,1449764191161,1449764191193,882,390,0,0,0,2,1,1,3,0003-00-0001-62.png,0004-00-0000-38.png
00000009,662,0,1449764192206,1449764192297,862,488,0,0,0,1,2,1,3,0004-00-0001-75.png,0003-00-0001-89.png
00000009,663,1,1449764195475,1449764196097,939,306,0,0,0,3,2,1,5,0002-00-0000-84.png,0003-00-0001-26.png
00000009,664,1,1449764196953,1449764197040,871,441,0,0,0,1,0,1,1,0004-00-0001-32.png,0005-00-0001-46.png
00000009,665,1,1449764198026,1449764198089,862,446,0,0,0,1,0,1,1,0004-00-0000-97.png,0005-00-0001-15.png
00000009,666,0,1449764199201,1449764199316,878,525,0,0,0,0,1,1,1,0005-00-0000-06.png,0004-00-0001-24.png
00000009,667,1,1449764202389,1449764202601,868,364,0,0,0,4,3,1,7,0001-00-0000-73.png,0002-00-0000-39.png
00000009,668,1,1449764203541,1449764204386,415,371,0,0,0,2,3,1,5,0003-00-0000-46.png,0002-00-0000-79.png
00000009,669,1,1449764205836,1449764206416,933,304,0,0,0,3,2,1,5,0002-00-0000-09.png,0003-00-0001-98.png
00000009,670,0,1449764207348,1449764208814,979,253,0,0,0,3,4,1,7,0002-00-0000-70.png,0001-00-0001-65.png
00000009,671,0,1449764211830,1449764212310,964,358,0,0,0,1,2,1,3,0004-00-0000-82.png,0003-00-0000-08.png
00000009,672,1,1449764215449,1449764215981,1041,332,0,0,0,2,1,1,3,0003-00-0001-63.png,0004-00-0000-90.png
00000009,673,0,1449764216848,1449764216912,860,427,0,0,0,3,4,1,7,0002-00-0000-05.png,0001-00-0001-85.png
00000009,674,1,1449764219828,1449764220345,939,358,0,0,0,1,0,1,1,0004-00-0001-81.png,0005-00-0001-96.png
00000009,675,1,1449764221177,1449764221987,522,236,0,0,0,0,1,1,1,0005-00-0000-30.png,0004-00-0001-20.png
00000009,676,1,1449764223419,1449764224182,913,291,0,0,0,3,2,1,5,0002-00-0000-18.png,0003-00-0000-23.png
00000009,677,0,1449764225088,1449764225153,868,467,0,0,0,2,3,1,5,0003-00-0000-16.png,0002-00-0001-80.png
00000009,678,1,1449764228105,1449764228666,510,266,0,0,0,1,2,1,3,0004-00-0000-73.png,0003-00-0001-61.png
00000009,679,1,1449764229589,1449764230361,1016,265,0,0,0,2,1,1,3,0003-00-0001-09.png,0004-00-0000-39.png
00000009,680,1,1449764231744,1449764231940,914,544,0,0,0,4,3,1,7,0001-00-0000-66.png,0002-00-0001-32.png
00000009,681,1,1449764233158,1449764233203,859,425,0,0,0,1,0,1,1,0004-00-0000-92.png,0005-00-0001-88.png
00000009,682,0,1449764234132,1449764234180,862,446,0,0,0,1,2,1,3,0004-00-0001-56.png,0003-00-0000-18.png
00000009,683,1,1449764237054,1449764237630,513,279,0,0,0,2,3,1,5,0003-00-0000-21.png,0002-00-0001-56.png
00000009,684,0,1449764238528,1449764239330,964,372,0,0,0,0,1,1,1,0005-00-0000-87.png,0004-00-0000-32.png
00000009,685,1,1449764242462,1449764242519,891,332,0,0,0,2,1,1,3,0003-00-0001-57.png,0004-00-0001-60.png
00000009,686,1,1449764243472,1449764244516,1000,308,0,0,0,4,3,1,7,0001-00-0000-99.png,0002-00-0000-18.png
00000009,687,1,1449764245400,1449764245433,857,394,0,0,0,3,2,1,5,0002-00-0000-53.png,0003-00-0000-07.png
00000009,688,1,1449764246462,1449764247519,473,401,0,0,0,3,4,1,7,0002-00-0000-72.png,0001-00-0001-14.png
00000009,689,0,1449764248359,1449764249328,896,333,0,0,0,2,3,1,5,0003-00-0001-49.png,0002-00-0001-03.png
00000009,690,0,1449764252369,1449764253277,504,264,0,0,0,4,3,1,7,0001-00-0001-80.png,0002-00-0001-24.png
00000009,691,1,1449764256237,1449764256249,888,384,0,0,0,1,0,1,1,0004-00-0000-85.png,0005-00-0000-42.png
00000009,692,0,1449764257220,1449764257361,864,514,0,0,0,0,1,1,1,0005-00-0001-39.png,0004-00-0000-02.png
00000009,693,1,1449764260262,1449764260798,939,306,0,0,0,2,1,1,3,0003-00-0000-58.png,0004-00-0001-50.png
00000009,694,1,1449764261686,1449764262956,504,266,0,0,0,3,4,1,7,0002-00-0000-84.png,0001-00-0001-70.png
00000009,695,0,1449764263810,1449764265323,942,467,0,0,0,1,2,1,3,0004-00-0000-46.png,0003-00-0001-04.png
00000009,696,1,1449764268284,1449764268304,871,376,0,0,0,3,2,1,5,0002-00-0001-23.png,0003-00-0000-53.png
00000009,697,0,1449764269235,1449764269879,514,267,0,0,0,3,2,1,5,0002-00-0001-01.png,0003-00-0001-22.png
00000009,698,1,1449764272872,1449764273503,495,272,0,0,0,3,4,1,7,0002-00-0000-61.png,0001-00-0000-16.png
00000009,699,1,1449764274348,1449764275116,1012,242,0,0,0,4,3,1,7,0001-00-0000-69.png,0002-00-0000-04.png
00000009,700,1,1449764276011,1449764276071,862,414,0,0,0,2,1,1,3,0003-00-0000-30.png,0004-00-0000-60.png
00000009,701,0,1449764277089,1449764277152,876,436,0,0,0,2,3,1,5,0003-00-0001-28.png,0002-00-0001-37.png
00000009,702,1,1449764280247,1449764280818,913,394,0,0,0,1,0,1,1,0004-00-0001-05.png,0005-00-0000-48.png
00000009,703,1,1449764281664,1449764282450,491,228,0,0,0,0,1,1,1,0005-00-0000-16.png,0004-00-0001-88.png
00000009,704,1,1449764283297,1449764284121,508,244,0,0,0,1,2,1,3,0004-00-0001-50.png,0003-00-0000-43.png
00000009,705,1,1449764285016,1449764285845,939,375,0,0,0,1,0,1,1,0004-00-0000-39.png,0005-00-0000-68.png
00000009,706,0,1449764286752,1449764286865,888,462,0,0,0,1,2,1,3,0004-00-0000-73.png,0003-00-0000-90.png
00000009,707,1,1449764289917,1449764290451,939,321,0,0,0,2,1,1,3,0003-00-0000-03.png,0004-00-0000-33.png
00000009,708,1,1449764291326,1449764292044,518,245,0,0,0,2,3,1,5,0003-00-0001-22.png,0002-00-0000-35.png
00000009,709,1,1449764292933,1449764294400,939,317,0,0,0,3,2,1,5,0002-00-0001-32.png,0003-00-0001-79.png
00000009,710,1,1449764295318,1449764296624,453,266,0,0,0,3,4,1,7,0002-00-0001-84.png,0001-00-0000-52.png
00000009,711,1,1449764297547,1449764298827,496,260,0,0,0,0,1,1,1,0005-00-0001-71.png,0004-00-0000-90.png
00000009,712,1,1449764299756,1449764300992,916,323,0,0,0,4,3,1,7,0001-00-0000-80.png,0002-00-0001-19.png
00000009,713,1,1449764301981,1449764302803,939,374,0,0,0,1,0,1,1,0004-00-0001-31.png,0005-00-0000-32.png
00000009,714,0,1449764303668,1449764303706,862,394,0,0,0,3,4,1,7,0002-00-0000-38.png,0001-00-0001-02.png
00000009,715,1,1449764306563,1449764307161,1041,265,0,0,0,2,1,1,3,0003-00-0000-30.png,0004-00-0000-56.png
00000009,716,0,1449764308040,1449764309087,941,380,0,0,0,1,2,1,3,0004-00-0001-63.png,0003-00-0000-08.png
00000009,717,0,1449764312111,1449764312671,990,318,0,0,0,2,3,1,5,0003-00-0001-13.png,0002-00-0001-58.png
00000009,718,1,1449764315820,1449764316470,401,346,0,0,0,0,1,1,1,0005-00-0000-25.png,0004-00-0001-86.png
00000009,719,1,1449764317320,1449764317957,1016,239,0,0,0,4,3,1,7,0001-00-0000-85.png,0002-00-0001-84.png
00000009,720,1,1449764318941,1449764319003,875,460,0,0,0,3,2,1,5,0002-00-0001-10.png,0003-00-0001-03.png
00000009,721,1,1449764320040,1449764320984,1015,276,0,0,0,1,0,1,1,0004-00-0001-35.png,0005-00-0001-93.png
00000009,722,0,1449764321907,1449764321995,872,495,0,0,0,0,1,1,1,0005-00-0001-19.png,0004-00-0000-16.png
00000009,723,0,1449764324885,1449764325473,939,306,0,0,0,1,2,1,3,0004-00-0001-03.png,0003-00-0000-91.png
00000009,724,1,1449764328651,1449764329266,939,306,0,0,0,4,3,1,7,0001-00-0001-49.png,0002-00-0000-40.png
00000009,725,1,1449764330121,1449764331048,508,257,0,0,0,2,3,1,5,0003-00-0000-23.png,0002-00-0000-35.png
00000009,726,1,1449764331898,1449764332830,493,249,0,0,0,3,4,1,7,0002-00-0000-08.png,0001-00-0001-95.png
00000009,727,1,1449764333801,1449764334815,913,307,0,0,0,2,1,1,3,0003-00-0000-61.png,0004-00-0000-71.png
00000009,728,1,1449764335717,1449764335781,875,428,0,0,0,3,2,1,5,0002-00-0000-51.png,0003-00-0001-32.png
00000009,729,0,1449764336947,1449764337073,875,525,0,0,0,1,2,1,3,0004-00-0001-62.png,0003-00-0001-58.png
00000009,730,1,1449764340226,1449764340870,495,259,0,0,0,2,3,1,5,0003-00-0000-84.png,0002-00-0001-83.png
00000009,731,1,1449764341778,1449764342780,512,256,0,0,0,3,4,1,7,0002-00-0001-45.png,0001-00-0000-25.png
00000009,732,1,1449764343637,1449764344352,1016,253,0,0,0,1,0,1,1,0004-00-0001-19.png,0005-00-0001-42.png
00000009,733,0,1449764345286,1449764346057,513,262,0,0,0,2,1,1,3,0003-00-0001-99.png,0004-00-0001-53.png
00000009,734,1,1449764348942,1449764349561,1016,279,0,0,0,3,2,1,5,0002-00-0000-45.png,0003-00-0000-21.png
00000009,735,1,1449764350440,1449764350464,881,382,0,0,0,4,3,1,7,0001-00-0000-73.png,0002-00-0000-85.png
00000009,736,1,1449764351470,1449764352164,484,269,0,0,0,0,1,1,1,0005-00-0001-19.png,0004-00-0001-59.png
00000009,737,1,1449764353018,1449764353911,516,241,0,0,0,1,2,1,3,0004-00-0000-46.png,0003-00-0000-50.png
00000009,738,0,1449764354817,1449764355573,515,258,0,0,0,4,3,1,7,0001-00-0000-02.png,0002-00-0001-24.png
00000009,739,0,1449764358634,1449764359268,939,296,0,0,0,2,3,1,5,0003-00-0000-67.png,0002-00-0000-92.png
00000009,740,0,1449764362209,1449764362729,504,285,0,0,0,2,1,1,3,0003-00-0001-24.png,0004-00-0001-74.png
00000009,741,1,1449764365589,1449764366162,487,279,0,0,0,3,4,1,7,0002-00-0001-35.png,0001-00-0000-97.png
00000009,742,1,1449764367042,1449764367972,518,245,0,0,0,0,1,1,1,0005-00-0001-35.png,0004-00-0001-47.png
00000009,743,0,1449764368827,1449764370326,401,332,0,0,0,3,2,1,5,0002-00-0000-61.png,0003-00-0000-14.png
00000009,744,1,1449764373446,1449764374009,939,368,0,0,0,1,0,1,1,0004-00-0000-44.png,0005-00-0000-12.png
00000009,745,1,1449764374884,1449764375579,1016,238,0,0,0,1,0,1,1,0004-00-0000-21.png,0005-00-0001-56.png
00000009,746,1,1449764376513,1449764377462,510,242,0,0,0,3,4,1,7,0002-00-0001-92.png,0001-00-0000-87.png
00000009,747,0,1449764378379,1449764379326,919,318,0,0,0,2,3,1,5,0003-00-0001-31.png,0002-00-0000-98.png
00000009,748,1,1449764382352,1449764382834,1017,270,0,0,0,2,1,1,3,0003-00-0001-16.png,0004-00-0000-32.png
00000009,749,1,1449764384262,1449764385164,487,274,0,0,0,1,2,1,3,0004-00-0000-99.png,0003-00-0001-56.png
00000009,750,1,1449764386007,1449764386780,465,402,0,0,0,0,1,1,1,0005-00-0001-87.png,0004-00-0001-54.png
00000009,751,1,1449764388296,1449764388333,862,413,0,0,0,3,2,1,5,0002-00-0000-05.png,0003-00-0000-58.png
00000009,752,1,1449764389340,1449764389368,861,416,0,0,0,4,3,1,7,0001-00-0001-71.png,0002-00-0000-35.png
00000009,753,0,1449764390603,1449764390696,865,491,0,0,0,1,2,1,3,0004-00-0000-67.png,0003-00-0000-09.png
00000009,754,1,1449764393898,1449764394536,939,373,0,0,0,2,1,1,3,0003-00-0000-22.png,0004-00-0000-25.png
00000009,755,1,1449764395413,1449764396404,515,252,0,0,0,0,1,1,1,0005-00-0000-44.png,0004-00-0001-44.png
00000009,756,1,1449764397876,1449764398538,990,271,0,0,0,1,0,1,1,0004-00-0001-53.png,0005-00-0001-78.png
00000009,757,0,1449764399442,1449764399490,904,453,0,0,0,2,3,1,5,0003-00-0000-60.png,0002-00-0000-88.png
00000009,758,1,1449764402528,1449764403075,994,257,0,0,0,4,3,1,7,0001-00-0000-48.png,0002-00-0001-19.png
00000009,759,1,1449764403953,1449764404699,489,276,0,0,0,3,4,1,7,0002-00-0000-87.png,0001-00-0000-38.png
00000009,760,1,1449764405591,1449764406950,1016,279,0,0,0,3,2,1,5,0002-00-0001-67.png,0003-00-0000-39.png
00000009,761,1,1449764407871,1449764407915,870,480,0,0,0,3,2,1,5,0002-00-0001-15.png,0003-00-0001-33.png
00000009,762,1,1449764409013,1449764409101,876,496,0,0,0,1,0,1,1,0004-00-0001-17.png,0005-00-0001-80.png
00000009,763,1,1449764410364,1449764411271,516,257,0,0,0,2,3,1,5,0003-00-0000-23.png,0002-00-0001-41.png
00000009,764,1,1449764412162,1449764412881,515,265,0,0,0,0,1,1,1,0005-00-0000-45.png,0004-00-0001-04.png
00000009,765,0,1449764413816,1449764415103,938,311,0,0,0,1,2,1,3,0004-00-0001-11.png,0003-00-0001-18.png
00000009,766,1,1449764418116,1449764418677,499,273,0,0,0,3,4,1,7,0002-00-0000-40.png,0001-00-0001-84.png
00000009,767,1,1449764419536,1449764420478,913,370,0,0,0,2,1,1,3,0003-00-0001-93.png,0004-00-0001-47.png
00000009,768,1,1449764421372,1449764421492,888,488,0,0,0,4,3,1,7,0001-00-0001-67.png,0002-00-0000-96.png
00000009,769,1,1449764422479,1449764422499,865,461,0,0,0,2,1,1,3,0003-00-0001-36.png,0004-00-0001-75.png
00000009,770,1,1449764423694,1449764423741,860,497,0,0,0,3,2,1,5,0002-00-0000-94.png,0003-00-0001-20.png
00000009,771,1,1449764425208,1449764426221,990,279,0,0,0,4,3,1,7,0001-00-0000-10.png,0002-00-0000-41.png
00000009,772,0,1449764427109,1449764427157,885,427,0,0,0,0,1,1,1,0005-00-0001-48.png,0004-00-0000-49.png
00000009,773,1,1449764429999,1449764430624,496,261,0,0,0,3,4,1,7,0002-00-0001-10.png,0001-00-0001-72.png
00000009,774,1,1449764431492,1449764432172,1016,239,0,0,0,1,0,1,1,0004-00-0001-16.png,0005-00-0000-50.png
00000009,775,0,1449764433108,1449764433135,867,379,0,0,0,2,3,1,5,0003-00-0000-92.png,0002-00-0001-95.png
00000009,776,0,1449764436199,1449764436808,1010,257,0,0,0,1,2,1,3,0004-00-0000-46.png,0003-00-0001-33.png
00000009,777,0,1449764439906,1449764440457,1041,268,0,0,0,1,2,1,3,0004-00-0000-16.png,0003-00-0001-59.png
00000009,778,1,1449764443496,1449764444070,913,370,0,0,0,2,1,1,3,0003-00-0001-81.png,0004-00-0001-91.png
00000009,779,1,1449764444996,1449764445086,860,511,0,0,0,3,2,1,5,0002-00-0000-00.png,0003-00-0000-48.png
00000009,780,1,1449764446181,1449764446219,859,442,0,0,0,4,3,1,7,0001-00-0000-78.png,0002-00-0001-57.png
00000009,781,1,1449764447421,1449764448105,513,253,0,0,0,2,3,1,5,0003-00-0001-22.png,0002-00-0001-66.png
00000009,782,1,1449764449002,1449764449803,491,280,0,0,0,0,1,1,1,0005-00-0000-61.png,0004-00-0000-18.png
00000009,783,1,1449764451020,1449764451752,892,342,0,0,0,1,0,1,1,0004-00-0001-90.png,0005-00-0001-38.png
00000009,784,1,1449764452595,1449764453871,464,252,0,0,0,3,4,1,7,0002-00-0000-87.png,0001-00-0001-43.png
00000009,785,0,1449764454836,1449764455779,497,247,0,0,0,3,2,1,5,0002-00-0001-03.png,0003-00-0000-61.png
00000009,786,1,1449764458797,1449764459414,509,269,0,0,0,2,3,1,5,0003-00-0001-80.png,0002-00-0001-24.png
00000009,787,1,1449764460312,1449764461013,495,226,0,0,0,1,2,1,3,0004-00-0000-33.png,0003-00-0001-02.png
00000009,788,1,1449764461888,1449764462686,510,234,0,0,0,0,1,1,1,0005-00-0000-26.png,0004-00-0001-43.png
00000009,789,1,1449764463599,1449764464400,937,311,0,0,0,4,3,1,7,0001-00-0000-29.png,0002-00-0000-34.png
00000009,790,1,1449764465435,1449764466560,1009,325,0,0,0,1,0,1,1,0004-00-0001-18.png,0005-00-0000-37.png
00000009,791,0,1449764467517,1449764467545,908,388,0,0,0,3,4,1,7,0002-00-0000-54.png,0001-00-0000-00.png
00000009,792,0,1449764470455,1449764471102,504,265,0,0,0,2,1,1,3,0003-00-0000-42.png,0004-00-0001-14.png
00000009,793,1,1449764473963,1449764474588,453,410,0,0,0,0,1,1,1,0005-00-0000-39.png,0004-00-0000-87.png
00000009,794,1,1449764476032,1449764477059,913,315,0,0,0,3,2,1,5,0002-00-0000-19.png,0003-00-0001-82.png
00000009,795,1,1449764477987,1449764478745,423,334,0,0,0,1,2,1,3,0004-00-0000-35.png,0003-00-0000-00.png
00000009,796,1,1449764479602,1449764479685,862,449,0,0,0,4,3,1,7,0001-00-0000-78.png,0002-00-0000-39.png
00000009,797,0,1449764480823,1449764481780,491,269,0,0,0,2,1,1,3,0003-00-0000-91.png,0004-00-0001-63.png
00000009,798,1,1449764484962,1449764485488,939,389,0,0,0,1,0,1,1,0004-00-0000-98.png,0005-00-0001-44.png
00000009,799,0,1449764486304,1449764486344,877,421,0,0,0,2,3,1,5,0003-00-0000-59.png,0002-00-0000-64.png
00000009,800,1,1449764489207,1449764489901,508,260,0,0,0,3,4,1,7,0002-00-0000-04.png,0001-00-0001-05.png
00000009,801,1,1449764490798,1449764491509,432,422,0,0,0,0,1,1,1,0005-00-0001-92.png,0004-00-0000-97.png
00000009,802,1,1449764492350,1449764493347,449,403,0,0,0,3,4,1,7,0002-00-0001-48.png,0001-00-0000-96.png
00000009,803,0,1449764494252,1449764495293,387,344,0,0,0,3,2,1,5,0002-00-0000-28.png,0003-00-0001-07.png
00000009,804,1,1449764498305,1449764498895,1021,314,0,0,0,4,3,1,7,0001-00-0000-39.png,0002-00-0000-51.png
00000009,805,0,1449764499825,1449764499891,867,482,0,0,0,1,2,1,3,0004-00-0001-17.png,0003-00-0001-90.png
00000009,806,0,1449764502980,1449764503004,888,358,0,0,0,2,3,1,5,0003-00-0001-26.png,0002-00-0000-72.png
00000009,807,1,1449764506220,1449764506758,935,379,0,0,0,1,0,1,1,0004-00-0000-87.png,0005-00-0000-32.png
00000009,808,0,1449764507601,1449764508871,442,294,0,0,0,2,1,1,3,0003-00-0001-28.png,0004-00-0001-13.png
00000009,809,0,1449764511713,1449764512530,1035,285,0,0,0,1,2,1,3,0004-00-0000-03.png,0003-00-0001-28.png
00000009,810,1,1449764515669,1449764515689,863,347,0,0,0,2,1,1,3,0003-00-0000-73.png,0004-00-0000-77.png
00000009,811,0,1449764516680,1449764517377,511,255,0,0,0,4,3,1,7,0001-00-0001-30.png,0002-00-0000-92.png
00000009,812,1,1449764520306,1449764520913,457,420,0,0,0,0,1,1,1,0005-00-0001-11.png,0004-00-0000-81.png
00000009,813,1,1449764521766,1449764522775,999,253,0,0,0,3,2,1,5,0002-00-0000-01.png,0003-00-0001-27.png
00000009,814,0,1449764523618,1449764524631,930,377,0,0,0,2,3,1,5,0003-00-0001-26.png,0002-00-0001-80.png
00000009,815,0,1449764527677,1449764527716,872,370,0,0,0,3,4,1,7,0002-00-0000-89.png,0001-00-0000-62.png
00000009,816,1,1449764530850,1449764531376,964,319,0,0,0,1,0,1,1,0004-00-0000-56.png,0005-00-0000-77.png
00000009,817,1,1449764532248,1449764533093,520,233,0,0,0,1,2,1,3,0004-00-0001-08.png,0003-00-0001-52.png
00000009,818,1,1449764533951,1449764534773,939,294,0,0,0,1,0,1,1,0004-00-0001-61.png,0005-00-0000-49.png
00000009,819,1,1449764535704,1449764535795,882,480,0,0,0,3,2,1,5,0002-00-0001-29.png,0003-00-0001-90.png
00000009,820,1,1449764536823,1449764536925,862,514,0,0,0,2,1,1,3,0003-00-0001-18.png,0004-00-0000-81.png
00000009,821,1,1449764538100,1449764539063,491,277,0,0,0,2,3,1,5,0003-00-0000-62.png,0002-00-0000-82.png
00000009,822,1,1449764539997,1449764541137,931,311,0,0,0,4,3,1,7,0001-00-0000-83.png,0002-00-0000-01.png
00000009,823,0,1449764542142,1449764542257,884,519,0,0,0,0,1,1,1,0005-00-0000-69.png,0004-00-0001-89.png
00000009,824,1,1449764545361,1449764546201,502,267,0,0,0,3,4,1,7,0002-00-0001-83.png,0001-00-0001-95.png
00000009,825,1,1449764547089,1449764547823,508,234,0,0,0,0,1,1,1,0005-00-0001-47.png,0004-00-0001-78.png
00000009,826,1,1449764548716,1449764549468,1016,279,0,0,0,1,0,1,1,0004-00-0001-00.png,0005-00-0001-13.png
00000009,827,0,1449764550453,1449764551271,1016,264,0,0,0,1,2,1,3,0004-00-0001-97.png,0003-00-0000-08.png
00000009,828,0,1449764554200,1449764554773,1037,277,0,0,0,3,4,1,7,0002-00-0001-97.png,0001-00-0001-05.png
00000009,829,1,1449764557913,1449764558460,939,347,0,0,0,2,1,1,3,0003-00-0000-10.png,0004-00-0000-27.png
00000009,830,0,1449764559364,1449764559501,893,508,0,0,0,2,3,1,5,0003-00-0001-58.png,0002-00-0001-22.png
00000009,831,1,1449764562670,1449764562704,880,334,0,0,0,4,3,1,7,0001-00-0000-85.png,0002-00-0001-17.png
00000009,832,0,1449764563595,1449764564747,481,252,0,0,0,3,2,1,5,0002-00-0001-90.png,0003-00-0001-76.png
00000009,833,1,1449764567873,1449764568479,500,269,0,0,0,2,3,1,5,0003-00-0000-97.png,0002-00-0001-98.png
00000009,834,1,1449764569418,1449764570374,470,235,0,0,0,3,4,1,7,0002-00-0000-39.png,0001-00-0001-59.png
00000009,835,1,1449764571299,1449764572246,938,373,0,0,0,3,2,1,5,0002-00-0001-23.png,0003-00-0001-92.png
00000009,836,0,1449764573261,1449764574052,522,270,0,0,0,4,3,1,7,0001-00-0001-24.png,0002-00-0000-27.png
00000009,837,1,1449764577179,1449764577673,1018,265,0,0,0,1,0,1,1,0004-00-0001-24.png,0005-00-0000-71.png
00000009,838,1,1449764578522,1449764579326,996,279,0,0,0,2,1,1,3,0003-00-0001-27.png,0004-00-0001-14.png
00000009,839,0,1449764580250,1449764580328,876,428,0,0,0,0,1,1,1,0005-00-0001-18.png,0004-00-0000-28.png
00000009,840,0,1449764583473,1449764583558,881,296,0,0,0,1,2,1,3,0004-00-0001-59.png,0003-00-0000-92.png
00000009,841,1,1449764586519,1449764587085,915,276,0,0,0,4,3,1,7,0001-00-0001-91.png,0002-00-0000-16.png
00000009,842,1,1449764588001,1449764589145,491,242,0,0,0,3,4,1,7,0002-00-0000-41.png,0001-00-0001-20.png
00000009,843,1,1449764590020,1449764591353,435,401,0,0,0,2,3,1,5,0003-00-0000-53.png,0002-00-0001-03.png
00000009,844,1,1449764592320,1449764592996,919,373,0,0,0,1,0,1,1,0004-00-0000-48.png,0005-00-0001-47.png
00000009,845,0,1449764593903,1449764593956,896,413,0,0,0,1,2,1,3,0004-00-0001-21.png,0003-00-0001-01.png
00000009,846,0,1449764596927,1449764597450,927,401,0,0,0,0,1,1,1,0005-00-0001-47.png,0004-00-0001-83.png
00000009,847,1,1449764600326,1449764600377,869,376,0,0,0,2,1,1,3,0003-00-0001-59.png,0004-00-0001-05.png
00000009,848,1,1449764601309,1449764601381,857,471,0,0,0,3,2,1,5,0002-00-0000-36.png,0003-00-0001-57.png
00000009,849,0,1449764602386,1449764603310,489,278,0,0,0,3,2,1,5,0002-00-0000-48.png,0003-00-0000-25.png
00000009,850,0,1449764606357,1449764606393,868,314,0,0,0,1,2,1,3,0004-00-0001-53.png,0003-00-0001-98.png
00000009,851,0,1449764609341,1449764609913,1024,298,0,0,0,0,1,1,1,0005-00-0000-35.png,0004-00-0000-46.png
00000009,852,1,1449764612753,1449764613346,913,406,0,0,0,1,0,1,1,0004-00-0001-01.png,0005-00-0000-95.png
00000009,853,1,1449764614217,1449764614312,875,464,0,0,0,2,1,1,3,0003-00-0001-22.png,0004-00-0001-12.png
00000009,854,0,1449764615392,1449764615448,888,462,0,0,0,3,4,1,7,0002-00-0001-62.png,0001-00-0000-58.png
00000009,855,1,1449764618403,1449764619280,1040,281,0,0,0,4,3,1,7,0001-00-0000-62.png,0002-00-0000-38.png
00000009,856,1,1449764620140,1449764621685,488,251,0,0,0,2,3,1,5,0003-00-0001-55.png,0002-00-0000-60.png
00000009,857,1,1449764622528,1449764622596,862,436,0,0,0,1,0,1,1,0004-00-0001-86.png,0005-00-0001-09.png
00000009,858,1,1449764623779,1449764624521,413,436,0,0,0,1,2,1,3,0004-00-0000-04.png,0003-00-0000-59.png
00000009,859,0,1449764625358,1449764626275,913,375,0,0,0,2,3,1,5,0003-00-0001-86.png,0002-00-0001-64.png
00000009,860,0,1449764629146,1449764629718,927,358,0,0,0,0,1,1,1,0005-00-0000-82.png,0004-00-0000-09.png
00000009,861,1,1449764632878,1449764633425,501,272,0,0,0,3,4,1,7,0002-00-0001-11.png,0001-00-0000-76.png
00000009,862,1,1449764634304,1449764634364,862,449,0,0,0,4,3,1,7,0001-00-0001-38.png,0002-00-0000-48.png
00000009,863,1,1449764635276,1449764635348,862,462,0,0,0,2,1,1,3,0003-00-0000-30.png,0004-00-0001-59.png
00000009,864,0,1449764636453,1449764637749,469,267,0,0,0,3,2,1,5,0002-00-0001-72.png,0003-00-0000-92.png
00000009,865,1,1449764640713,1449764641265,469,272,0,0,0,1,2,1,3,0004-00-0001-91.png,0003-00-0001-14.png
00000009,866,1,1449764642125,1449764642848,910,376,0,0,0,1,0,1,1,0004-00-0001-21.png,0005-00-0001-46.png
00000009,867,0,1449764643774,1449764643850,891,488,0,0,0,2,3,1,5,0003-00-0001-74.png,0002-00-0000-74.png
00000009,868,1,1449764646836,1449764647382,468,286,0,0,0,3,4,1,7,0002-00-0000-40.png,0001-00-0000-09.png
00000009,869,0,1449764648232,1449764649338,964,349,0,0,0,0,1,1,1,0005-00-0001-01.png,0004-00-0000-10.png
00000009,870,1,1449764652426,1449764652995,964,320,0,0,0,2,1,1,3,0003-00-0000-20.png,0004-00-0000-28.png
00000009,871,1,1449764653927,1449764654028,884,506,0,0,0,3,2,1,5,0002-00-0000-61.png,0003-00-0000-04.png
00000009,872,1,1449764654972,1449764655853,913,318,0,0,0,4,3,1,7,0001-00-0001-03.png,0002-00-0000-24.png
00000009,873,0,1449764656825,1449764656909,914,500,0,0,0,3,4,1,7,0002-00-0000-60.png,0001-00-0001-63.png
00000009,874,1,1449764660033,1449764660885,964,319,0,0,0,4,3,1,7,0001-00-0000-59.png,0002-00-0001-31.png
00000009,875,0,1449764661843,1449764661943,867,479,0,0,0,1,2,1,3,0004-00-0000-74.png,0003-00-0001-87.png
00000009,876,1,1449764664957,1449764665455,1041,253,0,0,0,2,1,1,3,0003-00-0000-23.png,0004-00-0000-30.png
00000009,877,0,1449764666363,1449764666385,862,427,0,0,0,2,3,1,5,0003-00-0001-92.png,0002-00-0000-95.png
00000009,878,1,1449764669721,1449764670280,939,318,0,0,0,3,2,1,5,0002-00-0000-85.png,0003-00-0001-82.png
00000009,879,1,1449764671193,1449764671293,887,468,0,0,0,1,0,1,1,0004-00-0001-28.png,0005-00-0001-41.png
00000009,880,0,1449764672225,1449764672287,862,436,0,0,0,0,1,1,1,0005-00-0001-49.png,0004-00-0000-49.png
00000009,881,1,1449764675153,1449764676068,441,384,0,0,0,1,2,1,3,0004-00-0001-48.png,0003-00-0001-41.png
00000009,882,0,1449764676915,1449764677938,395,341,0,0,0,4,3,1,7,0001-00-0000-41.png,0002-00-0000-73.png
00000009,883,0,1449764680862,1449764681407,913,306,0,0,0,3,4,1,7,0002-00-0000-94.png,0001-00-0000-66.png
00000009,884,1,1449764684409,1449764685033,515,251,0,0,0,2,3,1,5,0003-00-0001-63.png,0002-00-0000-52.png
00000009,885,1,1449764685924,1449764687133,939,290,0,0,0,1,0,1,1,0004-00-0001-26.png,0005-00-0001-51.png
00000009,886,1,1449764688068,1449764688112,871,435,0,0,0,2,1,1,3,0003-00-0001-35.png,0004-00-0001-12.png
00000009,887,0,1449764689159,1449764690000,497,236,0,0,0,3,2,1,5,0002-00-0000-62.png,0003-00-0001-15.png
00000009,888,1,1449764692902,1449764693565,395,363,0,0,0,0,1,1,1,0005-00-0001-12.png,0004-00-0001-93.png
00000009,889,0,1449764694444,1449764695149,1014,246,0,0,0,2,3,1,5,0003-00-0001-54.png,0002-00-0001-45.png
00000009,890,1,1449764698324,1449764698913,913,322,0,0,0,4,3,1,7,0001-00-0000-42.png,0002-00-0001-61.png
00000009,891,0,1449764699865,1449764699905,872,458,0,0,0,3,4,1,7,0002-00-0001-81.png,0001-00-0000-92.png
00000009,892,0,1449764702740,1449764703447,471,275,0,0,0,2,1,1,3,0003-00-0001-62.png,0004-00-0000-59.png
00000009,893,0,1449764706598,1449764706641,887,293,0,0,0,0,1,1,1,0005-00-0000-86.png,0004-00-0000-86.png
00000009,894,1,1449764715821,1449764715942,857,278,0,0,0,1,0,1,1,0004-00-0001-46.png,0005-00-0000-74.png
00000009,895,1,1449764717004,1449764717586,438,447,0,0,0,1,2,1,3,0004-00-0000-53.png,0003-00-0000-43.png
00000009,896,0,1449764718436,1449764719198,468,418,0,0,0,3,2,1,5,0002-00-0000-09.png,0003-00-0000-60.png
00000009,897,0,1449764722355,1449764722817,1018,255,0,0,0,1,2,1,3,0004-00-0001-43.png,0003-00-0000-16.png
00000009,898,1,1449764725988,1449764726593,1048,308,0,0,0,3,2,1,5,0002-00-0001-59.png,0003-00-0000-32.png
00000009,899,0,1449764727489,1449764727618,884,497,0,0,0,2,3,1,5,0003-00-0001-74.png,0002-00-0000-66.png
00000009,900,1,1449764730679,1449764731671,939,332,0,0,0,4,3,1,7,0001-00-0000-89.png,0002-00-0001-58.png
00000009,901,1,1449764732521,1449764733390,508,234,0,0,0,0,1,1,1,0005-00-0000-31.png,0004-00-0001-69.png
00000009,902,1,1449764734224,1449764735617,444,253,0,0,0,3,4,1,7,0002-00-0000-60.png,0001-00-0001-93.png
00000009,903,1,1449764736518,1449764736542,863,389,0,0,0,1,0,1,1,0004-00-0001-80.png,0005-00-0001-51.png
00000009,904,1,1449764737516,1449764737587,873,442,0,0,0,2,1,1,3,0003-00-0000-34.png,0004-00-0000-33.png
00000009,905,0,1449764738616,1449764738644,884,415,0,0,0,1,2,1,3,0004-00-0001-25.png,0003-00-0000-67.png
00000009,906,1,1449764741757,1449764742387,394,362,0,0,0,2,3,1,5,0003-00-0000-47.png,0002-00-0001-98.png
00000009,907,0,1449764743218,1449764744032,505,267,0,0,0,2,1,1,3,0003-00-0001-52.png,0004-00-0000-54.png
00000009,908,1,1449764746956,1449764747508,1041,279,0,0,0,4,3,1,7,0001-00-0001-03.png,0002-00-0001-07.png
00000009,909,0,1449764748383,1449764748474,886,489,0,0,0,3,4,1,7,0002-00-0000-32.png,0001-00-0000-24.png
00000009,910,1,1449764751313,1449764751906,939,371,0,0,0,1,0,1,1,0004-00-0000-98.png,0005-00-0001-53.png
00000009,911,0,1449764752786,1449764752866,899,472,0,0,0,0,1,1,1,0005-00-0000-57.png,0004-00-0000-81.png
00000009,912,1,1449764755749,1449764756354,1012,256,0,0,0,3,2,1,5,0002-00-0000-93.png,0003-00-0000-62.png
00000009,913,1,1449764757249,1449764757313,862,436,0,0,0,2,1,1,3,0003-00-0000-29.png,0004-00-0001-34.png
00000009,914,1,1449764758316,1449764758459,873,519,0,0,0,4,3,1,7,0001-00-0001-55.png,0002-00-0000-40.png
00000009,915,0,1449764759588,1449764759683,888,502,0,0,0,3,4,1,7,0002-00-0000-29.png,0001-00-0000-41.png
00000009,916,1,1449764762668,1449764763272,470,286,0,0,0,2,3,1,5,0003-00-0001-69.png,0002-00-0001-61.png
00000009,917,0,1449764764135,1449764764167,863,412,0,0,0,0,1,1,1,0005-00-0001-89.png,0004-00-0001-15.png
00000009,918,1,1449764767238,1449764767813,405,393,0,0,0,1,2,1,3,0004-00-0001-77.png,0003-00-0001-84.png
00000009,919,1,1449764768721,1449764768796,859,482,0,0,0,3,2,1,5,0002-00-0001-55.png,0003-00-0001-08.png
00000009,920,1,1449764769763,1449764769878,882,501,0,0,0,1,0,1,1,0004-00-0001-55.png,0005-00-0000-20.png
00000009,921,1,1449764771079,1449764771131,888,450,0,0,0,4,3,1,7,0001-00-0000-56.png,0002-00-0000-08.png
00000009,922,1,1449764772256,1449764772336,862,488,0,0,0,3,2,1,5,0002-00-0000-15.png,0003-00-0000-04.png
00000009,923,0,1449764773449,1449764773493,890,490,0,0,0,0,1,1,1,0005-00-0001-47.png,0004-00-0001-28.png
00000009,924,1,1449764776640,1449764776748,939,294,0,0,0,1,0,1,1,0004-00-0000-38.png,0005-00-0001-69.png
00000009,925,1,1449764777662,1449764778410,472,402,0,0,0,2,3,1,5,0003-00-0001-65.png,0002-00-0001-07.png
00000009,926,1,1449764779281,1449764780440,501,280,0,0,0,3,4,1,7,0002-00-0001-32.png,0001-00-0001-51.png
00000009,927,1,1449764782026,1449764782751,950,405,0,0,0,2,1,1,3,0003-00-0000-81.png,0004-00-0001-68.png
00000009,928,1,1449764783725,1449764784436,460,428,0,0,0,1,2,1,3,0004-00-0001-89.png,0003-00-0000-52.png
00000009,929,1,1449764786030,1449764786619,942,398,0,0,0,2,1,1,3,0003-00-0000-24.png,0004-00-0001-46.png
00000009,930,1,1449764787653,1449764787685,862,452,0,0,0,1,0,1,1,0004-00-0000-77.png,0005-00-0000-63.png
00000009,931,1,1449764788734,1449764788782,888,473,0,0,0,3,2,1,5,0002-00-0000-42.png,0003-00-0001-06.png
00000009,932,0,1449764789917,1449764789945,873,492,0,0,0,1,2,1,3,0004-00-0000-75.png,0003-00-0001-95.png
00000009,933,1,1449764793153,1449764793694,1044,283,0,0,0,4,3,1,7,0001-00-0001-20.png,0002-00-0000-05.png
00000009,934,0,1449764794588,1449764794668,862,503,0,0,0,2,3,1,5,0003-00-0000-72.png,0002-00-0000-59.png
00000009,935,1,1449764797562,1449764798188,405,390,0,0,0,3,4,1,7,0002-00-0001-79.png,0001-00-0001-73.png
00000009,936,1,1449764799092,1449764799817,498,253,0,0,0,0,1,1,1,0005-00-0000-72.png,0004-00-0000-75.png
00000009,937,1,1449764800674,1449764800738,862,476,0,0,0,4,3,1,7,0001-00-0001-88.png,0002-00-0001-15.png
00000009,938,1,1449764801820,1449764801880,862,462,0,0,0,1,0,1,1,0004-00-0000-33.png,0005-00-0000-97.png
00000009,939,0,1449764802893,1449764803039,879,516,0,0,0,3,4,1,7,0002-00-0000-24.png,0001-00-0001-66.png
00000009,940,0,1449764806161,1449764806782,504,264,0,0,0,2,1,1,3,0003-00-0000-25.png,0004-00-0001-15.png
00000009,941,1,1449764809827,1449764810375,890,297,0,0,0,3,2,1,5,0002-00-0001-59.png,0003-00-0000-97.png
00000009,942,1,1449764811269,1449764812035,501,253,0,0,0,1,2,1,3,0004-00-0000-72.png,0003-00-0001-19.png
00000009,943,0,1449764812878,1449764813648,1027,240,0,0,0,0,1,1,1,0005-00-0000-10.png,0004-00-0000-15.png
00000009,944,0,1449764816780,1449764817349,954,306,0,0,0,2,3,1,5,0003-00-0001-07.png,0002-00-0001-40.png
00000009,945,0,1449764820419,1449764821049,933,380,0,0,0,2,3,1,5,0003-00-0001-35.png,0002-00-0000-15.png
00000009,946,0,1449764824228,1449764825179,490,306,0,0,0,3,2,1,5,0002-00-0001-84.png,0003-00-0001-22.png
00000009,947,0,1449764828194,1449764828406,908,353,0,0,0,3,4,1,7,0002-00-0001-78.png,0001-00-0000-66.png
00000009,948,1,1449764831266,1449764831832,1016,253,0,0,0,1,0,1,1,0004-00-0001-20.png,0005-00-0000-29.png
00000009,949,0,1449764832716,1449764832764,864,443,0,0,0,1,2,1,3,0004-00-0001-68.png,0003-00-0001-13.png
00000009,950,1,1449764835956,1449764836690,469,291,0,0,0,0,1,1,1,0005-00-0001-10.png,0004-00-0000-87.png
