subject_id,trial,correct_response,stim_time,response_time,x_coord,y_coord,trial_timeout,timeout_time,interTrial_timeout,left_rank,right_rank,distance,joint_rank,left_image,right_image
00000009,1,1,1449585844407,1449585844948,1066,445,0,0,0,4,3,1,7,0001-00-0001-86.png,0002-00-0001-82.png
00000009,2,1,1449585846570,1449585847056,886,384,0,0,0,2,1,1,3,0003-00-0000-51.png,0004-00-0000-91.png
00000009,3,0,1449585885871,1449585885871,886,303,0,0,0,1,2,1,3,0004-00-0001-87.png,0003-00-0001-49.png
00000009,4,0,1449585888933,1449585889497,1012,219,0,0,0,3,4,1,7,0002-00-0001-87.png,0001-00-0000-52.png
00000009,5,0,1449585892471,1449585892965,947,398,0,0,0,2,3,1,5,0003-00-0000-96.png,0002-00-0000-26.png
00000009,6,1,1449585895819,1449585896230,911,352,0,0,0,1,0,1,1,0004-00-0001-71.png,0005-00-0001-52.png
00000009,7,0,1449585897270,1449585898221,409,339,0,0,0,3,2,1,5,0002-00-0000-70.png,0003-00-0000-96.png
00000009,8,0,1449585901377,1449585901413,920,319,0,0,0,0,1,1,1,0005-00-0000-82.png,0004-00-0000-35.png
00000009,9,0,1449585904364,1449585904373,906,379,0,0,0,2,3,1,5,0003-00-0001-92.png,0002-00-0001-51.png
00000009,10,0,1449585907218,1449585907254,862,306,0,0,0,3,4,1,7,0002-00-0001-92.png,0001-00-0001-21.png
00000009,11,1,1449585910392,1449585910949,998,380,0,0,0,1,0,1,1,0004-00-0000-49.png,0005-00-0000-03.png
00000009,12,0,1449585911891,1449585912780,453,242,0,0,0,3,2,1,5,0002-00-0001-90.png,0003-00-0001-41.png
00000009,13,0,1449585915788,1449585916617,454,256,0,0,0,4,3,1,7,0001-00-0001-36.png,0002-00-0000-09.png
00000009,14,1,1449585919732,1449585920402,983,415,0,0,0,2,1,1,3,0003-00-0001-88.png,0004-00-0000-46.png
00000009,15,1,1449585921392,1449585922533,414,354,0,0,0,0,1,1,1,0005-00-0000-12.png,0004-00-0001-81.png
00000009,16,0,1449585923529,1449585923594,864,440,0,0,0,1,2,1,3,0004-00-0001-59.png,0003-00-0000-24.png
00000009,17,1,1449585926916,1449585927423,964,349,0,0,0,1,0,1,1,0004-00-0001-98.png,0005-00-0000-36.png
00000009,18,1,1449585928308,1449585928392,897,433,0,0,0,4,3,1,7,0001-00-0000-55.png,0002-00-0001-49.png
00000009,19,0,1449585929475,1449585929590,862,488,0,0,0,2,3,1,5,0003-00-0001-05.png,0002-00-0000-45.png
00000009,20,1,1449585932765,1449585933325,464,250,0,0,0,0,1,1,1,0005-00-0001-34.png,0004-00-0000-70.png
00000009,21,1,1449585934168,1449585934864,916,322,0,0,0,2,1,1,3,0003-00-0000-23.png,0004-00-0001-47.png
00000009,22,0,1449585935782,1449585935846,863,368,0,0,0,3,4,1,7,0002-00-0000-53.png,0001-00-0001-59.png
00000009,23,1,1449585939183,1449585939219,870,257,0,0,0,3,2,1,5,0002-00-0001-02.png,0003-00-0000-78.png
00000009,24,1,1449585940268,1449585940912,493,293,0,0,0,1,2,1,3,0004-00-0001-41.png,0003-00-0001-95.png
00000009,25,0,1449585941845,1449585942949,420,334,0,0,0,1,0,1,1,0004-00-0001-54.png,0005-00-0001-48.png
00000009,26,0,1449585946097,1449585946125,871,306,0,0,0,0,1,1,1,0005-00-0001-10.png,0004-00-0001-63.png
00000009,27,0,1449585949230,1449585949916,418,363,0,0,0,4,3,1,7,0001-00-0000-75.png,0002-00-0001-23.png
00000009,28,1,1449585952912,1449585953519,357,372,0,0,0,1,2,1,3,0004-00-0001-77.png,0003-00-0001-34.png
00000009,29,1,1449585954398,1449585955250,373,361,0,0,0,2,3,1,5,0003-00-0000-40.png,0002-00-0000-32.png
00000009,30,0,1449585956189,1449585957256,458,217,0,0,0,3,2,1,5,0002-00-0001-06.png,0003-00-0001-91.png
00000009,31,1,1449585960359,1449585960885,939,370,0,0,0,2,1,1,3,0003-00-0000-07.png,0004-00-0000-35.png
00000009,32,0,1449585961759,1449585961827,858,421,0,0,0,3,4,1,7,0002-00-0000-33.png,0001-00-0001-86.png
00000009,33,0,1449585965229,1449585965442,939,240,0,0,0,0,1,1,1,0005-00-0001-85.png,0004-00-0001-90.png
00000009,34,1,1449585968569,1449585969349,464,405,0,0,0,3,4,1,7,0002-00-0001-67.png,0001-00-0000-89.png
00000009,35,0,1449585970814,1449585971437,478,227,0,0,0,1,0,1,1,0004-00-0000-90.png,0005-00-0001-24.png
00000009,36,1,1449585976519,1449585977304,522,281,0,0,0,2,3,1,5,0003-00-0000-41.png,0002-00-0001-46.png
00000009,37,0,1449585978126,1449585978832,484,246,0,0,0,4,3,1,7,0001-00-0000-40.png,0002-00-0001-45.png
00000009,38,1,1449585982550,1449585983100,939,424,0,0,0,3,2,1,5,0002-00-0001-22.png,0003-00-0001-33.png
00000009,39,1,1449585984012,1449585984877,414,350,0,0,0,1,2,1,3,0004-00-0000-52.png,0003-00-0000-54.png
00000009,40,1,1449585985788,1449585986653,922,335,0,0,0,2,1,1,3,0003-00-0000-98.png,0004-00-0000-60.png
00000009,41,0,1449585987528,1449585988345,510,260,0,0,0,3,2,1,5,0002-00-0000-49.png,0003-00-0001-42.png
00000009,42,1,1449585991225,1449585991779,964,283,0,0,0,1,0,1,1,0004-00-0001-99.png,0005-00-0001-12.png
00000009,43,0,1449585993113,1449585993669,476,434,0,0,0,4,3,1,7,0001-00-0001-82.png,0002-00-0000-59.png
00000009,44,0,1449585996713,1449585997263,478,257,0,0,0,2,1,1,3,0003-00-0000-67.png,0004-00-0000-26.png
00000009,45,1,1449586000479,1449586001115,453,253,0,0,0,2,3,1,5,0003-00-0001-47.png,0002-00-0001-07.png
00000009,46,1,1449586001988,1449586002844,459,378,0,0,0,0,1,1,1,0005-00-0001-21.png,0004-00-0001-99.png
00000009,47,0,1449586003727,1449586004508,1036,314,0,0,0,3,4,1,7,0002-00-0001-57.png,0001-00-0000-32.png
00000009,48,0,1449586007614,1449586008119,1015,324,0,0,0,1,2,1,3,0004-00-0000-70.png,0003-00-0001-82.png
00000009,49,0,1449586011141,1449586011634,1067,283,0,0,0,2,3,1,5,0003-00-0000-96.png,0002-00-0001-53.png
00000009,50,0,1449586014819,1449586015343,1067,277,0,0,0,3,4,1,7,0002-00-0000-19.png,0001-00-0000-70.png
00000009,51,1,1449586018223,1449586018822,945,404,0,0,0,2,1,1,3,0003-00-0000-65.png,0004-00-0000-18.png
00000009,52,1,1449586019655,1449586020439,492,227,0,0,0,0,1,1,1,0005-00-0000-96.png,0004-00-0000-04.png
00000009,53,0,1449586021254,1449586021961,479,253,0,0,0,1,0,1,1,0004-00-0001-72.png,0005-00-0001-36.png
00000009,54,1,1449586025523,1449586026144,458,264,0,0,0,1,2,1,3,0004-00-0001-20.png,0003-00-0001-15.png
00000009,55,1,1449586027636,1449586028370,964,318,0,0,0,3,2,1,5,0002-00-0001-89.png,0003-00-0000-83.png
00000009,56,0,1449586029288,1449586030260,394,340,0,0,0,4,3,1,7,0001-00-0001-52.png,0002-00-0000-21.png
00000009,57,1,1449586033184,1449586033666,1020,250,0,0,0,1,0,1,1,0004-00-0000-02.png,0005-00-0000-45.png
00000009,58,1,1449586035033,1449586035845,1036,279,0,0,0,3,2,1,5,0002-00-0000-11.png,0003-00-0000-38.png
00000009,59,0,1449586036782,1449586037760,393,320,0,0,0,4,3,1,7,0001-00-0001-09.png,0002-00-0000-73.png
00000009,60,0,1449586041187,1449586041227,884,354,0,0,0,3,4,1,7,0002-00-0000-36.png,0001-00-0000-64.png
00000009,61,0,1449586044362,1449586044920,964,317,0,0,0,1,2,1,3,0004-00-0000-81.png,0003-00-0001-90.png
00000009,62,1,1449586048002,1449586048006,873,349,0,0,0,2,1,1,3,0003-00-0001-30.png,0004-00-0000-61.png
00000009,63,1,1449586048948,1449586049622,500,241,0,0,0,0,1,1,1,0005-00-0000-90.png,0004-00-0000-82.png
00000009,64,1,1449586050494,1449586050522,516,462,0,0,0,2,3,1,5,0003-00-0001-56.png,0002-00-0000-08.png
00000009,65,1,1449586051550,1449586052583,939,410,0,0,0,2,1,1,3,0003-00-0001-35.png,0004-00-0000-39.png
00000009,66,1,1449586053507,1449586054707,478,225,0,0,0,3,4,1,7,0002-00-0001-48.png,0001-00-0000-27.png
00000009,67,1,1449586055654,1449586056301,447,237,0,0,0,0,1,1,1,0005-00-0000-52.png,0004-00-0000-49.png
00000009,68,1,1449586057943,1449586058652,913,327,0,0,0,3,2,1,5,0002-00-0000-43.png,0003-00-0001-82.png
00000009,69,0,1449586059516,1449586060330,913,316,0,0,0,2,3,1,5,0003-00-0000-88.png,0002-00-0000-26.png
00000009,70,1,1449586063270,1449586063808,422,364,0,0,0,1,2,1,3,0004-00-0000-12.png,0003-00-0000-26.png
00000009,71,1,1449586065229,1449586065997,939,289,0,0,0,1,0,1,1,0004-00-0000-30.png,0005-00-0000-51.png
00000009,72,0,1449586066900,1449586067544,468,227,0,0,0,4,3,1,7,0001-00-0000-32.png,0002-00-0000-20.png
00000009,73,0,1449586070670,1449586071445,500,285,0,0,0,4,3,1,7,0001-00-0000-03.png,0002-00-0000-98.png
00000009,74,1,1449586074485,1449586075273,1016,279,0,0,0,3,2,1,5,0002-00-0001-40.png,0003-00-0000-70.png
00000009,75,0,1449586076195,1449586077335,943,347,0,0,0,0,1,1,1,0005-00-0000-09.png,0004-00-0000-28.png
00000009,76,1,1449586080325,1449586081086,488,279,0,0,0,2,3,1,5,0003-00-0000-32.png,0002-00-0001-87.png
00000009,77,0,1449586081990,1449586082991,1036,294,0,0,0,1,2,1,3,0004-00-0001-78.png,0003-00-0001-23.png
00000009,78,1,1449586086074,1449586086931,446,416,0,0,0,3,4,1,7,0002-00-0001-03.png,0001-00-0000-97.png
00000009,79,1,1449586087923,1449586088699,1029,252,0,0,0,1,0,1,1,0004-00-0000-04.png,0005-00-0001-10.png
00000009,80,0,1449586089663,1449586090496,485,234,0,0,0,2,1,1,3,0003-00-0001-33.png,0004-00-0000-08.png
00000009,81,1,1449586093607,1449586094209,452,272,0,0,0,1,2,1,3,0004-00-0000-25.png,0003-00-0000-46.png
00000009,82,1,1449586095102,1449586096006,942,322,0,0,0,2,1,1,3,0003-00-0000-86.png,0004-00-0001-47.png
00000009,83,1,1449586096916,1449586097719,488,227,0,0,0,3,4,1,7,0002-00-0000-58.png,0001-00-0001-97.png
00000009,84,1,1449586098695,1449586099504,997,303,0,0,0,4,3,1,7,0001-00-0001-71.png,0002-00-0001-15.png
00000009,85,1,1449586100592,1449586101587,939,369,0,0,0,1,0,1,1,0004-00-0001-51.png,0005-00-0000-29.png
00000009,86,1,1449586108249,1449586120508,939,382,0,0,0,3,2,1,5,0002-00-0001-80.png,0003-00-0000-51.png
00000009,87,1,1449586121534,1449586122250,386,406,0,0,0,0,1,1,1,0005-00-0000-01.png,0004-00-0001-08.png
00000009,88,1,1449586123167,1449586124146,456,239,0,0,0,2,3,1,5,0003-00-0000-00.png,0002-00-0000-24.png
00000009,89,0,1449586125035,1449586125828,992,407,0,0,0,2,3,1,5,0003-00-0001-32.png,0002-00-0001-26.png
00000009,90,1,1449586136672,1449586137151,1045,274,0,0,0,2,1,1,3,0003-00-0000-45.png,0004-00-0000-67.png
00000009,91,1,1449586138514,1449586139089,464,239,0,0,0,0,1,1,1,0005-00-0000-56.png,0004-00-0001-32.png
00000009,92,0,1449586139940,1449586139968,517,500,0,0,0,3,2,1,5,0002-00-0000-75.png,0003-00-0001-94.png
00000009,93,1,1449586143145,1449586143967,939,332,0,0,0,4,3,1,7,0001-00-0001-18.png,0002-00-0000-08.png
00000009,94,1,1449586144864,1449586146103,480,251,0,0,0,1,2,1,3,0004-00-0000-91.png,0003-00-0001-47.png
00000009,95,1,1449586146994,1449586147954,913,395,0,0,0,1,0,1,1,0004-00-0001-13.png,0005-00-0001-81.png
00000009,96,1,1449586148810,1449586149574,468,233,0,0,0,3,4,1,7,0002-00-0001-82.png,0001-00-0001-88.png
00000009,97,0,1449586150478,1449586151733,1055,331,0,0,0,3,4,1,7,0002-00-0000-43.png,0001-00-0000-41.png
00000009,98,0,1449586155428,1449586155933,427,329,0,0,0,3,2,1,5,0002-00-0000-35.png,0003-00-0000-01.png
00000009,99,1,1449586158856,1449586158860,904,393,0,0,0,1,0,1,1,0004-00-0000-10.png,0005-00-0000-67.png
00000009,100,1,1449586159763,1449586160663,939,346,0,0,0,2,1,1,3,0003-00-0000-58.png,0004-00-0001-10.png
00000009,101,1,1449586161540,1449586162506,469,245,0,0,0,2,3,1,5,0003-00-0000-42.png,0002-00-0000-49.png
00000009,102,0,1449586163439,1449586164170,939,321,0,0,0,1,2,1,3,0004-00-0001-43.png,0003-00-0001-38.png
00000009,103,1,1449586167176,1449586167669,407,364,0,0,0,0,1,1,1,0005-00-0001-05.png,0004-00-0001-51.png
00000009,104,0,1449586169551,1449586170236,469,297,0,0,0,4,3,1,7,0001-00-0000-53.png,0002-00-0000-21.png
00000009,105,0,1449586175841,1449586176295,940,380,0,0,0,3,4,1,7,0002-00-0001-57.png,0001-00-0001-76.png
00000009,106,0,1449586179155,1449586179266,870,400,0,0,0,2,3,1,5,0003-00-0001-95.png,0002-00-0001-67.png
00000009,107,1,1449586194231,1449586194816,430,298,0,0,0,1,2,1,3,0004-00-0000-90.png,0003-00-0000-55.png
00000009,108,1,1449586195822,1449586196649,1016,289,0,0,0,2,1,1,3,0003-00-0000-88.png,0004-00-0001-15.png
00000009,109,1,1449586197498,1449586198152,448,253,0,0,0,0,1,1,1,0005-00-0001-18.png,0004-00-0001-33.png
00000009,110,0,1449586199034,1449586199637,447,264,0,0,0,3,2,1,5,0002-00-0000-25.png,0003-00-0001-97.png
00000009,111,1,1449586202580,1449586203104,944,330,0,0,0,1,0,1,1,0004-00-0000-38.png,0005-00-0000-63.png
00000009,112,0,1449586204497,1449586205054,463,239,0,0,0,4,3,1,7,0001-00-0000-87.png,0002-00-0001-30.png
00000009,113,1,1449586211017,1449586211751,466,296,0,0,0,3,4,1,7,0002-00-0000-13.png,0001-00-0001-70.png
00000009,114,0,1449586212662,1449586213643,363,390,0,0,0,3,2,1,5,0002-00-0001-00.png,0003-00-0001-41.png
00000009,115,1,1449586217675,1449586218256,470,274,0,0,0,2,3,1,5,0003-00-0001-94.png,0002-00-0001-67.png
00000009,116,1,1449586219663,1449586219854,869,351,0,0,0,4,3,1,7,0001-00-0001-73.png,0002-00-0001-26.png
00000009,117,1,1449586220864,1449586221716,1035,281,0,0,0,2,1,1,3,0003-00-0001-32.png,0004-00-0000-87.png
00000009,118,1,1449586222635,1449586223278,381,382,0,0,0,1,2,1,3,0004-00-0001-35.png,0003-00-0001-24.png
00000009,119,1,1449586224161,1449586224813,913,319,0,0,0,1,0,1,1,0004-00-0001-14.png,0005-00-0000-04.png
00000009,120,1,1449586225704,1449586226308,435,272,0,0,0,0,1,1,1,0005-00-0001-27.png,0004-00-0001-47.png
00000009,121,1,1449586227243,1449586227865,922,329,0,0,0,1,0,1,1,0004-00-0000-25.png,0005-00-0001-50.png
00000009,122,1,1449586228783,1449586229562,460,234,0,0,0,1,2,1,3,0004-00-0001-23.png,0003-00-0000-03.png
00000009,123,0,1449586230421,1449586231579,937,307,0,0,0,3,4,1,7,0002-00-0000-34.png,0001-00-0000-92.png
00000009,124,1,1449586239768,1449586240338,395,367,0,0,0,0,1,1,1,0005-00-0001-13.png,0004-00-0001-19.png
00000009,125,1,1449586241272,1449586242400,456,254,0,0,0,2,3,1,5,0003-00-0001-27.png,0002-00-0001-99.png
00000009,126,1,1449586243410,1449586244055,962,391,0,0,0,2,1,1,3,0003-00-0001-59.png,0004-00-0001-35.png
00000009,127,1,1449586244921,1449586245653,1016,253,0,0,0,3,2,1,5,0002-00-0001-52.png,0003-00-0001-00.png
00000009,128,1,1449586246654,1449586247532,939,399,0,0,0,4,3,1,7,0001-00-0001-39.png,0002-00-0000-85.png
00000009,129,1,1449586248453,1449586249137,920,313,0,0,0,3,2,1,5,0002-00-0000-35.png,0003-00-0000-85.png
00000009,130,0,1449586250680,1449586251589,1018,257,0,0,0,3,4,1,7,0002-00-0001-89.png,0001-00-0000-41.png
00000009,131,1,1449586254750,1449586255356,990,339,0,0,0,1,0,1,1,0004-00-0000-99.png,0005-00-0000-20.png
00000009,132,1,1449586256691,1449586257269,481,228,0,0,0,0,1,1,1,0005-00-0000-64.png,0004-00-0001-19.png
00000009,133,0,1449586258179,1449586258818,994,253,0,0,0,2,3,1,5,0003-00-0000-44.png,0002-00-0001-31.png
00000009,134,0,1449586261732,1449586262382,412,363,0,0,0,2,1,1,3,0003-00-0000-04.png,0004-00-0001-98.png
00000009,135,0,1449586265318,1449586266093,453,238,0,0,0,4,3,1,7,0001-00-0000-70.png,0002-00-0000-08.png
00000009,136,0,1449586269155,1449586269774,1070,306,0,0,0,1,2,1,3,0004-00-0000-74.png,0003-00-0000-01.png
00000009,137,1,1449586272897,1449586273467,1047,255,0,0,0,2,1,1,3,0003-00-0000-48.png,0004-00-0000-67.png
00000009,138,1,1449586274341,1449586275056,939,291,0,0,0,1,0,1,1,0004-00-0000-85.png,0005-00-0000-63.png
00000009,139,1,1449586275957,1449586276985,913,316,0,0,0,4,3,1,7,0001-00-0000-60.png,0002-00-0001-92.png
00000009,140,0,1449586277959,1449586278027,871,392,0,0,0,3,4,1,7,0002-00-0000-12.png,0001-00-0001-02.png
00000009,141,0,1449586281109,1449586281121,888,332,0,0,0,1,2,1,3,0004-00-0001-02.png,0003-00-0001-67.png
00000009,142,1,1449586284169,1449586284724,504,273,0,0,0,0,1,1,1,0005-00-0001-23.png,0004-00-0000-99.png
00000009,143,0,1449586285577,1449586286410,1016,262,0,0,0,2,3,1,5,0003-00-0000-10.png,0002-00-0000-98.png
00000009,144,1,1449586289536,1449586289561,859,330,0,0,0,3,2,1,5,0002-00-0001-13.png,0003-00-0001-27.png
00000009,145,0,1449586290498,1449586291138,443,237,0,0,0,1,0,1,1,0004-00-0000-30.png,0005-00-0001-73.png
00000009,146,1,1449586294018,1449586294066,864,352,0,0,0,2,1,1,3,0003-00-0000-73.png,0004-00-0000-39.png
00000009,147,1,1449586295023,1449586295654,462,222,0,0,0,1,2,1,3,0004-00-0001-30.png,0003-00-0000-63.png
00000009,148,1,1449586296571,1449586297885,370,322,0,0,0,3,4,1,7,0002-00-0000-02.png,0001-00-0000-39.png
00000009,149,1,1449586298888,1449586300063,994,275,0,0,0,3,2,1,5,0002-00-0001-52.png,0003-00-0001-61.png
00000009,150,1,1449586301014,1449586301830,406,327,0,0,0,0,1,1,1,0005-00-0000-27.png,0004-00-0000-77.png
00000009,151,1,1449586302863,1449586303744,451,407,0,0,0,2,3,1,5,0003-00-0000-28.png,0002-00-0001-15.png
00000009,152,1,1449586304713,1449586305707,943,442,0,0,0,4,3,1,7,0001-00-0000-49.png,0002-00-0001-06.png
00000009,153,1,1449586307380,1449586308058,479,269,0,0,0,3,4,1,7,0002-00-0000-81.png,0001-00-0001-44.png
00000009,154,1,1449586308964,1449586309609,939,333,0,0,0,1,0,1,1,0004-00-0001-80.png,0005-00-0001-34.png
00000009,155,1,1449586310554,1449586311217,507,267,0,0,0,1,2,1,3,0004-00-0001-75.png,0003-00-0000-14.png
00000009,156,0,1449586312104,1449586312955,436,376,0,0,0,3,2,1,5,0002-00-0001-43.png,0003-00-0000-50.png
00000009,157,1,1449586315840,1449586316416,1046,352,0,0,0,2,1,1,3,0003-00-0000-26.png,0004-00-0000-73.png
00000009,158,0,1449586317299,1449586318183,438,378,0,0,0,4,3,1,7,0001-00-0000-91.png,0002-00-0001-29.png
00000009,159,1,1449586321327,1449586322290,453,291,0,0,0,0,1,1,1,0005-00-0000-64.png,0004-00-0000-80.png
00000009,160,1,1449586323270,1449586324118,477,242,0,0,0,2,3,1,5,0003-00-0001-88.png,0002-00-0001-89.png
00000009,161,0,1449586325113,1449586326174,1041,306,0,0,0,2,3,1,5,0003-00-0001-22.png,0002-00-0000-95.png
00000009,162,1,1449586329317,1449586329870,511,296,0,0,0,3,4,1,7,0002-00-0000-96.png,0001-00-0000-64.png
00000009,163,1,1449586330790,1449586331429,391,306,0,0,0,0,1,1,1,0005-00-0000-48.png,0004-00-0000-41.png
00000009,164,1,1449586332337,1449586333243,935,400,0,0,0,3,2,1,5,0002-00-0000-56.png,0003-00-0001-52.png
00000009,165,1,1449586334093,1449586334797,920,346,0,0,0,1,0,1,1,0004-00-0001-71.png,0005-00-0000-70.png
00000009,166,1,1449586335756,1449586336811,923,304,0,0,0,4,3,1,7,0001-00-0001-83.png,0002-00-0000-41.png
00000009,167,0,1449586337845,1449586338728,491,263,0,0,0,2,1,1,3,0003-00-0000-94.png,0004-00-0000-89.png
00000009,168,1,1449586341707,1449586342493,469,271,0,0,0,1,2,1,3,0004-00-0000-14.png,0003-00-0000-94.png
00000009,169,1,1449586343355,1449586344072,509,217,0,0,0,1,2,1,3,0004-00-0001-88.png,0003-00-0001-62.png
00000009,170,0,1449586345037,1449586345688,912,325,0,0,0,3,4,1,7,0002-00-0000-41.png,0001-00-0001-46.png
00000009,171,0,1449586348528,1449586349331,504,243,0,0,0,2,1,1,3,0003-00-0001-09.png,0004-00-0000-76.png
00000009,172,0,1449586352746,1449586353382,486,286,0,0,0,3,2,1,5,0002-00-0000-47.png,0003-00-0001-33.png
00000009,173,0,1449586356444,1449586356520,938,320,0,0,0,2,3,1,5,0003-00-0000-81.png,0002-00-0001-42.png
00000009,174,0,1449586359401,1449586360139,462,306,0,0,0,4,3,1,7,0001-00-0001-76.png,0002-00-0000-59.png
00000009,175,1,1449586363153,1449586363347,862,306,0,0,0,1,0,1,1,0004-00-0000-84.png,0005-00-0001-42.png
00000009,176,1,1449586364305,1449586364913,403,359,0,0,0,0,1,1,1,0005-00-0001-54.png,0004-00-0001-31.png
00000009,177,1,1449586365835,1449586366572,1019,242,0,0,0,1,0,1,1,0004-00-0000-72.png,0005-00-0000-79.png
00000009,178,1,1449586367481,1449586368688,459,235,0,0,0,3,4,1,7,0002-00-0001-04.png,0001-00-0000-47.png
00000009,179,1,1449586369682,1449586370505,922,306,0,0,0,2,1,1,3,0003-00-0001-59.png,0004-00-0000-88.png
00000009,180,0,1449586371419,1449586372674,487,242,0,0,0,4,3,1,7,0001-00-0000-86.png,0002-00-0000-46.png
00000009,181,0,1449586375526,1449586376141,1035,294,0,0,0,1,2,1,3,0004-00-0000-16.png,0003-00-0000-03.png
00000009,182,1,1449586379001,1449586379587,497,276,0,0,0,0,1,1,1,0005-00-0001-15.png,0004-00-0001-11.png
00000009,183,1,1449586380442,1449586380490,514,500,0,0,0,2,3,1,5,0003-00-0001-68.png,0002-00-0000-45.png
00000009,184,0,1449586381445,1449586382216,490,236,0,0,0,3,2,1,5,0002-00-0000-95.png,0003-00-0001-74.png
00000009,185,1,1449586385299,1449586385852,506,275,0,0,0,0,1,1,1,0005-00-0001-58.png,0004-00-0000-14.png
00000009,186,1,1449586386697,1449586387458,913,317,0,0,0,1,0,1,1,0004-00-0000-09.png,0005-00-0000-77.png
00000009,187,1,1449586388301,1449586389423,453,410,0,0,0,3,4,1,7,0002-00-0000-86.png,0001-00-0001-38.png
00000009,188,1,1449586390381,1449586391389,485,241,0,0,0,2,3,1,5,0003-00-0000-09.png,0002-00-0000-53.png
00000009,189,0,1449586392359,1449586393227,498,269,0,0,0,3,2,1,5,0002-00-0001-86.png,0003-00-0000-21.png
00000009,190,1,1449586396184,1449586396683,967,362,0,0,0,2,1,1,3,0003-00-0000-46.png,0004-00-0000-21.png
00000009,191,1,1449586397533,1449586398427,1041,265,0,0,0,4,3,1,7,0001-00-0000-78.png,0002-00-0001-80.png
00000009,192,0,1449586399475,1449586400155,1039,242,0,0,0,1,2,1,3,0004-00-0000-48.png,0003-00-0000-81.png
00000009,193,1,1449586403269,1449586403411,862,423,0,0,0,2,1,1,3,0003-00-0001-39.png,0004-00-0001-69.png
00000009,194,0,1449586404362,1449586405057,414,319,0,0,0,3,2,1,5,0002-00-0000-07.png,0003-00-0001-18.png
00000009,195,0,1449586408001,1449586408626,955,370,0,0,0,0,1,1,1,0005-00-0000-52.png,0004-00-0000-90.png
00000009,196,0,1449586411462,1449586412098,967,376,0,0,0,3,4,1,7,0002-00-0001-84.png,0001-00-0000-70.png
00000009,197,0,1449586415126,1449586415676,1046,307,0,0,0,2,3,1,5,0003-00-0000-77.png,0002-00-0000-25.png
00000009,198,1,1449586418663,1449586418679,908,370,0,0,0,4,3,1,7,0001-00-0001-63.png,0002-00-0000-99.png
00000009,199,1,1449586419624,1449586420651,410,352,0,0,0,1,2,1,3,0004-00-0000-07.png,0003-00-0001-91.png
00000009,200,1,1449586421586,1449586422456,913,345,0,0,0,1,0,1,1,0004-00-0001-20.png,0005-00-0001-73.png
00000009,201,0,1449586423384,1449586424072,485,255,0,0,0,3,2,1,5,0002-00-0001-53.png,0003-00-0000-01.png
00000009,202,0,1449586427076,1449586427104,878,408,0,0,0,2,3,1,5,0003-00-0001-53.png,0002-00-0001-24.png
00000009,203,0,1449586430012,1449586430195,862,410,0,0,0,1,2,1,3,0004-00-0000-14.png,0003-00-0000-61.png
00000009,204,1,1449586433361,1449586433385,893,310,0,0,0,1,0,1,1,0004-00-0001-02.png,0005-00-0001-33.png
00000009,205,1,1449586434321,1449586435050,499,218,0,0,0,0,1,1,1,0005-00-0000-95.png,0004-00-0000-38.png
00000009,206,0,1449586435997,1449586436922,481,256,0,0,0,4,3,1,7,0001-00-0000-90.png,0002-00-0001-85.png
00000009,207,1,1449586439984,1449586440534,1041,253,0,0,0,2,1,1,3,0003-00-0001-89.png,0004-00-0001-91.png
00000009,208,1,1449586441427,1449586442088,427,345,0,0,0,3,4,1,7,0002-00-0000-67.png,0001-00-0000-72.png
00000009,209,0,1449586443118,1449586444139,495,261,0,0,0,4,3,1,7,0001-00-0001-88.png,0002-00-0001-03.png
00000009,210,1,1449586447228,1449586447244,862,304,0,0,0,2,1,1,3,0003-00-0000-86.png,0004-00-0001-25.png
00000009,211,1,1449586448132,1449586448876,453,358,0,0,0,1,2,1,3,0004-00-0000-01.png,0003-00-0000-26.png
00000009,212,1,1449586449877,1449586450622,464,242,0,0,0,3,4,1,7,0002-00-0001-15.png,0001-00-0001-33.png
00000009,213,1,1449586451604,1449586452314,485,220,0,0,0,0,1,1,1,0005-00-0001-00.png,0004-00-0000-83.png
00000009,214,0,1449586453274,1449586454440,483,256,0,0,0,3,2,1,5,0002-00-0000-07.png,0003-00-0001-87.png
00000009,215,1,1449586457557,1449586458133,510,269,0,0,0,2,3,1,5,0003-00-0000-00.png,0002-00-0000-56.png
00000009,216,1,1449586459018,1449586459763,1016,263,0,0,0,1,0,1,1,0004-00-0000-73.png,0005-00-0001-51.png
00000009,217,0,1449586460897,1449586461493,462,247,0,0,0,3,2,1,5,0002-00-0001-58.png,0003-00-0001-27.png
00000009,218,1,1449586464750,1449586465419,508,251,0,0,0,2,3,1,5,0003-00-0001-09.png,0002-00-0000-07.png
00000009,219,1,1449586466373,1449586466405,508,520,0,0,0,3,4,1,7,0002-00-0001-54.png,0001-00-0000-08.png
00000009,220,0,1449586467522,1449586468623,498,238,0,0,0,4,3,1,7,0001-00-0001-83.png,0002-00-0000-06.png
00000009,221,1,1449586471707,1449586472269,1022,280,0,0,0,2,1,1,3,0003-00-0000-76.png,0004-00-0000-41.png
00000009,222,1,1449586473188,1449586473862,496,225,0,0,0,0,1,1,1,0005-00-0001-19.png,0004-00-0001-24.png
00000009,223,1,1449586474765,1449586475523,913,316,0,0,0,1,0,1,1,0004-00-0001-20.png,0005-00-0000-72.png
00000009,224,0,1449586476515,1449586476701,888,541,0,0,0,1,2,1,3,0004-00-0001-61.png,0003-00-0000-29.png
00000009,225,1,1449586480054,1449586480066,883,327,0,0,0,2,1,1,3,0003-00-0000-66.png,0004-00-0000-97.png
00000009,226,1,1449586480964,1449586481965,964,293,0,0,0,3,2,1,5,0002-00-0000-90.png,0003-00-0001-59.png
00000009,227,1,1449586482945,1449586483624,504,239,0,0,0,0,1,1,1,0005-00-0001-82.png,0004-00-0001-47.png
00000009,228,1,1449586484576,1449586485923,1044,377,0,0,0,4,3,1,7,0001-00-0000-11.png,0002-00-0001-36.png
00000009,229,1,1449586486911,1449586487924,506,257,0,0,0,2,3,1,5,0003-00-0001-07.png,0002-00-0000-03.png
00000009,230,1,1449586488923,1449586489902,961,395,0,0,0,1,0,1,1,0004-00-0001-64.png,0005-00-0000-11.png
00000009,231,1,1449586490946,1449586492124,504,294,0,0,0,1,2,1,3,0004-00-0001-66.png,0003-00-0001-57.png
00000009,232,0,1449586493163,1449586494052,928,332,0,0,0,3,4,1,7,0002-00-0000-17.png,0001-00-0000-85.png
00000009,233,0,1449586497176,1449586497184,888,320,0,0,0,2,3,1,5,0003-00-0000-43.png,0002-00-0001-94.png
00000009,234,1,1449586500307,1449586500411,920,251,0,0,0,2,1,1,3,0003-00-0001-60.png,0004-00-0000-25.png
00000009,235,1,1449586501370,1449586502353,964,288,0,0,0,1,0,1,1,0004-00-0001-81.png,0005-00-0000-00.png
00000009,236,1,1449586503279,1449586504278,404,336,0,0,0,3,4,1,7,0002-00-0001-41.png,0001-00-0000-29.png
00000009,237,0,1449586505336,1449586505372,520,521,0,0,0,3,2,1,5,0002-00-0000-73.png,0003-00-0001-44.png
00000009,238,1,1449586508386,1449586508422,863,394,0,0,0,4,3,1,7,0001-00-0000-88.png,0002-00-0001-17.png
00000009,239,0,1449586509440,1449586510323,1062,292,0,0,0,1,2,1,3,0004-00-0001-43.png,0003-00-0001-74.png
00000009,240,0,1449586513420,1449586513472,862,345,0,0,0,0,1,1,1,0005-00-0000-80.png,0004-00-0000-99.png
00000009,241,1,1449586516505,1449586517495,461,267,0,0,0,1,2,1,3,0004-00-0000-72.png,0003-00-0001-40.png
00000009,242,1,1449586518485,1449586519409,911,352,0,0,0,3,2,1,5,0002-00-0001-93.png,0003-00-0000-61.png
00000009,243,0,1449586520380,1449586521090,466,253,0,0,0,2,1,1,3,0003-00-0000-44.png,0004-00-0001-97.png
00000009,244,0,1449586524246,1449586524282,888,316,0,0,0,0,1,1,1,0005-00-0000-56.png,0004-00-0000-65.png
00000009,245,0,1449586527396,1449586528003,1046,268,0,0,0,3,4,1,7,0002-00-0000-87.png,0001-00-0001-17.png
00000009,246,1,1449586540229,1449586540717,1016,262,0,0,0,1,0,1,1,0004-00-0000-86.png,0005-00-0001-50.png
00000009,247,1,1449586541863,1449586542800,416,227,0,0,0,2,3,1,5,0003-00-0000-01.png,0002-00-0000-08.png
00000009,248,1,1449586543729,1449586544840,888,315,0,0,0,4,3,1,7,0001-00-0000-83.png,0002-00-0001-47.png
00000009,249,0,1449586545776,1449586546775,453,236,0,0,0,2,1,1,3,0003-00-0001-28.png,0004-00-0001-62.png
00000009,250,0,1449586549658,1449586550205,1026,279,0,0,0,3,4,1,7,0002-00-0000-36.png,0001-00-0000-22.png
00000009,251,0,1449586553158,1449586553766,471,286,0,0,0,1,0,1,1,0004-00-0001-69.png,0005-00-0001-20.png
00000009,252,0,1449586556896,1449586556932,888,306,0,0,0,2,3,1,5,0003-00-0001-63.png,0002-00-0001-09.png
00000009,253,0,1449586560016,1449586560040,913,332,0,0,0,1,2,1,3,0004-00-0001-72.png,0003-00-0001-21.png
00000009,254,1,1449586562966,1449586563551,978,364,0,0,0,3,2,1,5,0002-00-0001-06.png,0003-00-0001-38.png
00000009,255,1,1449586564417,1449586565088,1016,253,0,0,0,4,3,1,7,0001-00-0000-66.png,0002-00-0001-77.png
00000009,256,1,1449586566027,1449586566875,447,361,0,0,0,0,1,1,1,0005-00-0001-00.png,0004-00-0001-37.png
00000009,257,0,1449586567849,1449586570569,489,301,0,0,0,4,3,1,7,0001-00-0001-77.png,0002-00-0000-12.png
00000009,258,0,1449586573939,1449586573975,862,319,0,0,0,0,1,1,1,0005-00-0000-64.png,0004-00-0001-23.png
00000009,259,1,1449586577199,1449586577699,1033,253,0,0,0,1,0,1,1,0004-00-0000-26.png,0005-00-0000-25.png
00000009,260,0,1449586578531,1449586579141,933,336,0,0,0,3,4,1,7,0002-00-0000-77.png,0001-00-0000-18.png
00000009,261,0,1449586583429,1449586584067,444,381,0,0,0,3,2,1,5,0002-00-0001-77.png,0003-00-0001-73.png
00000009,262,1,1449586586985,1449586587687,522,288,0,0,0,1,2,1,3,0004-00-0001-81.png,0003-00-0001-08.png
00000009,263,0,1449586588553,1449586589361,939,315,0,0,0,2,3,1,5,0003-00-0000-46.png,0002-00-0001-67.png
00000009,264,1,1449586592493,1449586592605,887,371,0,0,0,2,1,1,3,0003-00-0001-72.png,0004-00-0000-83.png
00000009,265,1,1449586593495,1449586594199,483,270,0,0,0,0,1,1,1,0005-00-0000-32.png,0004-00-0000-07.png
00000009,266,0,1449586595114,1449586595880,490,238,0,0,0,4,3,1,7,0001-00-0000-22.png,0002-00-0001-45.png
00000009,267,1,1449586598972,1449586599536,1082,279,0,0,0,2,1,1,3,0003-00-0000-44.png,0004-00-0001-31.png
00000009,268,0,1449586600469,1449586601213,477,255,0,0,0,3,2,1,5,0002-00-0001-11.png,0003-00-0000-81.png
00000009,269,1,1449586604507,1449586605548,468,248,0,0,0,3,4,1,7,0002-00-0000-89.png,0001-00-0000-88.png
00000009,270,1,1449586606485,1449586607548,498,242,0,0,0,2,3,1,5,0003-00-0001-61.png,0002-00-0001-65.png
00000009,271,0,1449586608491,1449586609325,949,350,0,0,0,1,2,1,3,0004-00-0001-50.png,0003-00-0000-67.png
00000009,272,1,1449586612467,1449586612669,913,279,0,0,0,1,0,1,1,0004-00-0001-55.png,0005-00-0000-84.png
00000009,273,0,1449586613650,1449586614530,915,303,0,0,0,2,3,1,5,0003-00-0000-65.png,0002-00-0001-84.png
00000009,274,1,1449586617695,1449586618528,409,349,0,0,0,1,2,1,3,0004-00-0000-06.png,0003-00-0001-99.png
00000009,275,1,1449586619381,1449586620310,922,384,0,0,0,2,1,1,3,0003-00-0001-50.png,0004-00-0001-46.png
00000009,276,1,1449586621338,1449586622135,453,239,0,0,0,3,4,1,7,0002-00-0001-52.png,0001-00-0001-59.png
00000009,277,0,1449586623098,1449586623826,478,240,0,0,0,3,2,1,5,0002-00-0001-09.png,0003-00-0000-80.png
00000009,278,1,1449586627006,1449586627054,933,315,0,0,0,1,0,1,1,0004-00-0001-99.png,0005-00-0000-22.png
00000009,279,1,1449586628010,1449586628794,461,231,0,0,0,0,1,1,1,0005-00-0000-16.png,0004-00-0001-18.png
00000009,280,0,1449586629708,1449586630778,408,375,0,0,0,4,3,1,7,0001-00-0001-50.png,0002-00-0001-73.png
00000009,281,0,1449586633661,1449586634701,478,265,0,0,0,4,3,1,7,0001-00-0001-25.png,0002-00-0000-51.png
00000009,282,0,1449586637868,1449586638088,888,398,0,0,0,1,2,1,3,0004-00-0000-03.png,0003-00-0001-78.png
00000009,283,1,1449586641325,1449586641859,1085,319,0,0,0,2,1,1,3,0003-00-0001-35.png,0004-00-0000-03.png
00000009,284,1,1449586643771,1449586644483,491,268,0,0,0,2,3,1,5,0003-00-0000-92.png,0002-00-0001-59.png
00000009,285,1,1449586645400,1449586646088,427,369,0,0,0,0,1,1,1,0005-00-0001-89.png,0004-00-0000-16.png
00000009,286,1,1449586647020,1449586648250,478,253,0,0,0,3,4,1,7,0002-00-0000-77.png,0001-00-0001-28.png
00000009,287,1,1449586649306,1449586650212,947,312,0,0,0,3,2,1,5,0002-00-0000-34.png,0003-00-0001-52.png
00000009,288,1,1449586651093,1449586652097,922,335,0,0,0,1,0,1,1,0004-00-0001-21.png,0005-00-0000-73.png
00000009,289,0,1449586653072,1449586654032,931,383,0,0,0,1,2,1,3,0004-00-0001-17.png,0003-00-0000-10.png
00000009,290,1,1449586657127,1449586657155,870,329,0,0,0,1,0,1,1,0004-00-0001-30.png,0005-00-0001-23.png
00000009,291,1,1449586658099,1449586658800,478,267,0,0,0,3,4,1,7,0002-00-0000-49.png,0001-00-0000-65.png
00000009,292,1,1449586659899,1449586660918,417,346,0,0,0,2,3,1,5,0003-00-0001-36.png,0002-00-0001-50.png
00000009,293,1,1449586661915,1449586663025,943,306,0,0,0,3,2,1,5,0002-00-0000-21.png,0003-00-0001-65.png
00000009,294,1,1449586663992,1449586666366,410,377,0,0,0,0,1,1,1,0005-00-0001-52.png,0004-00-0000-85.png
00000009,295,0,1449586667302,1449586668324,512,268,0,0,0,4,3,1,7,0001-00-0000-54.png,0002-00-0001-66.png
00000009,296,1,1449586671636,1449586672119,968,331,0,0,0,2,1,1,3,0003-00-0000-13.png,0004-00-0001-23.png
00000009,297,1,1449586673006,1449586674011,939,306,0,0,0,3,2,1,5,0002-00-0000-86.png,0003-00-0000-10.png
00000009,298,1,1449586674995,1449586676261,940,371,0,0,0,4,3,1,7,0001-00-0001-47.png,0002-00-0001-10.png
00000009,299,1,1449586677230,1449586678281,496,227,0,0,0,3,4,1,7,0002-00-0000-02.png,0001-00-0000-11.png
00000009,300,0,1449586679312,1449586680280,403,339,0,0,0,2,1,1,3,0003-00-0001-32.png,0004-00-0000-83.png
00000009,301,1,1449586683351,1449586683843,517,283,0,0,0,0,1,1,1,0005-00-0001-48.png,0004-00-0000-70.png
00000009,302,1,1449586684731,1449586685626,513,253,0,0,0,1,2,1,3,0004-00-0000-09.png,0003-00-0000-15.png
00000009,303,0,1449586686580,1449586687353,939,291,0,0,0,2,3,1,5,0003-00-0001-08.png,0002-00-0000-39.png
00000009,304,1,1449586690456,1449586691232,1043,259,0,0,0,1,0,1,1,0004-00-0001-30.png,0005-00-0001-49.png
00000009,305,1,1449586692133,1449586692961,519,222,0,0,0,0,1,1,1,0005-00-0001-18.png,0004-00-0001-76.png
00000009,306,1,1449586693883,1449586693903,520,521,0,0,0,3,4,1,7,0002-00-0001-84.png,0001-00-0000-25.png
00000009,307,1,1449586695065,1449586696164,1016,289,0,0,0,2,1,1,3,0003-00-0001-14.png,0004-00-0001-96.png
00000009,308,1,1449586697183,1449586698174,1041,279,0,0,0,1,0,1,1,0004-00-0001-84.png,0005-00-0001-41.png
00000009,309,1,1449586699069,1449586700320,478,266,0,0,0,2,3,1,5,0003-00-0001-89.png,0002-00-0000-27.png
00000009,310,0,1449586701525,1449586702551,468,240,0,0,0,4,3,1,7,0001-00-0001-95.png,0002-00-0000-82.png
00000009,311,1,1449586705668,1449586706221,939,369,0,0,0,3,2,1,5,0002-00-0001-29.png,0003-00-0001-98.png
00000009,312,1,1449586707139,1449586708047,497,261,0,0,0,1,2,1,3,0004-00-0000-59.png,0003-00-0000-76.png
00000009,313,1,1449586709652,1449586710221,1038,328,0,0,0,1,0,1,1,0004-00-0001-83.png,0005-00-0000-43.png
00000009,314,1,1449586711186,1449586712375,469,274,0,0,0,2,3,1,5,0003-00-0000-30.png,0002-00-0000-70.png
00000009,315,1,1449586713371,1449586714153,388,318,0,0,0,0,1,1,1,0005-00-0001-69.png,0004-00-0001-05.png
00000009,316,1,1449586715130,1449586716358,939,315,0,0,0,3,2,1,5,0002-00-0000-90.png,0003-00-0000-79.png
00000009,317,0,1449586717490,1449586718506,1013,283,0,0,0,1,2,1,3,0004-00-0000-52.png,0003-00-0000-05.png
00000009,318,1,1449586721325,1449586721921,948,359,0,0,0,4,3,1,7,0001-00-0000-41.png,0002-00-0000-36.png
00000009,319,1,1449586722896,1449586723971,483,231,0,0,0,3,4,1,7,0002-00-0001-03.png,0001-00-0001-69.png
00000009,320,0,1449586724946,1449586725814,466,252,0,0,0,2,1,1,3,0003-00-0001-70.png,0004-00-0000-48.png
00000009,321,1,1449586728692,1449586729348,502,288,0,0,0,2,3,1,5,0003-00-0001-04.png,0002-00-0000-84.png
00000009,322,1,1449586730211,1449586731234,933,309,0,0,0,2,1,1,3,0003-00-0000-91.png,0004-00-0000-98.png
00000009,323,1,1449586732220,1449586733103,910,333,0,0,0,1,0,1,1,0004-00-0000-44.png,0005-00-0000-56.png
00000009,324,0,1449586734059,1449586734961,421,330,0,0,0,4,3,1,7,0001-00-0000-48.png,0002-00-0001-63.png
00000009,325,1,1449586738064,1449586738675,496,258,0,0,0,0,1,1,1,0005-00-0001-59.png,0004-00-0000-87.png
00000009,326,0,1449586739565,1449586740640,479,262,0,0,0,3,2,1,5,0002-00-0000-88.png,0003-00-0000-61.png
00000009,327,0,1449586743848,1449586744421,1016,279,0,0,0,3,4,1,7,0002-00-0001-89.png,0001-00-0000-73.png
00000009,328,0,1449586747565,1449586747581,893,326,0,0,0,1,2,1,3,0004-00-0001-31.png,0003-00-0001-54.png
00000009,329,1,1449586750773,1449586750789,900,320,0,0,0,3,2,1,5,0002-00-0000-61.png,0003-00-0001-06.png
00000009,330,1,1449586751746,1449586752681,488,255,0,0,0,1,2,1,3,0004-00-0001-47.png,0003-00-0000-03.png
00000009,331,1,1449586753635,1449586754587,1024,274,0,0,0,1,0,1,1,0004-00-0000-39.png,0005-00-0000-96.png
00000009,332,1,1449586755625,1449586756330,510,243,0,0,0,0,1,1,1,0005-00-0001-84.png,0004-00-0001-55.png
00000009,333,0,1449586758376,1449586758396,881,292,0,0,0,3,4,1,7,0002-00-0000-67.png,0001-00-0000-24.png
00000009,334,1,1449586761578,1449586762158,939,358,0,0,0,2,1,1,3,0003-00-0001-30.png,0004-00-0000-56.png
00000009,335,0,1449586763044,1449586764237,504,266,0,0,0,4,3,1,7,0001-00-0001-58.png,0002-00-0000-60.png
00000009,336,0,1449586767280,1449586767316,888,358,0,0,0,2,3,1,5,0003-00-0000-26.png,0002-00-0000-07.png
00000009,337,0,1449586770448,1449586770485,917,304,0,0,0,0,1,1,1,0005-00-0000-04.png,0004-00-0001-43.png
00000009,338,1,1449586773855,1449586773883,869,297,0,0,0,1,0,1,1,0004-00-0001-67.png,0005-00-0001-73.png
00000009,339,1,1449586774831,1449586775997,1066,281,0,0,0,3,2,1,5,0002-00-0000-58.png,0003-00-0001-29.png
00000009,340,0,1449586776981,1449586778180,512,250,0,0,0,2,1,1,3,0003-00-0000-76.png,0004-00-0001-29.png
00000009,341,0,1449586781382,1449586782129,1041,279,0,0,0,2,3,1,5,0003-00-0001-84.png,0002-00-0000-44.png
00000009,342,0,1449586785148,1449586785798,939,396,0,0,0,3,4,1,7,0002-00-0000-00.png,0001-00-0000-54.png
00000009,343,0,1449586788741,1449586788958,993,303,0,0,0,1,2,1,3,0004-00-0001-16.png,0003-00-0001-31.png
00000009,344,1,1449586792063,1449586792091,867,337,0,0,0,4,3,1,7,0001-00-0000-91.png,0002-00-0000-44.png
00000009,345,1,1449586793047,1449586794068,495,253,0,0,0,1,2,1,3,0004-00-0000-48.png,0003-00-0000-98.png
00000009,346,1,1449586794994,1449586795971,913,304,0,0,0,4,3,1,7,0001-00-0001-73.png,0002-00-0000-30.png
00000009,347,1,1449586796964,1449586796988,859,452,0,0,0,1,0,1,1,0004-00-0000-59.png,0005-00-0001-67.png
00000009,348,1,1449586798086,1449586799146,510,239,0,0,0,2,3,1,5,0003-00-0001-18.png,0002-00-0000-43.png
00000009,349,1,1449586800111,1449586801136,913,401,0,0,0,2,1,1,3,0003-00-0000-61.png,0004-00-0001-84.png
00000009,350,1,1449586802079,1449586803070,918,336,0,0,0,3,2,1,5,0002-00-0001-62.png,0003-00-0000-99.png
00000009,351,0,1449586804067,1449586805395,1016,279,0,0,0,3,4,1,7,0002-00-0001-75.png,0001-00-0000-41.png
00000009,352,0,1449586808460,1449586809092,939,358,0,0,0,0,1,1,1,0005-00-0000-18.png,0004-00-0000-33.png
00000009,353,1,1449586812225,1449586812879,961,425,0,0,0,3,2,1,5,0002-00-0000-69.png,0003-00-0000-03.png
00000009,354,0,1449586813816,1449586814662,519,234,0,0,0,4,3,1,7,0001-00-0001-66.png,0002-00-0001-14.png
00000009,355,0,1449586817972,1449586818056,967,274,0,0,0,2,3,1,5,0003-00-0001-99.png,0002-00-0000-37.png
00000009,356,0,1449586821180,1449586821924,1067,488,0,0,0,3,4,1,7,0002-00-0001-27.png,0001-00-0001-36.png
00000009,357,1,1449586825096,1449586825715,519,254,0,0,0,1,2,1,3,0004-00-0001-45.png,0003-00-0000-62.png
00000009,358,0,1449586826619,1449586827725,506,253,0,0,0,2,1,1,3,0003-00-0000-11.png,0004-00-0000-96.png
00000009,359,1,1449586830897,1449586831094,888,410,0,0,0,1,0,1,1,0004-00-0001-96.png,0005-00-0001-42.png
00000009,360,1,1449586832052,1449586832814,513,221,0,0,0,0,1,1,1,0005-00-0000-89.png,0004-00-0001-69.png
00000009,361,0,1449586833790,1449586834866,521,270,0,0,0,2,1,1,3,0003-00-0001-95.png,0004-00-0000-62.png
00000009,362,1,1449586837764,1449586838586,939,384,0,0,0,4,3,1,7,0001-00-0001-12.png,0002-00-0001-27.png
00000009,363,1,1449586839512,1449586840455,939,306,0,0,0,3,2,1,5,0002-00-0001-23.png,0003-00-0001-39.png
00000009,364,0,1449586841544,1449586842570,488,271,0,0,0,1,0,1,1,0004-00-0001-99.png,0005-00-0000-82.png
00000009,365,0,1449586845745,1449586845773,888,436,0,0,0,0,1,1,1,0005-00-0001-37.png,0004-00-0000-27.png
00000009,366,1,1449586848725,1449586849249,506,269,0,0,0,3,4,1,7,0002-00-0000-39.png,0001-00-0000-31.png
00000009,367,1,1449586850124,1449586851139,480,261,0,0,0,2,3,1,5,0003-00-0000-49.png,0002-00-0001-46.png
00000009,368,1,1449586852153,1449586853136,516,236,0,0,0,1,2,1,3,0004-00-0000-56.png,0003-00-0000-96.png
00000009,369,0,1449586854102,1449586855034,1016,288,0,0,0,1,2,1,3,0004-00-0000-31.png,0003-00-0000-91.png
00000009,370,0,1449586858166,1449586858852,954,354,0,0,0,2,3,1,5,0003-00-0000-45.png,0002-00-0000-87.png
00000009,371,1,1449586861981,1449586862617,517,278,0,0,0,3,4,1,7,0002-00-0001-09.png,0001-00-0000-32.png
00000009,372,1,1449586863631,1449586864333,519,233,0,0,0,0,1,1,1,0005-00-0000-40.png,0004-00-0001-11.png
00000009,373,1,1449586865309,1449586866356,970,308,0,0,0,2,1,1,3,0003-00-0000-48.png,0004-00-0000-41.png
00000009,374,0,1449586867408,1449586868230,474,396,0,0,0,3,2,1,5,0002-00-0000-22.png,0003-00-0001-74.png
00000009,375,1,1449586876748,1449586877261,990,431,0,0,0,1,0,1,1,0004-00-0000-64.png,0005-00-0000-09.png
00000009,376,0,1449586878354,1449586879379,498,244,0,0,0,4,3,1,7,0001-00-0001-75.png,0002-00-0001-28.png
00000009,377,1,1449586882518,1449586882590,972,302,0,0,0,3,2,1,5,0002-00-0001-88.png,0003-00-0000-01.png
00000009,378,1,1449586883562,1449586884600,408,350,0,0,0,2,3,1,5,0003-00-0001-91.png,0002-00-0001-29.png
00000009,379,1,1449586885658,1449586886551,928,282,0,0,0,1,0,1,1,0004-00-0001-98.png,0005-00-0000-98.png
00000009,380,0,1449586887546,1449586888586,1010,262,0,0,0,0,1,1,1,0005-00-0000-18.png,0004-00-0001-21.png
00000009,381,1,1449586891660,1449586892150,973,358,0,0,0,2,1,1,3,0003-00-0000-46.png,0004-00-0001-46.png
00000009,382,0,1449586893042,1449586894024,440,356,0,0,0,4,3,1,7,0001-00-0001-85.png,0002-00-0000-26.png
00000009,383,1,1449586896992,1449586897855,519,274,0,0,0,3,4,1,7,0002-00-0001-34.png,0001-00-0001-95.png
00000009,384,1,1449586898799,1449586899990,480,246,0,0,0,1,2,1,3,0004-00-0000-11.png,0003-00-0001-96.png
00000009,385,0,1449586901005,1449586901986,490,263,0,0,0,3,2,1,5,0002-00-0001-88.png,0003-00-0001-50.png
00000009,386,0,1449586905135,1449586905313,888,436,0,0,0,1,2,1,3,0004-00-0000-80.png,0003-00-0000-59.png
00000009,387,1,1449586908449,1449586908473,888,360,0,0,0,4,3,1,7,0001-00-0000-17.png,0002-00-0001-53.png
00000009,388,1,1449586909431,1449586910137,502,220,0,0,0,0,1,1,1,0005-00-0000-49.png,0004-00-0000-04.png
00000009,389,1,1449586911102,1449586912020,1009,273,0,0,0,2,1,1,3,0003-00-0001-64.png,0004-00-0001-47.png
00000009,390,1,1449586913029,1449586913814,937,399,0,0,0,1,0,1,1,0004-00-0001-74.png,0005-00-0000-68.png
00000009,391,0,1449586914718,1449586915832,928,306,0,0,0,2,3,1,5,0003-00-0001-85.png,0002-00-0000-98.png
00000009,392,1,1449586918684,1449586919464,492,255,0,0,0,3,4,1,7,0002-00-0000-46.png,0001-00-0000-73.png
00000009,393,1,1449586920451,1449586921326,511,269,0,0,0,3,4,1,7,0002-00-0000-15.png,0001-00-0001-98.png
00000009,394,1,1449586922310,1449586923132,1026,253,0,0,0,2,1,1,3,0003-00-0001-10.png,0004-00-0001-71.png
00000009,395,0,1449586924051,1449586925088,503,253,0,0,0,3,2,1,5,0002-00-0001-52.png,0003-00-0001-87.png
00000009,396,1,1449586935043,1449586935630,492,275,0,0,0,1,2,1,3,0004-00-0000-11.png,0003-00-0001-90.png
00000009,397,0,1449586936627,1449586937755,496,248,0,0,0,4,3,1,7,0001-00-0000-77.png,0002-00-0000-14.png
00000009,398,0,1449586940887,1449586941482,939,306,0,0,0,2,3,1,5,0003-00-0001-52.png,0002-00-0001-20.png
00000009,399,1,1449586944485,1449586945240,942,405,0,0,0,1,0,1,1,0004-00-0001-12.png,0005-00-0000-97.png
00000009,400,1,1449586946261,1449586946975,502,239,0,0,0,0,1,1,1,0005-00-0000-67.png,0004-00-0000-00.png
00000009,401,1,1449586947975,1449586949218,486,257,0,0,0,3,4,1,7,0002-00-0001-16.png,0001-00-0001-18.png
00000009,402,1,1449586950296,1449586951326,939,296,0,0,0,1,0,1,1,0004-00-0001-90.png,0005-00-0000-07.png
00000009,403,1,1449586952496,1449586953282,502,270,0,0,0,0,1,1,1,0005-00-0001-00.png,0004-00-0001-44.png
00000009,404,0,1449586954253,1449586955300,493,241,0,0,0,4,3,1,7,0001-00-0000-39.png,0002-00-0000-99.png
00000009,405,0,1449586958328,1449586958356,865,336,0,0,0,2,3,1,5,0003-00-0001-90.png,0002-00-0000-75.png
00000009,406,1,1449586972513,1449586972989,915,304,0,0,0,2,1,1,3,0003-00-0000-20.png,0004-00-0000-08.png
00000009,407,0,1449586973946,1449586975068,469,442,0,0,0,3,2,1,5,0002-00-0000-98.png,0003-00-0000-27.png
00000009,408,1,1449586978010,1449586978589,509,288,0,0,0,1,2,1,3,0004-00-0001-95.png,0003-00-0001-05.png
00000009,409,0,1449586979519,1449586980568,509,260,0,0,0,2,1,1,3,0003-00-0001-57.png,0004-00-0000-52.png
00000009,410,0,1449586987102,1449586987730,493,282,0,0,0,4,3,1,7,0001-00-0000-36.png,0002-00-0001-49.png
00000009,411,0,1449586991565,1449586992098,1016,279,0,0,0,2,3,1,5,0003-00-0000-52.png,0002-00-0001-35.png
00000009,412,1,1449586997318,1449586998046,470,253,0,0,0,3,4,1,7,0002-00-0001-48.png,0001-00-0001-28.png
00000009,413,0,1449586999040,1449587000060,507,272,0,0,0,3,2,1,5,0002-00-0001-59.png,0003-00-0000-15.png
00000009,414,0,1449587002891,1449587002911,888,410,0,0,0,0,1,1,1,0005-00-0001-48.png,0004-00-0000-31.png
00000009,415,0,1449587006094,1449587006109,895,319,0,0,0,1,2,1,3,0004-00-0000-73.png,0003-00-0001-76.png
00000009,416,1,1449587009242,1449587009817,939,410,0,0,0,1,0,1,1,0004-00-0000-70.png,0005-00-0001-56.png
00000009,417,0,1449587010691,1449587011533,939,400,0,0,0,1,2,1,3,0004-00-0001-28.png,0003-00-0001-52.png
00000009,418,1,1449587014427,1449587015033,1016,279,0,0,0,1,0,1,1,0004-00-0001-39.png,0005-00-0001-57.png
00000009,419,1,1449587015912,1449587016637,427,368,0,0,0,0,1,1,1,0005-00-0001-02.png,0004-00-0001-76.png
00000009,420,0,1449587017651,1449587017719,516,525,0,0,0,4,3,1,7,0001-00-0000-19.png,0002-00-0001-58.png
00000009,421,0,1449587020737,1449587021312,503,258,0,0,0,3,2,1,5,0002-00-0000-17.png,0003-00-0001-81.png
00000009,422,0,1449587024379,1449587024398,904,366,0,0,0,3,4,1,7,0002-00-0000-21.png,0001-00-0000-94.png
00000009,423,1,1449587027271,1449587027794,939,410,0,0,0,2,1,1,3,0003-00-0000-41.png,0004-00-0000-08.png
00000009,424,1,1449587028740,1449587029745,511,245,0,0,0,2,3,1,5,0003-00-0000-85.png,0002-00-0001-92.png
00000009,425,1,1449587030817,1449587031617,521,234,0,0,0,1,2,1,3,0004-00-0001-75.png,0003-00-0001-93.png
00000009,426,1,1449587032617,1449587033329,492,250,0,0,0,0,1,1,1,0005-00-0000-98.png,0004-00-0000-74.png
00000009,427,1,1449587035060,1449587035688,907,351,0,0,0,2,1,1,3,0003-00-0001-20.png,0004-00-0001-25.png
00000009,428,1,1449587036732,1449587037822,964,396,0,0,0,4,3,1,7,0001-00-0001-83.png,0002-00-0001-00.png
00000009,429,1,1449587038908,1449587040017,508,266,0,0,0,2,3,1,5,0003-00-0001-72.png,0002-00-0001-30.png
00000009,430,1,1449587041082,1449587042093,931,336,0,0,0,1,0,1,1,0004-00-0001-72.png,0005-00-0001-40.png
00000009,431,1,1449587043130,1449587044458,939,332,0,0,0,3,2,1,5,0002-00-0000-60.png,0003-00-0001-72.png
00000009,432,1,1449587045435,1449587046847,436,324,0,0,0,3,4,1,7,0002-00-0001-39.png,0001-00-0000-68.png
00000009,433,1,1449587047879,1449587047899,874,398,0,0,0,3,2,1,5,0002-00-0000-08.png,0003-00-0001-39.png
00000009,434,1,1449587049003,1449587050297,949,332,0,0,0,4,3,1,7,0001-00-0000-78.png,0002-00-0000-19.png
00000009,435,1,1449587051316,1449587052072,499,243,0,0,0,0,1,1,1,0005-00-0000-48.png,0004-00-0001-10.png
00000009,436,1,1449587053116,1449587054248,510,273,0,0,0,3,4,1,7,0002-00-0000-10.png,0001-00-0000-94.png
00000009,437,0,1449587055244,1449587056244,920,324,0,0,0,2,3,1,5,0003-00-0000-88.png,0002-00-0000-55.png
00000009,438,0,1449587059279,1449587059315,888,358,0,0,0,1,2,1,3,0004-00-0001-03.png,0003-00-0000-38.png
00000009,439,1,1449587062465,1449587062493,888,321,0,0,0,2,1,1,3,0003-00-0001-56.png,0004-00-0001-45.png
00000009,440,1,1449587063471,1449587064391,962,308,0,0,0,1,0,1,1,0004-00-0000-39.png,0005-00-0001-33.png
00000009,441,0,1449587065360,1449587067180,436,325,0,0,0,4,3,1,7,0001-00-0001-25.png,0002-00-0001-38.png
00000009,442,1,1449587070018,1449587070066,888,384,0,0,0,1,0,1,1,0004-00-0001-68.png,0005-00-0000-56.png
00000009,443,0,1449587071054,1449587072052,442,381,0,0,0,2,1,1,3,0003-00-0001-75.png,0004-00-0000-34.png
00000009,444,0,1449587075196,1449587075232,891,278,0,0,0,1,2,1,3,0004-00-0001-09.png,0003-00-0000-81.png
00000009,445,1,1449587078078,1449587078645,508,298,0,0,0,0,1,1,1,0005-00-0001-78.png,0004-00-0001-81.png
00000009,446,1,1449587079537,1449587080690,497,257,0,0,0,3,4,1,7,0002-00-0001-42.png,0001-00-0000-82.png
00000009,447,1,1449587081695,1449587081711,522,515,0,0,0,2,3,1,5,0003-00-0000-05.png,0002-00-0001-19.png
00000009,448,0,1449587082877,1449587083959,497,262,0,0,0,3,2,1,5,0002-00-0000-02.png,0003-00-0000-22.png
00000009,449,1,1449587086865,1449587087398,913,306,0,0,0,2,1,1,3,0003-00-0001-51.png,0004-00-0000-07.png
00000009,450,0,1449587088294,1449587089446,985,279,0,0,0,3,4,1,7,0002-00-0001-74.png,0001-00-0001-95.png
00000009,451,1,1449587092544,1449587093399,1044,282,0,0,0,4,3,1,7,0001-00-0000-11.png,0002-00-0001-22.png
00000009,452,0,1449587094355,1449587095402,1027,253,0,0,0,1,2,1,3,0004-00-0001-78.png,0003-00-0001-37.png
00000009,453,0,1449587098284,1449587098365,907,513,0,0,0,0,1,1,1,0005-00-0001-14.png,0004-00-0000-11.png
00000009,454,0,1449587101332,1449587101947,502,278,0,0,0,3,2,1,5,0002-00-0001-64.png,0003-00-0001-91.png
00000009,455,0,1449587104879,1449587104927,909,377,0,0,0,2,3,1,5,0003-00-0000-88.png,0002-00-0001-33.png
00000009,456,0,1449587107900,1449587108872,490,250,0,0,0,1,0,1,1,0004-00-0000-22.png,0005-00-0001-03.png
00000009,457,1,1449587111735,1449587112526,505,279,0,0,0,3,4,1,7,0002-00-0000-28.png,0001-00-0001-84.png
00000009,458,1,1449587113557,1449587114447,930,306,0,0,0,1,0,1,1,0004-00-0001-16.png,0005-00-0000-06.png
00000009,459,1,1449587115373,1449587116325,913,410,0,0,0,4,3,1,7,0001-00-0000-38.png,0002-00-0000-28.png
00000009,460,1,1449587117410,1449587117491,865,499,0,0,0,2,1,1,3,0003-00-0001-61.png,0004-00-0000-24.png
00000009,461,0,1449587118543,1449587118559,857,379,0,0,0,1,2,1,3,0004-00-0001-30.png,0003-00-0001-08.png
00000009,462,1,1449587121512,1449587122012,514,270,0,0,0,0,1,1,1,0005-00-0001-21.png,0004-00-0001-39.png
00000009,463,0,1449587122935,1449587123858,989,284,0,0,0,2,3,1,5,0003-00-0000-21.png,0002-00-0000-33.png
00000009,464,1,1449587126998,1449587127884,960,407,0,0,0,3,2,1,5,0002-00-0001-50.png,0003-00-0000-50.png
00000009,465,0,1449587128794,1449587129648,959,307,0,0,0,3,4,1,7,0002-00-0000-88.png,0001-00-0000-36.png
00000009,466,1,1449587132534,1449587133075,1041,279,0,0,0,1,0,1,1,0004-00-0001-91.png,0005-00-0001-92.png
00000009,467,1,1449587133996,1449587135009,1041,288,0,0,0,4,3,1,7,0001-00-0000-78.png,0002-00-0001-82.png
00000009,468,0,1449587136013,1449587137203,939,402,0,0,0,1,2,1,3,0004-00-0000-99.png,0003-00-0000-40.png
00000009,469,1,1449587140156,1449587140828,504,262,0,0,0,2,3,1,5,0003-00-0001-38.png,0002-00-0000-18.png
00000009,470,1,1449587141776,1449587142665,945,296,0,0,0,2,1,1,3,0003-00-0000-41.png,0004-00-0000-77.png
00000009,471,1,1449587143604,1449587143782,861,556,0,0,0,3,2,1,5,0002-00-0000-63.png,0003-00-0001-75.png
00000009,472,1,1449587144944,1449587145748,420,336,0,0,0,0,1,1,1,0005-00-0001-83.png,0004-00-0001-82.png
00000009,473,1,1449587146714,1449587147649,924,395,0,0,0,2,1,1,3,0003-00-0001-60.png,0004-00-0001-72.png
00000009,474,1,1449587148722,1449587148746,888,384,0,0,0,1,0,1,1,0004-00-0001-60.png,0005-00-0001-74.png
00000009,475,1,1449587149923,1449587150946,493,241,0,0,0,3,4,1,7,0002-00-0000-44.png,0001-00-0001-85.png
00000009,476,0,1449587151951,1449587153475,509,242,0,0,0,3,2,1,5,0002-00-0001-49.png,0003-00-0001-78.png
00000009,477,0,1449587156633,1449587158108,486,271,0,0,0,4,3,1,7,0001-00-0001-06.png,0002-00-0000-93.png
00000009,478,0,1449587161253,1449587161277,910,328,0,0,0,2,3,1,5,0003-00-0001-44.png,0002-00-0001-95.png
00000009,479,1,1449587164421,1449587164972,504,289,0,0,0,1,2,1,3,0004-00-0000-34.png,0003-00-0000-13.png
00000009,480,1,1449587165880,1449587166778,489,244,0,0,0,0,1,1,1,0005-00-0000-56.png,0004-00-0000-94.png
00000009,481,1,1449587167741,1449587168936,939,394,0,0,0,3,2,1,5,0002-00-0001-33.png,0003-00-0001-14.png
00000009,482,1,1449587169907,1449587170603,517,243,0,0,0,0,1,1,1,0005-00-0001-01.png,0004-00-0001-50.png
00000009,483,0,1449587171537,1449587172513,918,341,0,0,0,2,3,1,5,0003-00-0000-67.png,0002-00-0001-08.png
00000009,484,1,1449587175393,1449587175401,887,371,0,0,0,1,0,1,1,0004-00-0000-73.png,0005-00-0001-25.png
00000009,485,1,1449587176386,1449587177154,408,335,0,0,0,1,2,1,3,0004-00-0000-42.png,0003-00-0001-03.png
00000009,486,1,1449587178224,1449587179237,911,340,0,0,0,2,1,1,3,0003-00-0001-93.png,0004-00-0000-01.png
00000009,487,0,1449587180221,1449587180289,875,427,0,0,0,3,4,1,7,0002-00-0000-09.png,0001-00-0001-45.png
00000009,488,1,1449587183142,1449587183760,1018,295,0,0,0,4,3,1,7,0001-00-0000-78.png,0002-00-0000-53.png
00000009,489,0,1449587184743,1449587186055,1019,277,0,0,0,2,3,1,5,0003-00-0001-05.png,0002-00-0001-61.png
00000009,490,1,1449587189043,1449587189600,401,344,0,0,0,0,1,1,1,0005-00-0001-80.png,0004-00-0001-39.png
00000009,491,0,1449587190608,1449587191345,515,252,0,0,0,4,3,1,7,0001-00-0001-80.png,0002-00-0000-75.png
00000009,492,0,1449587194559,1449587195234,494,243,0,0,0,3,2,1,5,0002-00-0000-33.png,0003-00-0001-80.png
00000009,493,0,1449587198397,1449587198433,913,333,0,0,0,1,2,1,3,0004-00-0001-94.png,0003-00-0000-00.png
00000009,494,0,1449587201578,1449587201685,858,277,0,0,0,3,4,1,7,0002-00-0001-75.png,0001-00-0000-49.png
00000009,495,1,1449587204887,1449587205584,969,384,0,0,0,1,0,1,1,0004-00-0001-69.png,0005-00-0001-99.png
00000009,496,0,1449587206557,1449587207589,504,258,0,0,0,2,1,1,3,0003-00-0001-98.png,0004-00-0000-16.png
00000009,497,1,1449587210781,1449587211361,509,253,0,0,0,2,3,1,5,0003-00-0001-37.png,0002-00-0001-80.png
00000009,498,1,1449587212422,1449587213534,495,260,0,0,0,3,4,1,7,0002-00-0000-97.png,0001-00-0000-14.png
00000009,499,1,1449587214525,1449587215554,471,261,0,0,0,1,2,1,3,0004-00-0000-23.png,0003-00-0000-26.png
00000009,500,1,1449587216620,1449587217406,498,244,0,0,0,0,1,1,1,0005-00-0000-82.png,0004-00-0000-27.png
00000009,501,1,1449587218371,1449587219645,1042,266,0,0,0,3,2,1,5,0002-00-0000-73.png,0003-00-0000-76.png
00000009,502,1,1449587220836,1449587221693,911,298,0,0,0,2,1,1,3,0003-00-0001-31.png,0004-00-0001-95.png
00000009,503,1,1449587222795,1449587223569,920,321,0,0,0,1,0,1,1,0004-00-0001-45.png,0005-00-0000-90.png
00000009,504,1,1449587224492,1449587226132,939,423,0,0,0,4,3,1,7,0001-00-0000-60.png,0002-00-0000-09.png
00000009,505,1,1449587227157,1449587228375,922,301,0,0,0,4,3,1,7,0001-00-0001-47.png,0002-00-0000-28.png
00000009,506,0,1449587229371,1449587229426,888,439,0,0,0,2,3,1,5,0003-00-0001-60.png,0002-00-0001-20.png
00000009,507,1,1449587232450,1449587232998,478,289,0,0,0,1,2,1,3,0004-00-0001-77.png,0003-00-0000-69.png
00000009,508,0,1449587233933,1449587234633,498,262,0,0,0,1,0,1,1,0004-00-0000-30.png,0005-00-0000-29.png
00000009,509,0,1449587237667,1449587237828,880,402,0,0,0,3,4,1,7,0002-00-0001-61.png,0001-00-0000-70.png
00000009,510,1,1449587241008,1449587241574,1041,264,0,0,0,3,2,1,5,0002-00-0001-45.png,0003-00-0000-33.png
00000009,511,1,1449587242574,1449587243264,462,358,0,0,0,0,1,1,1,0005-00-0001-26.png,0004-00-0000-82.png
00000009,512,1,1449587244229,1449587245228,940,308,0,0,0,2,1,1,3,0003-00-0000-12.png,0004-00-0000-71.png
00000009,513,0,1449587246254,1449587246347,905,523,0,0,0,0,1,1,1,0005-00-0000-17.png,0004-00-0000-57.png
00000009,514,1,1449587249739,1449587250431,478,274,0,0,0,3,4,1,7,0002-00-0000-27.png,0001-00-0001-18.png
00000009,515,0,1449587251372,1449587252223,907,370,0,0,0,1,2,1,3,0004-00-0000-21.png,0003-00-0000-28.png
00000009,516,1,1449587255119,1449587255846,473,390,0,0,0,2,3,1,5,0003-00-0000-66.png,0002-00-0001-11.png
00000009,517,0,1449587256767,1449587257652,503,239,0,0,0,1,0,1,1,0004-00-0001-44.png,0005-00-0001-80.png
00000009,518,1,1449587261121,1449587261153,890,302,0,0,0,4,3,1,7,0001-00-0001-86.png,0002-00-0000-63.png
00000009,519,0,1449587262084,1449587263205,483,260,0,0,0,3,2,1,5,0002-00-0001-90.png,0003-00-0001-31.png
00000009,520,1,1449587266180,1449587266679,1051,279,0,0,0,2,1,1,3,0003-00-0001-44.png,0004-00-0001-37.png
00000009,521,1,1449587267643,1449587268563,939,294,0,0,0,1,0,1,1,0004-00-0000-05.png,0005-00-0001-32.png
00000009,522,0,1449587269488,1449587270540,912,313,0,0,0,2,3,1,5,0003-00-0000-65.png,0002-00-0000-35.png
00000009,523,1,1449587273393,1449587274207,504,237,0,0,0,3,4,1,7,0002-00-0001-77.png,0001-00-0000-19.png
00000009,524,1,1449587275278,1449587276300,960,413,0,0,0,3,2,1,5,0002-00-0000-80.png,0003-00-0001-75.png
00000009,525,0,1449587277289,1449587277313,868,389,0,0,0,1,2,1,3,0004-00-0000-82.png,0003-00-0001-12.png
00000009,526,1,1449587280397,1449587281024,427,350,0,0,0,0,1,1,1,0005-00-0001-74.png,0004-00-0001-56.png
00000009,527,1,1449587281968,1449587282761,923,402,0,0,0,2,1,1,3,0003-00-0001-83.png,0004-00-0000-88.png
00000009,528,0,1449587283748,1449587284441,487,241,0,0,0,4,3,1,7,0001-00-0001-48.png,0002-00-0001-88.png
00000009,529,0,1449587287573,1449587287609,898,304,0,0,0,3,4,1,7,0002-00-0001-56.png,0001-00-0001-21.png
00000009,530,0,1449587290661,1449587290689,896,332,0,0,0,0,1,1,1,0005-00-0001-22.png,0004-00-0000-32.png
00000009,531,1,1449587293513,1449587294068,939,358,0,0,0,1,0,1,1,0004-00-0001-97.png,0005-00-0000-45.png
00000009,532,0,1449587294984,1449587296508,493,253,0,0,0,2,1,1,3,0003-00-0000-06.png,0004-00-0000-51.png
00000009,533,0,1449587299602,1449587299634,888,345,0,0,0,2,3,1,5,0003-00-0000-71.png,0002-00-0001-75.png
00000009,534,0,1449587302788,1449587303531,453,373,0,0,0,4,3,1,7,0001-00-0001-78.png,0002-00-0000-92.png
00000009,535,1,1449587306684,1449587307259,1039,314,0,0,0,3,2,1,5,0002-00-0001-19.png,0003-00-0001-47.png
00000009,536,1,1449587308276,1449587308978,497,236,0,0,0,1,2,1,3,0004-00-0001-59.png,0003-00-0001-09.png
00000009,537,1,1449587309902,1449587310685,913,288,0,0,0,1,0,1,1,0004-00-0000-90.png,0005-00-0000-40.png
00000009,538,1,1449587311652,1449587312763,478,262,0,0,0,2,3,1,5,0003-00-0001-98.png,0002-00-0000-84.png
00000009,539,1,1449587313868,1449587314568,459,435,0,0,0,0,1,1,1,0005-00-0001-99.png,0004-00-0000-12.png
00000009,540,1,1449587315557,1449587316391,990,238,0,0,0,2,1,1,3,0003-00-0001-41.png,0004-00-0000-07.png
00000009,541,0,1449587317306,1449587318632,1010,283,0,0,0,3,4,1,7,0002-00-0001-95.png,0001-00-0001-75.png
00000009,542,0,1449587322046,1449587322089,901,339,0,0,0,1,2,1,3,0004-00-0000-51.png,0003-00-0001-99.png
00000009,543,1,1449587324955,1449587325605,1091,435,0,0,0,3,2,1,5,0002-00-0000-18.png,0003-00-0000-56.png
00000009,544,1,1449587326563,1449587327456,1023,285,0,0,0,4,3,1,7,0001-00-0001-17.png,0002-00-0000-39.png
00000009,545,1,1449587328443,1449587329137,516,217,0,0,0,1,2,1,3,0004-00-0000-53.png,0003-00-0001-95.png
00000009,546,1,1449587330373,1449587331195,922,347,0,0,0,2,1,1,3,0003-00-0001-06.png,0004-00-0001-76.png
00000009,547,1,1449587332232,1449587333494,1014,278,0,0,0,3,2,1,5,0002-00-0001-49.png,0003-00-0001-84.png
00000009,548,0,1449587334535,1449587334551,865,383,0,0,0,0,1,1,1,0005-00-0001-18.png,0004-00-0000-50.png
00000009,549,0,1449587337659,1449587338205,940,322,0,0,0,2,3,1,5,0003-00-0001-12.png,0002-00-0000-68.png
00000009,550,0,1449587341295,1449587341825,965,324,0,0,0,3,4,1,7,0002-00-0001-08.png,0001-00-0000-87.png
00000009,551,0,1449587344772,1449587344831,523,472,0,0,0,4,3,1,7,0001-00-0001-25.png,0002-00-0001-98.png
00000009,552,1,1449587347865,1449587348532,964,293,0,0,0,1,0,1,1,0004-00-0000-95.png,0005-00-0001-77.png
00000009,553,1,1449587349514,1449587350247,516,238,0,0,0,1,2,1,3,0004-00-0000-41.png,0003-00-0001-71.png
00000009,554,0,1449587351172,1449587352188,939,291,0,0,0,2,3,1,5,0003-00-0000-57.png,0002-00-0000-68.png
00000009,555,1,1449587355228,1449587355841,964,364,0,0,0,3,2,1,5,0002-00-0000-61.png,0003-00-0001-97.png
00000009,556,1,1449587356828,1449587357682,487,227,0,0,0,0,1,1,1,0005-00-0001-70.png,0004-00-0000-95.png
00000009,557,1,1449587358657,1449587359408,908,316,0,0,0,1,0,1,1,0004-00-0000-45.png,0005-00-0000-12.png
00000009,558,0,1449587360375,1449587361791,1031,279,0,0,0,3,4,1,7,0002-00-0000-43.png,0001-00-0000-74.png
00000009,559,1,1449587364903,1449587365450,962,412,0,0,0,2,1,1,3,0003-00-0000-19.png,0004-00-0000-59.png
00000009,560,0,1449587366441,1449587367200,445,335,0,0,0,4,3,1,7,0001-00-0000-06.png,0002-00-0000-74.png
00000009,561,0,1449587370361,1449587370417,964,345,0,0,0,1,2,1,3,0004-00-0000-68.png,0003-00-0001-40.png
00000009,562,1,1449587373392,1449587374037,964,401,0,0,0,1,0,1,1,0004-00-0001-09.png,0005-00-0000-81.png
00000009,563,0,1449587374960,1449587376024,510,253,0,0,0,3,2,1,5,0002-00-0000-67.png,0003-00-0001-55.png
00000009,564,1,1449587378957,1449587378985,859,356,0,0,0,2,1,1,3,0003-00-0001-94.png,0004-00-0000-55.png
00000009,565,1,1449587380002,1449587380669,510,239,0,0,0,0,1,1,1,0005-00-0001-55.png,0004-00-0001-18.png
00000009,566,0,1449587381700,1449587382731,1013,283,0,0,0,3,4,1,7,0002-00-0000-40.png,0001-00-0000-56.png
00000009,567,0,1449587385873,1449587386461,478,394,0,0,0,4,3,1,7,0001-00-0001-32.png,0002-00-0001-17.png
00000009,568,0,1449587389472,1449587390003,1050,287,0,0,0,2,3,1,5,0003-00-0000-73.png,0002-00-0001-00.png
00000009,569,0,1449587393129,1449587393153,877,331,0,0,0,0,1,1,1,0005-00-0001-77.png,0004-00-0001-35.png
00000009,570,1,1449587396129,1449587396665,1050,254,0,0,0,2,1,1,3,0003-00-0001-96.png,0004-00-0000-88.png
00000009,571,1,1449587397560,1449587398476,419,313,0,0,0,2,3,1,5,0003-00-0000-72.png,0002-00-0001-67.png
00000009,572,0,1449587399428,1449587400729,947,351,0,0,0,3,4,1,7,0002-00-0001-51.png,0001-00-0000-19.png
00000009,573,1,1449587403821,1449587404338,488,262,0,0,0,1,2,1,3,0004-00-0000-55.png,0003-00-0001-18.png
00000009,574,0,1449587405292,1449587405973,510,234,0,0,0,1,0,1,1,0004-00-0001-34.png,0005-00-0001-72.png
00000009,575,1,1449587409424,1449587409472,913,342,0,0,0,4,3,1,7,0001-00-0001-22.png,0002-00-0000-07.png
00000009,576,0,1449587410448,1449587411361,494,241,0,0,0,3,2,1,5,0002-00-0000-97.png,0003-00-0000-89.png
00000009,577,1,1449587415068,1449587415606,1013,268,0,0,0,2,1,1,3,0003-00-0001-45.png,0004-00-0001-23.png
00000009,578,1,1449587416616,1449587417298,509,234,0,0,0,0,1,1,1,0005-00-0001-84.png,0004-00-0001-04.png
00000009,579,1,1449587418239,1449587419004,417,362,0,0,0,1,2,1,3,0004-00-0001-88.png,0003-00-0001-86.png
00000009,580,0,1449587420074,1449587421117,922,283,0,0,0,3,4,1,7,0002-00-0000-62.png,0001-00-0001-83.png
00000009,581,1,1449587424260,1449587424288,888,306,0,0,0,1,0,1,1,0004-00-0000-80.png,0005-00-0001-57.png
00000009,582,1,1449587425265,1449587426560,510,271,0,0,0,2,3,1,5,0003-00-0001-38.png,0002-00-0001-43.png
00000009,583,0,1449587427556,1449587428332,515,238,0,0,0,4,3,1,7,0001-00-0001-91.png,0002-00-0000-92.png
00000009,584,1,1449587431227,1449587431283,908,300,0,0,0,3,2,1,5,0002-00-0001-26.png,0003-00-0000-94.png
00000009,585,1,1449587432289,1449587433334,491,244,0,0,0,2,3,1,5,0003-00-0000-69.png,0002-00-0001-94.png
00000009,586,1,1449587434365,1449587435385,471,392,0,0,0,3,4,1,7,0002-00-0001-44.png,0001-00-0001-34.png
00000009,587,1,1449587436394,1449587437246,518,232,0,0,0,1,2,1,3,0004-00-0001-91.png,0003-00-0000-28.png
00000009,588,1,1449587438419,1449587439147,1169,358,0,0,0,4,3,1,7,0001-00-0001-85.png,0002-00-0000-26.png
00000009,589,1,1449587440399,1449587441117,934,311,0,0,0,2,1,1,3,0003-00-0000-96.png,0004-00-0000-60.png
00000009,590,1,1449587442197,1449587442205,857,371,0,0,0,1,0,1,1,0004-00-0000-29.png,0005-00-0000-41.png
00000009,591,1,1449587444045,1449587444930,1033,289,0,0,0,3,2,1,5,0002-00-0000-37.png,0003-00-0001-34.png
00000009,592,0,1449587445934,1449587445990,873,486,0,0,0,0,1,1,1,0005-00-0001-74.png,0004-00-0001-85.png
00000009,593,1,1449587449022,1449587449059,895,377,0,0,0,3,2,1,5,0002-00-0000-11.png,0003-00-0000-65.png
00000009,594,0,1449587450138,1449587451246,908,303,0,0,0,3,4,1,7,0002-00-0000-76.png,0001-00-0000-19.png
00000009,595,1,1449587454476,1449587454504,896,344,0,0,0,4,3,1,7,0001-00-0000-57.png,0002-00-0001-40.png
00000009,596,1,1449587455483,1449587456476,502,255,0,0,0,1,2,1,3,0004-00-0001-69.png,0003-00-0001-87.png
00000009,597,1,1449587457578,1449587458314,1007,279,0,0,0,2,1,1,3,0003-00-0000-84.png,0004-00-0000-14.png
00000009,598,0,1449587459308,1449587459324,866,378,0,0,0,2,3,1,5,0003-00-0001-46.png,0002-00-0000-77.png
00000009,599,0,1449587462477,1449587462489,866,344,0,0,0,0,1,1,1,0005-00-0001-82.png,0004-00-0000-56.png
00000009,600,1,1449587465529,1449587465553,865,386,0,0,0,1,0,1,1,0004-00-0001-78.png,0005-00-0001-32.png
00000009,601,1,1449587466492,1449587467586,422,320,0,0,0,3,4,1,7,0002-00-0000-78.png,0001-00-0000-27.png
00000009,602,1,1449587468650,1449587469378,913,344,0,0,0,2,1,1,3,0003-00-0001-36.png,0004-00-0001-41.png
00000009,603,1,1449587470478,1449587471491,511,244,0,0,0,1,2,1,3,0004-00-0000-33.png,0003-00-0000-31.png
00000009,604,1,1449587473091,1449587474015,484,281,0,0,0,2,3,1,5,0003-00-0000-58.png,0002-00-0000-63.png
00000009,605,1,1449587475048,1449587475097,877,352,0,0,0,1,0,1,1,0004-00-0001-76.png,0005-00-0000-58.png
00000009,606,1,1449587476449,1449587478452,1042,254,0,0,0,4,3,1,7,0001-00-0000-55.png,0002-00-0000-00.png
00000009,607,0,1449587479421,1449587480572,518,267,0,0,0,3,2,1,5,0002-00-0000-20.png,0003-00-0000-26.png
00000009,608,1,1449587502411,1449587503009,490,253,0,0,0,0,1,1,1,0005-00-0000-23.png,0004-00-0000-05.png
00000009,609,1,1449587503973,1449587505013,495,272,0,0,0,2,3,1,5,0003-00-0001-36.png,0002-00-0001-85.png
00000009,610,1,1449587506092,1449587506874,507,251,0,0,0,0,1,1,1,0005-00-0000-50.png,0004-00-0000-13.png
00000009,611,1,1449587507818,1449587508858,913,321,0,0,0,2,1,1,3,0003-00-0001-54.png,0004-00-0000-23.png
00000009,612,1,1449587509926,1449587511057,913,290,0,0,0,3,2,1,5,0002-00-0000-89.png,0003-00-0000-96.png
00000009,613,0,1449587512010,1449587512954,909,307,0,0,0,1,2,1,3,0004-00-0001-97.png,0003-00-0000-54.png
00000009,614,1,1449587516145,1449587516174,862,332,0,0,0,4,3,1,7,0001-00-0000-78.png,0002-00-0001-11.png
00000009,615,1,1449587517071,1449587518184,490,251,0,0,0,3,4,1,7,0002-00-0001-34.png,0001-00-0000-97.png
00000009,616,0,1449587519114,1449587520117,460,271,0,0,0,1,0,1,1,0004-00-0000-35.png,0005-00-0000-95.png
00000009,617,1,1449587522949,1449587523659,478,410,0,0,0,2,3,1,5,0003-00-0001-29.png,0002-00-0001-59.png
00000009,618,1,1449587524580,1449587525424,517,265,0,0,0,1,2,1,3,0004-00-0000-30.png,0003-00-0000-40.png
00000009,619,0,1449587526431,1449587527525,509,261,0,0,0,3,2,1,5,0002-00-0000-88.png,0003-00-0001-62.png
00000009,620,0,1449587530733,1449587531292,930,324,0,0,0,0,1,1,1,0005-00-0001-24.png,0004-00-0000-68.png
00000009,621,1,1449587534221,1449587534522,1039,310,0,0,0,1,0,1,1,0004-00-0001-76.png,0005-00-0000-70.png
00000009,622,0,1449587535553,1449587536626,494,240,0,0,0,2,1,1,3,0003-00-0001-06.png,0004-00-0000-48.png
00000009,623,0,1449587539671,1449587540301,941,323,0,0,0,3,4,1,7,0002-00-0000-52.png,0001-00-0001-10.png
00000009,624,0,1449587543273,1449587544019,519,259,0,0,0,4,3,1,7,0001-00-0001-05.png,0002-00-0000-06.png
00000009,625,1,1449587546881,1449587546972,862,436,0,0,0,4,3,1,7,0001-00-0000-41.png,0002-00-0001-46.png
00000009,626,1,1449587547914,1449587548857,1020,257,0,0,0,3,2,1,5,0002-00-0001-23.png,0003-00-0001-17.png
00000009,627,1,1449587549832,1449587550776,504,266,0,0,0,2,3,1,5,0003-00-0000-76.png,0002-00-0001-98.png
00000009,628,1,1449587551859,1449587552807,935,330,0,0,0,2,1,1,3,0003-00-0000-67.png,0004-00-0001-63.png
00000009,629,1,1449587553867,1449587555651,502,254,0,0,0,3,4,1,7,0002-00-0000-12.png,0001-00-0001-56.png
00000009,630,1,1449587556699,1449587557489,907,330,0,0,0,1,0,1,1,0004-00-0001-28.png,0005-00-0001-83.png
00000009,631,0,1449587558557,1449587558589,873,400,0,0,0,1,2,1,3,0004-00-0001-71.png,0003-00-0000-06.png
00000009,632,0,1449587561707,1449587561755,901,298,0,0,0,0,1,1,1,0005-00-0001-35.png,0004-00-0000-30.png
00000009,633,1,1449587564907,1449587565499,502,221,0,0,0,0,1,1,1,0005-00-0001-73.png,0004-00-0000-03.png
00000009,634,0,1449587566437,1449587567351,864,325,0,0,0,2,3,1,5,0003-00-0001-52.png,0002-00-0000-48.png
00000009,635,0,1449587570179,1449587570219,890,283,0,0,0,3,4,1,7,0002-00-0000-25.png,0001-00-0001-91.png
00000009,636,0,1449587573294,1449587573886,509,255,0,0,0,1,0,1,1,0004-00-0001-68.png,0005-00-0001-37.png
00000009,637,1,1449587577012,1449587577038,908,328,0,0,0,3,2,1,5,0002-00-0001-41.png,0003-00-0000-40.png
00000009,638,0,1449587577985,1449587578921,504,240,0,0,0,2,1,1,3,0003-00-0000-82.png,0004-00-0000-24.png
00000009,639,0,1449587582068,1449587582614,1143,332,0,0,0,1,2,1,3,0004-00-0001-50.png,0003-00-0001-70.png
00000009,640,1,1449587585666,1449587586370,971,402,0,0,0,4,3,1,7,0001-00-0000-82.png,0002-00-0001-14.png
00000009,641,1,1449587587276,1449587588035,513,244,0,0,0,1,2,1,3,0004-00-0000-34.png,0003-00-0000-19.png
00000009,642,1,1449587588995,1449587589727,1005,302,0,0,0,2,1,1,3,0003-00-0001-88.png,0004-00-0001-02.png
00000009,643,0,1449587590722,1449587591362,504,266,0,0,0,4,3,1,7,0001-00-0000-64.png,0002-00-0000-20.png
00000009,644,1,1449587594481,1449587595187,975,253,0,0,0,1,0,1,1,0004-00-0001-26.png,0005-00-0000-29.png
00000009,645,1,1449587596040,1449587597606,407,350,0,0,0,3,4,1,7,0002-00-0000-51.png,0001-00-0001-70.png
00000009,646,1,1449587598595,1449587599583,511,256,0,0,0,2,3,1,5,0003-00-0000-04.png,0002-00-0000-92.png
00000009,647,1,1449587600619,1449587601511,411,320,0,0,0,0,1,1,1,0005-00-0001-41.png,0004-00-0000-96.png
00000009,648,1,1449587602502,1449587603233,1002,266,0,0,0,3,2,1,5,0002-00-0001-58.png,0003-00-0000-64.png
00000009,649,1,1449587604270,1449587604329,866,473,0,0,0,2,1,1,3,0003-00-0001-91.png,0004-00-0000-08.png
00000009,650,1,1449587605490,1449587605514,869,401,0,0,0,3,2,1,5,0002-00-0001-61.png,0003-00-0001-10.png
00000009,651,1,1449587606733,1449587607407,518,273,0,0,0,0,1,1,1,0005-00-0001-04.png,0004-00-0000-08.png
00000009,652,1,1449587608403,1449587609277,1042,262,0,0,0,1,0,1,1,0004-00-0000-50.png,0005-00-0000-12.png
00000009,653,0,1449587610312,1449587610376,871,468,0,0,0,1,2,1,3,0004-00-0000-83.png,0003-00-0000-44.png
00000009,654,0,1449587613617,1449587614222,1017,276,0,0,0,2,3,1,5,0003-00-0001-67.png,0002-00-0001-51.png
00000009,655,1,1449587617356,1449587617976,473,281,0,0,0,3,4,1,7,0002-00-0001-91.png,0001-00-0001-09.png
00000009,656,1,1449587618842,1449587619729,935,304,0,0,0,4,3,1,7,0001-00-0000-28.png,0002-00-0001-04.png
00000009,657,1,1449587620694,1449587621885,517,240,0,0,0,2,3,1,5,0003-00-0001-76.png,0002-00-0000-84.png
00000009,658,1,1449587622980,1449587623873,1002,280,0,0,0,2,1,1,3,0003-00-0001-43.png,0004-00-0001-95.png
00000009,659,1,1449587624928,1449587624976,862,399,0,0,0,1,0,1,1,0004-00-0001-59.png,0005-00-0001-72.png
00000009,660,0,1449587626101,1449587626925,434,322,0,0,0,4,3,1,7,0001-00-0000-31.png,0002-00-0001-23.png
00000009,661,1,1449587630344,1449587630978,480,263,0,0,0,1,2,1,3,0004-00-0000-31.png,0003-00-0001-66.png
00000009,662,1,1449587631862,1449587632854,923,299,0,0,0,3,2,1,5,0002-00-0001-75.png,0003-00-0001-29.png
00000009,663,1,1449587633770,1449587634743,502,256,0,0,0,3,4,1,7,0002-00-0001-78.png,0001-00-0000-66.png
00000009,664,1,1449587635671,1449587636505,481,268,0,0,0,0,1,1,1,0005-00-0000-23.png,0004-00-0001-54.png
00000009,665,1,1449587637718,1449587638589,522,235,0,0,0,1,2,1,3,0004-00-0000-79.png,0003-00-0001-87.png
00000009,666,0,1449587639616,1449587640313,523,271,0,0,0,2,1,1,3,0003-00-0001-53.png,0004-00-0000-11.png
00000009,667,1,1449587643463,1449587644104,485,253,0,0,0,3,4,1,7,0002-00-0000-89.png,0001-00-0001-53.png
00000009,668,0,1449587645041,1449587646027,913,298,0,0,0,2,3,1,5,0003-00-0001-62.png,0002-00-0000-89.png
00000009,669,1,1449587649029,1449587649553,917,335,0,0,0,1,0,1,1,0004-00-0001-51.png,0005-00-0001-25.png
00000009,670,1,1449587650490,1449587651609,901,307,0,0,0,3,2,1,5,0002-00-0001-92.png,0003-00-0001-78.png
00000009,671,1,1449587652584,1449587653217,396,332,0,0,0,0,1,1,1,0005-00-0000-93.png,0004-00-0000-53.png
00000009,672,0,1449587654121,1449587654991,498,262,0,0,0,4,3,1,7,0001-00-0001-04.png,0002-00-0000-12.png
00000009,673,0,1449587658050,1449587659309,490,230,0,0,0,2,1,1,3,0003-00-0000-17.png,0004-00-0001-09.png
00000009,674,0,1449587662432,1449587662468,862,344,0,0,0,3,4,1,7,0002-00-0000-52.png,0001-00-0000-51.png
00000009,675,1,1449587665343,1449587665388,897,296,0,0,0,1,0,1,1,0004-00-0001-21.png,0005-00-0000-65.png
00000009,676,1,1449587666388,1449587667054,515,267,0,0,0,1,2,1,3,0004-00-0000-60.png,0003-00-0001-86.png
00000009,677,1,1449587667986,1449587668797,923,304,0,0,0,4,3,1,7,0001-00-0001-02.png,0002-00-0000-07.png
00000009,678,0,1449587669775,1449587670636,1002,279,0,0,0,0,1,1,1,0005-00-0000-20.png,0004-00-0000-80.png
00000009,679,0,1449587673829,1449587674374,1016,263,0,0,0,2,3,1,5,0003-00-0000-88.png,0002-00-0001-51.png
00000009,680,1,1449587677247,1449587677893,913,306,0,0,0,3,2,1,5,0002-00-0001-83.png,0003-00-0001-95.png
00000009,681,0,1449587678809,1449587679879,496,235,0,0,0,2,1,1,3,0003-00-0000-56.png,0004-00-0000-49.png
00000009,682,1,1449587682931,1449587683448,915,336,0,0,0,1,0,1,1,0004-00-0001-25.png,0005-00-0001-17.png
00000009,683,1,1449587684300,1449587685446,488,240,0,0,0,3,4,1,7,0002-00-0000-37.png,0001-00-0001-56.png
00000009,684,0,1449587686448,1449587687452,942,300,0,0,0,2,3,1,5,0003-00-0000-63.png,0002-00-0001-70.png
00000009,685,1,1449587690454,1449587690954,486,264,0,0,0,0,1,1,1,0005-00-0000-20.png,0004-00-0000-45.png
00000009,686,0,1449587691920,1449587692648,899,361,0,0,0,1,2,1,3,0004-00-0001-63.png,0003-00-0001-37.png
00000009,687,0,1449587695719,1449587696544,517,237,0,0,0,4,3,1,7,0001-00-0001-48.png,0002-00-0001-34.png
00000009,688,0,1449587699575,1449587700142,490,264,0,0,0,3,2,1,5,0002-00-0000-31.png,0003-00-0000-83.png
00000009,689,1,1449587703342,1449587704048,939,420,0,0,0,2,1,1,3,0003-00-0000-54.png,0004-00-0000-14.png
00000009,690,0,1449587705032,1449587705813,419,337,0,0,0,4,3,1,7,0001-00-0001-01.png,0002-00-0000-26.png
00000009,691,0,1449587708928,1449587708944,874,332,0,0,0,0,1,1,1,0005-00-0000-78.png,0004-00-0001-93.png
00000009,692,0,1449587712089,1449587712661,939,358,0,0,0,3,4,1,7,0002-00-0000-87.png,0001-00-0000-48.png
00000009,693,1,1449587715645,1449587715653,859,398,0,0,0,3,2,1,5,0002-00-0000-45.png,0003-00-0001-69.png
00000009,694,0,1449587716678,1449587717448,484,257,0,0,0,1,0,1,1,0004-00-0000-92.png,0005-00-0001-39.png
00000009,695,1,1449587720290,1449587720919,511,267,0,0,0,1,2,1,3,0004-00-0000-93.png,0003-00-0001-11.png
00000009,696,0,1449587721946,1449587722891,913,314,0,0,0,2,3,1,5,0003-00-0000-68.png,0002-00-0001-53.png
00000009,697,1,1449587725839,1449587726326,473,270,0,0,0,0,1,1,1,0005-00-0000-23.png,0004-00-0001-38.png
00000009,698,0,1449587727289,1449587728085,428,343,0,0,0,4,3,1,7,0001-00-0001-01.png,0002-00-0000-72.png
00000009,699,1,1449587730987,1449587731721,489,271,0,0,0,3,4,1,7,0002-00-0001-34.png,0001-00-0001-05.png
00000009,700,1,1449587732625,1449587733441,939,318,0,0,0,2,1,1,3,0003-00-0000-93.png,0004-00-0000-23.png
00000009,701,1,1449587734425,1449587735716,510,271,0,0,0,1,2,1,3,0004-00-0000-48.png,0003-00-0000-22.png
00000009,702,1,1449587736721,1449587737403,1036,240,0,0,0,1,0,1,1,0004-00-0001-33.png,0005-00-0001-32.png
00000009,703,0,1449587738460,1449587738570,888,507,0,0,0,2,3,1,5,0003-00-0000-87.png,0002-00-0000-23.png
00000009,704,0,1449587741721,1449587742264,501,275,0,0,0,3,2,1,5,0002-00-0001-92.png,0003-00-0000-23.png
00000009,705,1,1449587745405,1449587745956,401,368,0,0,0,0,1,1,1,0005-00-0001-91.png,0004-00-0001-08.png
00000009,706,0,1449587746936,1449587747601,427,355,0,0,0,4,3,1,7,0001-00-0001-76.png,0002-00-0001-61.png
00000009,707,0,1449587750762,1449587751379,1016,279,0,0,0,2,3,1,5,0003-00-0001-63.png,0002-00-0001-79.png
00000009,708,0,1449587754320,1449587754849,942,302,0,0,0,1,2,1,3,0004-00-0001-07.png,0003-00-0000-40.png
00000009,709,0,1449587757935,1449587758608,937,327,0,0,0,3,4,1,7,0002-00-0001-26.png,0001-00-0000-54.png
00000009,710,1,1449587761644,1449587762257,1016,262,0,0,0,2,1,1,3,0003-00-0000-19.png,0004-00-0000-10.png
00000009,711,1,1449587763194,1449587764066,904,332,0,0,0,1,0,1,1,0004-00-0000-88.png,0005-00-0000-96.png
00000009,712,1,1449587765002,1449587765102,892,423,0,0,0,3,2,1,5,0002-00-0001-37.png,0003-00-0001-00.png
00000009,713,1,1449587766177,1449587766217,892,430,0,0,0,4,3,1,7,0001-00-0001-71.png,0002-00-0000-93.png
00000009,714,0,1449587767309,1449587767345,888,427,0,0,0,2,3,1,5,0003-00-0000-28.png,0002-00-0000-09.png
00000009,715,0,1449587770458,1449587770494,865,321,0,0,0,3,4,1,7,0002-00-0000-03.png,0001-00-0000-61.png
00000009,716,1,1449587773498,1449587773710,862,421,0,0,0,2,1,1,3,0003-00-0000-33.png,0004-00-0000-97.png
00000009,717,1,1449587774660,1449587775585,491,233,0,0,0,1,2,1,3,0004-00-0001-86.png,0003-00-0001-28.png
00000009,718,1,1449587776591,1449587777482,923,335,0,0,0,3,2,1,5,0002-00-0000-23.png,0003-00-0001-96.png
00000009,719,1,1449587778419,1449587779133,988,282,0,0,0,1,0,1,1,0004-00-0001-43.png,0005-00-0001-28.png
00000009,720,0,1449587780258,1449587780346,859,443,0,0,0,0,1,1,1,0005-00-0000-47.png,0004-00-0000-30.png
00000009,721,0,1449587783197,1449587784001,1002,279,0,0,0,3,4,1,7,0002-00-0001-76.png,0001-00-0000-37.png
00000009,722,1,1449587787033,1449587787639,488,267,0,0,0,0,1,1,1,0005-00-0001-86.png,0004-00-0000-87.png
00000009,723,1,1449587788506,1449587789390,505,264,0,0,0,2,3,1,5,0003-00-0000-37.png,0002-00-0001-60.png
00000009,724,0,1449587790402,1449587791384,515,258,0,0,0,2,1,1,3,0003-00-0001-07.png,0004-00-0001-69.png
00000009,725,1,1449587794448,1449587794993,955,358,0,0,0,1,0,1,1,0004-00-0000-71.png,0005-00-0000-87.png
00000009,726,1,1449587795946,1449587796860,1023,262,0,0,0,4,3,1,7,0001-00-0000-49.png,0002-00-0001-81.png
00000009,727,1,1449587797924,1449587798891,516,256,0,0,0,1,2,1,3,0004-00-0001-86.png,0003-00-0001-08.png
00000009,728,1,1449587799810,1449587800906,928,297,0,0,0,3,2,1,5,0002-00-0001-65.png,0003-00-0000-14.png
00000009,729,1,1449587801951,1449587802795,936,296,0,0,0,3,2,1,5,0002-00-0000-49.png,0003-00-0001-10.png
00000009,730,1,1449587803809,1449587804636,1033,247,0,0,0,1,0,1,1,0004-00-0000-89.png,0005-00-0001-97.png
00000009,731,0,1449587805685,1449587805713,876,386,0,0,0,2,3,1,5,0003-00-0000-44.png,0002-00-0000-75.png
00000009,732,1,1449587808624,1449587809262,386,346,0,0,0,3,4,1,7,0002-00-0001-99.png,0001-00-0001-38.png
00000009,733,1,1449587810175,1449587811174,494,258,0,0,0,1,2,1,3,0004-00-0001-38.png,0003-00-0000-00.png
00000009,734,1,1449587812164,1449587813081,913,289,0,0,0,2,1,1,3,0003-00-0000-24.png,0004-00-0001-84.png
00000009,735,0,1449587814051,1449587814731,461,374,0,0,0,4,3,1,7,0001-00-0000-85.png,0002-00-0001-40.png
00000009,736,0,1449587817746,1449587818293,1039,283,0,0,0,0,1,1,1,0005-00-0001-51.png,0004-00-0001-38.png
00000009,737,1,1449587821466,1449587821636,964,291,0,0,0,1,0,1,1,0004-00-0001-39.png,0005-00-0001-39.png
00000009,738,1,1449587822689,1449587822764,857,458,0,0,0,2,1,1,3,0003-00-0001-53.png,0004-00-0001-65.png
00000009,739,1,1449587823711,1449587824754,440,332,0,0,0,3,4,1,7,0002-00-0001-52.png,0001-00-0000-23.png
00000009,740,0,1449587825758,1449587826580,476,433,0,0,0,4,3,1,7,0001-00-0000-48.png,0002-00-0000-11.png
00000009,741,0,1449587829681,1449587829705,862,342,0,0,0,2,3,1,5,0003-00-0000-08.png,0002-00-0000-21.png
00000009,742,1,1449587832842,1449587832870,892,335,0,0,0,3,2,1,5,0002-00-0001-68.png,0003-00-0000-35.png
00000009,743,1,1449587833807,1449587834490,513,252,0,0,0,1,2,1,3,0004-00-0001-93.png,0003-00-0000-52.png
00000009,744,1,1449587835544,1449587836184,513,287,0,0,0,0,1,1,1,0005-00-0001-31.png,0004-00-0001-26.png
00000009,745,0,1449587837172,1449587838167,952,253,0,0,0,1,2,1,3,0004-00-0001-26.png,0003-00-0000-20.png
00000009,746,1,1449587841400,1449587841949,926,332,0,0,0,2,1,1,3,0003-00-0000-74.png,0004-00-0001-23.png
00000009,747,0,1449587842829,1449587843755,918,323,0,0,0,2,3,1,5,0003-00-0000-21.png,0002-00-0001-61.png
00000009,748,0,1449587847701,1449587847725,862,343,0,0,0,0,1,1,1,0005-00-0000-52.png,0004-00-0001-96.png
00000009,749,1,1449587850808,1449587851436,939,306,0,0,0,3,2,1,5,0002-00-0000-24.png,0003-00-0000-61.png
00000009,750,1,1449587852400,1449587853345,488,232,0,0,0,3,4,1,7,0002-00-0001-44.png,0001-00-0001-76.png
00000009,751,1,1449587854348,1449587854364,858,410,0,0,0,4,3,1,7,0001-00-0001-77.png,0002-00-0001-67.png
00000009,752,1,1449587855470,1449587856295,1118,373,0,0,0,1,0,1,1,0004-00-0000-77.png,0005-00-0000-74.png
00000009,753,1,1449587857279,1449587857307,862,384,0,0,0,2,1,1,3,0003-00-0000-71.png,0004-00-0001-91.png
00000009,754,0,1449587858540,1449587858588,862,477,0,0,0,1,2,1,3,0004-00-0001-00.png,0003-00-0000-89.png
00000009,755,1,1449587861493,1449587862154,934,280,0,0,0,1,0,1,1,0004-00-0000-44.png,0005-00-0001-38.png
00000009,756,1,1449587863044,1449587863653,516,238,0,0,0,0,1,1,1,0005-00-0000-68.png,0004-00-0000-74.png
00000009,757,1,1449587864623,1449587865567,497,263,0,0,0,2,3,1,5,0003-00-0000-37.png,0002-00-0001-38.png
00000009,758,1,1449587866649,1449587867463,523,261,0,0,0,3,4,1,7,0002-00-0001-43.png,0001-00-0000-28.png
00000009,759,1,1449587868496,1449587869338,939,400,0,0,0,4,3,1,7,0001-00-0001-34.png,0002-00-0000-66.png
00000009,760,0,1449587870396,1449587871419,512,247,0,0,0,3,2,1,5,0002-00-0001-67.png,0003-00-0000-58.png
00000009,761,1,1449587876814,1449587877548,913,345,0,0,0,4,3,1,7,0001-00-0001-18.png,0002-00-0001-22.png
00000009,762,0,1449587878494,1449587879151,515,228,0,0,0,3,2,1,5,0002-00-0001-91.png,0003-00-0001-74.png
00000009,763,0,1449587882282,1449587882298,931,316,0,0,0,0,1,1,1,0005-00-0000-72.png,0004-00-0001-17.png
00000009,764,1,1449587885373,1449587885986,508,232,0,0,0,2,3,1,5,0003-00-0000-59.png,0002-00-0001-89.png
00000009,765,0,1449587886945,1449587887793,939,304,0,0,0,1,2,1,3,0004-00-0001-27.png,0003-00-0000-05.png
00000009,766,1,1449587890956,1449587891551,911,296,0,0,0,2,1,1,3,0003-00-0000-66.png,0004-00-0000-44.png
00000009,767,0,1449587892476,1449587893295,455,359,0,0,0,1,0,1,1,0004-00-0000-41.png,0005-00-0000-59.png
00000009,768,1,1449587896242,1449587896868,456,417,0,0,0,3,4,1,7,0002-00-0001-70.png,0001-00-0001-39.png
00000009,769,0,1449587897763,1449587898927,927,399,0,0,0,3,4,1,7,0002-00-0000-01.png,0001-00-0001-75.png
00000009,770,0,1449587913598,1449587914210,470,259,0,0,0,3,2,1,5,0002-00-0000-39.png,0003-00-0001-00.png
00000009,771,1,1449587917151,1449587917665,1041,279,0,0,0,1,0,1,1,0004-00-0001-87.png,0005-00-0000-45.png
00000009,772,1,1449587918562,1449587919546,487,400,0,0,0,0,1,1,1,0005-00-0001-75.png,0004-00-0000-90.png
00000009,773,0,1449587920389,1449587921269,1007,279,0,0,0,1,2,1,3,0004-00-0000-34.png,0003-00-0001-19.png
00000009,774,1,1449587924500,1449587924524,885,303,0,0,0,4,3,1,7,0001-00-0001-95.png,0002-00-0001-00.png
00000009,775,1,1449587925431,1449587926276,498,390,0,0,0,2,3,1,5,0003-00-0001-95.png,0002-00-0000-44.png
00000009,776,1,1449587927170,1449587927876,1004,253,0,0,0,2,1,1,3,0003-00-0001-26.png,0004-00-0000-95.png
00000009,777,1,1449587928822,1449587929728,478,384,0,0,0,3,4,1,7,0002-00-0000-98.png,0001-00-0001-89.png
00000009,778,0,1449587930870,1449587931570,496,258,0,0,0,3,2,1,5,0002-00-0001-68.png,0003-00-0001-31.png
00000009,779,1,1449587934572,1449587935039,910,339,0,0,0,2,1,1,3,0003-00-0001-42.png,0004-00-0001-82.png
00000009,780,0,1449587935884,1449587936807,510,285,0,0,0,4,3,1,7,0001-00-0001-47.png,0002-00-0001-96.png
00000009,781,1,1449587939823,1449587940307,462,299,0,0,0,1,2,1,3,0004-00-0001-34.png,0003-00-0001-30.png
00000009,782,1,1449587941140,1449587941764,416,375,0,0,0,2,3,1,5,0003-00-0001-47.png,0002-00-0001-30.png
00000009,783,1,1449587942664,1449587943299,909,322,0,0,0,1,0,1,1,0004-00-0000-37.png,0005-00-0001-89.png
00000009,784,1,1449587944730,1449587945285,465,266,0,0,0,0,1,1,1,0005-00-0001-27.png,0004-00-0001-17.png
00000009,785,0,1449587946869,1449587969301,345,390,0,0,0,3,2,1,5,0002-00-0000-36.png,0003-00-0001-98.png
00000009,786,0,1449587972454,1449587972978,1057,279,0,0,0,2,3,1,5,0003-00-0000-22.png,0002-00-0000-71.png
00000009,787,0,1449587976037,1449587976090,915,354,0,0,0,3,4,1,7,0002-00-0001-83.png,0001-00-0001-75.png
00000009,788,1,1449587979320,1449587979890,1047,296,0,0,0,4,3,1,7,0001-00-0000-83.png,0002-00-0001-94.png
00000009,789,1,1449587980794,1449587981711,913,342,0,0,0,2,1,1,3,0003-00-0000-72.png,0004-00-0000-39.png
00000009,790,1,1449587982593,1449587983313,467,236,0,0,0,0,1,1,1,0005-00-0000-30.png,0004-00-0000-49.png
00000009,791,1,1449587984248,1449587984942,990,245,0,0,0,1,0,1,1,0004-00-0000-73.png,0005-00-0000-37.png
00000009,792,1,1449587985830,1449587986537,490,226,0,0,0,1,2,1,3,0004-00-0000-43.png,0003-00-0000-92.png
00000009,793,0,1449587987471,1449587988136,431,403,0,0,0,3,2,1,5,0002-00-0000-44.png,0003-00-0001-57.png
00000009,794,0,1449587991247,1449587991986,474,402,0,0,0,1,0,1,1,0004-00-0000-66.png,0005-00-0000-09.png
00000009,795,1,1449587994913,1449587995455,1051,334,0,0,0,2,1,1,3,0003-00-0000-69.png,0004-00-0001-82.png
00000009,796,1,1449587996304,1449587996410,860,430,0,0,0,4,3,1,7,0001-00-0000-85.png,0002-00-0000-73.png
00000009,797,1,1449587997387,1449587998526,504,273,0,0,0,2,3,1,5,0003-00-0000-18.png,0002-00-0000-21.png
00000009,798,1,1449587999404,1449588000055,519,251,0,0,0,0,1,1,1,0005-00-0001-62.png,0004-00-0000-91.png
00000009,799,1,1449588000972,1449588001604,515,265,0,0,0,1,2,1,3,0004-00-0001-61.png,0003-00-0001-86.png
00000009,800,0,1449588002588,1449588003342,1030,299,0,0,0,3,4,1,7,0002-00-0001-52.png,0001-00-0000-37.png
00000009,801,0,1449588006265,1449588006794,986,281,0,0,0,3,4,1,7,0002-00-0000-62.png,0001-00-0001-87.png
00000009,802,1,1449588009976,1449588010472,482,275,0,0,0,1,2,1,3,0004-00-0001-54.png,0003-00-0000-98.png
00000009,803,1,1449588011340,1449588012147,1013,281,0,0,0,2,1,1,3,0003-00-0000-26.png,0004-00-0000-61.png
00000009,804,0,1449588013027,1449588013700,515,264,0,0,0,4,3,1,7,0001-00-0001-45.png,0002-00-0000-59.png
00000009,805,1,1449588017101,1449588017683,939,427,0,0,0,3,2,1,5,0002-00-0001-62.png,0003-00-0001-79.png
00000009,806,1,1449588018572,1449588019558,934,280,0,0,0,1,0,1,1,0004-00-0000-00.png,0005-00-0000-46.png
00000009,807,0,1449588020451,1449588021203,910,296,0,0,0,2,3,1,5,0003-00-0001-49.png,0002-00-0000-58.png
00000009,808,1,1449588024049,1449588024654,478,279,0,0,0,0,1,1,1,0005-00-0000-26.png,0004-00-0000-77.png
00000009,809,1,1449588025560,1449588026473,472,235,0,0,0,1,2,1,3,0004-00-0001-03.png,0003-00-0001-88.png
00000009,810,0,1449588027423,1449588028341,510,261,0,0,0,3,2,1,5,0002-00-0000-65.png,0003-00-0001-84.png
00000009,811,0,1449588031473,1449588031497,869,320,0,0,0,0,1,1,1,0005-00-0000-45.png,0004-00-0000-54.png
00000009,812,1,1449588034531,1449588034571,894,360,0,0,0,4,3,1,7,0001-00-0001-63.png,0002-00-0000-58.png
00000009,813,0,1449588035506,1449588036850,908,340,0,0,0,3,4,1,7,0002-00-0000-08.png,0001-00-0001-47.png
00000009,814,1,1449588039820,1449588039869,862,358,0,0,0,2,1,1,3,0003-00-0001-47.png,0004-00-0001-68.png
00000009,815,0,1449588040815,1449588041810,946,326,0,0,0,2,3,1,5,0003-00-0001-35.png,0002-00-0000-88.png
00000009,816,1,1449588044842,1449588045145,1016,285,0,0,0,1,0,1,1,0004-00-0000-59.png,0005-00-0000-54.png
00000009,817,0,1449588046111,1449588046131,871,410,0,0,0,3,4,1,7,0002-00-0000-06.png,0001-00-0001-61.png
00000009,818,1,1449588049170,1449588049882,473,400,0,0,0,2,3,1,5,0003-00-0001-89.png,0002-00-0000-61.png
00000009,819,1,1449588050871,1449588051744,936,410,0,0,0,4,3,1,7,0001-00-0001-27.png,0002-00-0001-41.png
00000009,820,0,1449588052842,1449588053800,518,245,0,0,0,3,2,1,5,0002-00-0001-67.png,0003-00-0000-62.png
00000009,821,1,1449588056700,1449588057244,1016,253,0,0,0,2,1,1,3,0003-00-0001-64.png,0004-00-0000-82.png
00000009,822,1,1449588058152,1449588058924,521,260,0,0,0,0,1,1,1,0005-00-0000-12.png,0004-00-0001-67.png
00000009,823,1,1449588059804,1449588060575,517,237,0,0,0,1,2,1,3,0004-00-0000-11.png,0003-00-0001-86.png
00000009,824,1,1449588061550,1449588062345,998,222,0,0,0,1,0,1,1,0004-00-0001-64.png,0005-00-0001-69.png
00000009,825,1,1449588063300,1449588064582,1039,258,0,0,0,1,0,1,1,0004-00-0001-65.png,0005-00-0001-32.png
00000009,826,0,1449588065528,1449588065576,877,472,0,0,0,2,3,1,5,0003-00-0000-26.png,0002-00-0001-55.png
00000009,827,1,1449588068414,1449588069088,416,384,0,0,0,3,4,1,7,0002-00-0000-96.png,0001-00-0001-13.png
00000009,828,1,1449588069932,1449588070715,463,410,0,0,0,0,1,1,1,0005-00-0000-92.png,0004-00-0001-63.png
00000009,829,1,1449588071565,1449588072362,522,234,0,0,0,1,2,1,3,0004-00-0000-86.png,0003-00-0001-68.png
00000009,830,1,1449588073356,1449588074387,920,297,0,0,0,4,3,1,7,0001-00-0000-81.png,0002-00-0001-99.png
00000009,831,1,1449588075384,1449588076100,925,342,0,0,0,3,2,1,5,0002-00-0001-60.png,0003-00-0001-82.png
00000009,832,0,1449588077153,1449588078142,503,282,0,0,0,2,1,1,3,0003-00-0001-52.png,0004-00-0001-26.png
00000009,833,1,1449588081627,1449588082203,503,272,0,0,0,3,4,1,7,0002-00-0001-63.png,0001-00-0000-00.png
00000009,834,1,1449588083158,1449588083938,982,279,0,0,0,4,3,1,7,0001-00-0000-75.png,0002-00-0000-33.png
00000009,835,0,1449588084914,1449588085714,906,313,0,0,0,2,3,1,5,0003-00-0000-89.png,0002-00-0000-43.png
00000009,836,1,1449588088688,1449588089235,1020,266,0,0,0,2,1,1,3,0003-00-0000-02.png,0004-00-0000-33.png
00000009,837,0,1449588090141,1449588091140,499,245,0,0,0,3,2,1,5,0002-00-0000-41.png,0003-00-0000-59.png
00000009,838,1,1449588094003,1449588094751,499,272,0,0,0,1,2,1,3,0004-00-0001-55.png,0003-00-0000-80.png
00000009,839,1,1449588095703,1449588096505,895,318,0,0,0,1,0,1,1,0004-00-0001-02.png,0005-00-0001-05.png
00000009,840,0,1449588097424,1449588097474,901,387,0,0,0,0,1,1,1,0005-00-0000-97.png,0004-00-0001-18.png
00000009,841,0,1449588100299,1449588100918,467,241,0,0,0,1,0,1,1,0004-00-0001-71.png,0005-00-0001-49.png
00000009,842,0,1449588104012,1449588104629,424,368,0,0,0,3,2,1,5,0002-00-0000-67.png,0003-00-0000-03.png
00000009,843,1,1449588107798,1449588108373,953,385,0,0,0,2,1,1,3,0003-00-0001-64.png,0004-00-0000-62.png
00000009,844,1,1449588109268,1449588109991,522,236,0,0,0,0,1,1,1,0005-00-0000-12.png,0004-00-0001-58.png
00000009,845,0,1449588110928,1449588111802,931,298,0,0,0,2,3,1,5,0003-00-0001-54.png,0002-00-0001-06.png
00000009,846,1,1449588114903,1449588115477,438,358,0,0,0,1,2,1,3,0004-00-0000-19.png,0003-00-0000-44.png
00000009,847,0,1449588116375,1449588117510,925,379,0,0,0,3,4,1,7,0002-00-0001-24.png,0001-00-0000-72.png
00000009,848,1,1449588120697,1449588120729,875,315,0,0,0,4,3,1,7,0001-00-0000-04.png,0002-00-0000-79.png
00000009,849,1,1449588121740,1449588122607,935,324,0,0,0,2,1,1,3,0003-00-0000-75.png,0004-00-0001-84.png
00000009,850,0,1449588123453,1449588123477,857,370,0,0,0,3,4,1,7,0002-00-0000-20.png,0001-00-0000-70.png
00000009,851,1,1449588126571,1449588127067,461,292,0,0,0,1,2,1,3,0004-00-0000-32.png,0003-00-0000-21.png
00000009,852,1,1449588127938,1449588128605,905,303,0,0,0,1,0,1,1,0004-00-0001-27.png,0005-00-0001-89.png
00000009,853,0,1449588129499,1449588130258,497,235,0,0,0,3,2,1,5,0002-00-0000-15.png,0003-00-0001-36.png
00000009,854,1,1449588133614,1449588134178,503,293,0,0,0,0,1,1,1,0005-00-0000-29.png,0004-00-0000-09.png
00000009,855,0,1449588135065,1449588135982,505,263,0,0,0,4,3,1,7,0001-00-0000-65.png,0002-00-0000-45.png
00000009,856,1,1449588139161,1449588139868,504,249,0,0,0,2,3,1,5,0003-00-0001-08.png,0002-00-0001-14.png
00000009,857,0,1449588140781,1449588141611,922,301,0,0,0,1,2,1,3,0004-00-0001-19.png,0003-00-0000-81.png
00000009,858,0,1449588144964,1449588145625,1020,280,0,0,0,3,4,1,7,0002-00-0001-60.png,0001-00-0001-73.png
00000009,859,1,1449588148541,1449588148715,903,317,0,0,0,3,2,1,5,0002-00-0001-53.png,0003-00-0000-53.png
00000009,860,0,1449588149672,1449588150347,446,331,0,0,0,4,3,1,7,0001-00-0000-52.png,0002-00-0001-45.png
00000009,861,1,1449588166320,1449588166809,996,260,0,0,0,1,0,1,1,0004-00-0001-75.png,0005-00-0001-92.png
00000009,862,1,1449588167773,1449588168330,467,224,0,0,0,0,1,1,1,0005-00-0001-30.png,0004-00-0000-01.png
00000009,863,1,1449588169730,1449588170376,1029,305,0,0,0,2,1,1,3,0003-00-0000-74.png,0004-00-0001-67.png
00000009,864,0,1449588171258,1449588172101,990,279,0,0,0,2,3,1,5,0003-00-0000-79.png,0002-00-0000-28.png
00000009,865,0,1449588197375,1449588198102,912,387,0,0,0,3,4,1,7,0002-00-0000-33.png,0001-00-0001-91.png
00000009,866,1,1449588201084,1449588201717,470,250,0,0,0,0,1,1,1,0005-00-0000-27.png,0004-00-0000-63.png
00000009,867,1,1449588202720,1449588203623,484,254,0,0,0,2,3,1,5,0003-00-0001-15.png,0002-00-0000-84.png
00000009,868,1,1449588204581,1449588205889,1019,302,0,0,0,4,3,1,7,0001-00-0000-09.png,0002-00-0001-83.png
00000009,869,1,1449588206886,1449588206930,860,446,0,0,0,1,0,1,1,0004-00-0001-68.png,0005-00-0000-19.png
00000009,870,1,1449588208014,1449588208035,859,413,0,0,0,2,1,1,3,0003-00-0000-45.png,0004-00-0000-16.png
00000009,871,0,1449588209202,1449588210234,510,283,0,0,0,3,2,1,5,0002-00-0000-98.png,0003-00-0000-58.png
00000009,872,0,1449588213147,1449588213858,913,342,0,0,0,1,2,1,3,0004-00-0001-90.png,0003-00-0001-69.png
00000009,873,1,1449588216743,1449588217259,1030,253,0,0,0,1,0,1,1,0004-00-0000-27.png,0005-00-0000-52.png
00000009,874,1,1449588218111,1449588218855,510,270,0,0,0,0,1,1,1,0005-00-0001-56.png,0004-00-0001-36.png
00000009,875,1,1449588219784,1449588220924,396,333,0,0,0,1,2,1,3,0004-00-0001-42.png,0003-00-0001-42.png
00000009,876,1,1449588221877,1449588222885,481,277,0,0,0,2,3,1,5,0003-00-0001-79.png,0002-00-0000-54.png
00000009,877,0,1449588223918,1449588224998,477,400,0,0,0,3,2,1,5,0002-00-0000-47.png,0003-00-0001-95.png
00000009,878,1,1449588228162,1449588228714,964,425,0,0,0,4,3,1,7,0001-00-0000-85.png,0002-00-0001-64.png
00000009,879,0,1449588229654,1449588230646,1037,251,0,0,0,3,4,1,7,0002-00-0000-13.png,0001-00-0001-07.png
00000009,880,1,1449588233795,1449588234409,1043,276,0,0,0,2,1,1,3,0003-00-0001-02.png,0004-00-0001-60.png
00000009,881,1,1449588235337,1449588236198,1038,288,0,0,0,1,0,1,1,0004-00-0000-47.png,0005-00-0000-31.png
00000009,882,1,1449588237174,1449588237940,418,345,0,0,0,2,3,1,5,0003-00-0000-64.png,0002-00-0000-69.png
00000009,883,0,1449588238975,1449588239909,498,262,0,0,0,4,3,1,7,0001-00-0001-69.png,0002-00-0001-58.png
00000009,884,1,1449588242768,1449588243324,1041,315,0,0,0,2,1,1,3,0003-00-0001-66.png,0004-00-0001-65.png
00000009,885,1,1449588244292,1449588245292,480,429,0,0,0,0,1,1,1,0005-00-0001-96.png,0004-00-0001-75.png
00000009,886,0,1449588246265,1449588247593,511,270,0,0,0,3,2,1,5,0002-00-0001-12.png,0003-00-0001-40.png
00000009,887,0,1449588250652,1449588250680,874,361,0,0,0,1,2,1,3,0004-00-0001-15.png,0003-00-0001-45.png
00000009,888,0,1449588253729,1449588253773,862,424,0,0,0,3,4,1,7,0002-00-0001-28.png,0001-00-0000-46.png
00000009,889,0,1449588269202,1449588269669,1030,282,0,0,0,1,2,1,3,0004-00-0000-25.png,0003-00-0000-79.png
00000009,890,0,1449588272565,1449588273522,478,245,0,0,0,4,3,1,7,0001-00-0000-87.png,0002-00-0000-08.png
00000009,891,1,1449588276431,1449588276469,862,462,0,0,0,1,0,1,1,0004-00-0001-52.png,0005-00-0001-22.png
00000009,892,1,1449588277453,1449588278484,984,260,0,0,0,2,1,1,3,0003-00-0000-32.png,0004-00-0000-09.png
00000009,893,0,1449588279435,1449588280209,1007,265,0,0,0,0,1,1,1,0005-00-0001-40.png,0004-00-0001-18.png
00000009,894,0,1449588283384,1449588283929,495,260,0,0,0,3,2,1,5,0002-00-0001-74.png,0003-00-0001-84.png
00000009,895,0,1449588286916,1449588287174,1032,249,0,0,0,3,4,1,7,0002-00-0000-84.png,0001-00-0000-16.png
00000009,896,0,1449588290131,1449588290170,863,360,0,0,0,2,3,1,5,0003-00-0001-86.png,0002-00-0001-62.png
00000009,897,0,1449588293126,1449588293665,1012,278,0,0,0,0,1,1,1,0005-00-0000-35.png,0004-00-0000-15.png
00000009,898,1,1449588296661,1449588297179,1021,261,0,0,0,1,0,1,1,0004-00-0000-14.png,0005-00-0001-75.png
00000009,899,1,1449588298063,1449588299027,510,232,0,0,0,2,3,1,5,0003-00-0000-67.png,0002-00-0000-85.png
00000009,900,1,1449588299958,1449588300900,909,283,0,0,0,2,1,1,3,0003-00-0001-77.png,0004-00-0001-54.png
00000009,901,1,1449588301920,1449588302635,475,400,0,0,0,1,2,1,3,0004-00-0000-65.png,0003-00-0001-88.png
00000009,902,0,1449588303646,1449588304484,519,250,0,0,0,3,2,1,5,0002-00-0001-18.png,0003-00-0001-81.png
00000009,903,1,1449588307322,1449588308247,508,261,0,0,0,3,4,1,7,0002-00-0001-41.png,0001-00-0001-47.png
00000009,904,0,1449588309225,1449588309269,517,541,0,0,0,4,3,1,7,0001-00-0001-14.png,0002-00-0000-23.png
00000009,905,1,1449588312293,1449588312351,860,352,0,0,0,4,3,1,7,0001-00-0001-40.png,0002-00-0000-90.png
00000009,906,0,1449588313317,1449588314247,920,353,0,0,0,2,3,1,5,0003-00-0001-53.png,0002-00-0001-20.png
00000009,907,1,1449588317518,1449588317558,867,329,0,0,0,1,0,1,1,0004-00-0001-53.png,0005-00-0001-58.png
00000009,908,0,1449588318556,1449588319312,511,227,0,0,0,3,2,1,5,0002-00-0000-87.png,0003-00-0001-75.png
00000009,909,0,1449588322448,1449588322476,892,319,0,0,0,0,1,1,1,0005-00-0000-47.png,0004-00-0001-14.png
00000009,910,1,1449588325451,1449588326039,1058,323,0,0,0,2,1,1,3,0003-00-0001-40.png,0004-00-0001-71.png
00000009,911,1,1449588326989,1449588328149,467,405,0,0,0,3,4,1,7,0002-00-0001-41.png,0001-00-0001-65.png
00000009,912,1,1449588329156,1449588329904,513,258,0,0,0,1,2,1,3,0004-00-0001-44.png,0003-00-0000-00.png
00000009,913,1,1449588330843,1449588331837,1046,288,0,0,0,4,3,1,7,0001-00-0001-54.png,0002-00-0001-69.png
00000009,914,1,1449588332825,1449588333825,459,431,0,0,0,2,3,1,5,0003-00-0000-53.png,0002-00-0001-13.png
00000009,915,1,1449588334831,1449588335576,897,313,0,0,0,3,2,1,5,0002-00-0000-30.png,0003-00-0000-05.png
00000009,916,1,1449588336670,1449588337472,519,241,0,0,0,1,2,1,3,0004-00-0001-20.png,0003-00-0001-39.png
00000009,917,1,1449588338437,1449588339344,494,277,0,0,0,3,4,1,7,0002-00-0001-08.png,0001-00-0000-13.png
00000009,918,1,1449588340311,1449588341308,1018,267,0,0,0,2,1,1,3,0003-00-0000-91.png,0004-00-0001-40.png
00000009,919,1,1449588342272,1449588342894,395,354,0,0,0,0,1,1,1,0005-00-0000-86.png,0004-00-0001-16.png
00000009,920,1,1449588343894,1449588345065,963,313,0,0,0,1,0,1,1,0004-00-0000-62.png,0005-00-0001-76.png
00000009,921,1,1449588346020,1449588346064,870,405,0,0,0,3,2,1,5,0002-00-0000-87.png,0003-00-0001-06.png
00000009,922,0,1449588347250,1449588348361,511,270,0,0,0,4,3,1,7,0001-00-0000-05.png,0002-00-0001-90.png
00000009,923,1,1449588520438,1449588521924,463,337,0,0,0,3,4,1,7,0002-00-0000-16.png,0001-00-0001-96.png
00000009,924,1,1449588523002,1449588523086,858,440,0,0,0,1,0,1,1,0004-00-0001-57.png,0005-00-0001-39.png
00000009,925,1,1449588524133,1449588524965,1023,284,0,0,0,2,1,1,3,0003-00-0001-65.png,0004-00-0000-38.png
00000009,926,1,1449588526022,1449588526863,496,235,0,0,0,1,2,1,3,0004-00-0000-47.png,0003-00-0000-15.png
00000009,927,0,1449588527829,1449588528714,1019,252,0,0,0,2,3,1,5,0003-00-0000-52.png,0002-00-0001-00.png
00000009,928,0,1449588531585,1449588532163,1016,253,0,0,0,0,1,1,1,0005-00-0000-80.png,0004-00-0000-97.png
00000009,929,1,1449588535453,1449588536175,504,398,0,0,0,2,3,1,5,0003-00-0000-78.png,0002-00-0000-20.png
00000009,930,1,1449588537131,1449588537875,894,349,0,0,0,1,0,1,1,0004-00-0001-77.png,0005-00-0001-53.png
00000009,931,0,1449588538831,1449588539554,460,347,0,0,0,3,2,1,5,0002-00-0001-21.png,0003-00-0000-77.png
00000009,932,1,1449588542498,1449588543160,496,275,0,0,0,3,4,1,7,0002-00-0000-00.png,0001-00-0001-38.png
00000009,933,0,1449588544116,1449588545005,931,298,0,0,0,1,2,1,3,0004-00-0000-56.png,0003-00-0000-10.png
00000009,934,1,1449588547850,1449588547893,862,399,0,0,0,4,3,1,7,0001-00-0001-27.png,0002-00-0001-46.png
00000009,935,1,1449588548877,1449588549774,516,244,0,0,0,0,1,1,1,0005-00-0001-03.png,0004-00-0000-56.png
00000009,936,0,1449588550754,1449588551568,516,240,0,0,0,2,1,1,3,0003-00-0001-34.png,0004-00-0001-07.png
00000009,937,1,1449588554402,1449588554939,942,315,0,0,0,1,0,1,1,0004-00-0000-41.png,0005-00-0000-73.png
00000009,938,0,1449588555779,1449588556723,934,330,0,0,0,2,3,1,5,0003-00-0000-51.png,0002-00-0001-83.png
00000009,939,1,1449588559566,1449588560245,939,318,0,0,0,4,3,1,7,0001-00-0000-10.png,0002-00-0001-27.png
00000009,940,1,1449588561310,1449588562084,491,227,0,0,0,1,2,1,3,0004-00-0001-47.png,0003-00-0000-10.png
00000009,941,1,1449588563118,1449588563952,509,228,0,0,0,0,1,1,1,0005-00-0000-92.png,0004-00-0001-99.png
00000009,942,0,1449588565062,1449588566236,503,239,0,0,0,3,2,1,5,0002-00-0001-10.png,0003-00-0000-19.png
00000009,943,0,1449588569257,1449588569376,990,285,0,0,0,3,4,1,7,0002-00-0001-06.png,0001-00-0000-29.png
00000009,944,1,1449588572546,1449588573137,1028,296,0,0,0,2,1,1,3,0003-00-0000-34.png,0004-00-0001-83.png
00000009,945,1,1449588574070,1449588574763,516,238,0,0,0,0,1,1,1,0005-00-0000-58.png,0004-00-0001-66.png
00000009,946,0,1449588575698,1449588576614,946,305,0,0,0,3,4,1,7,0002-00-0001-66.png,0001-00-0000-65.png
00000009,947,1,1449588579614,1449588580146,409,376,0,0,0,1,2,1,3,0004-00-0000-01.png,0003-00-0001-06.png
00000009,948,1,1449588581071,1449588582050,990,279,0,0,0,2,1,1,3,0003-00-0000-92.png,0004-00-0000-78.png
00000009,949,1,1449588583083,1449588584084,1004,288,0,0,0,3,2,1,5,0002-00-0001-36.png,0003-00-0001-94.png
00000009,950,0,1449588585249,1449588586021,522,247,0,0,0,4,3,1,7,0001-00-0001-32.png,0002-00-0000-10.png
