subject_id,trial,correct_response,stim_time,response_time,x_coord,y_coord,trial_timeout,timeout_time,interTrial_timeout,left_rank,right_rank,distance,joint_rank,left_image,right_image
00000009,1,1,1449260402522,1449260403078,1001,341,0,0,0,3,2,1,5,0002-00-0001-43.png,0003-00-0000-47.png
00000009,2,0,1449260404847,1449260405449,925,405,0,0,0,2,3,1,5,0003-00-0000-75.png,0002-00-0000-80.png
00000009,3,1,1449260408474,1449260409184,940,494,0,0,0,1,0,1,1,0004-00-0000-89.png,0005-00-0000-33.png
00000009,4,1,1449260410493,1449260411165,437,218,0,0,0,0,1,1,1,0005-00-0000-91.png,0004-00-0000-13.png
00000009,5,0,1449260412213,1449260412575,916,548,0,0,0,1,2,1,3,0004-00-0000-92.png,0003-00-0000-85.png
00000009,6,0,1449260415721,1449260415737,932,303,0,0,0,3,4,1,7,0002-00-0000-41.png,0001-00-0001-25.png
00000009,7,1,1449260418670,1449260418934,968,303,0,0,0,2,1,1,3,0003-00-0001-70.png,0004-00-0001-04.png
00000009,8,0,1449260419920,1449260421022,408,328,0,0,0,4,3,1,7,0001-00-0001-71.png,0002-00-0000-84.png
00000009,9,1,1449260423916,1449260423976,936,316,0,0,0,3,2,1,5,0002-00-0001-11.png,0003-00-0000-72.png
00000009,10,1,1449260424953,1449260425614,933,311,0,0,0,1,0,1,1,0004-00-0001-70.png,0005-00-0000-32.png
00000009,11,0,1449260426509,1449260427743,990,347,0,0,0,3,4,1,7,0002-00-0001-41.png,0001-00-0001-05.png
00000009,12,1,1449260431096,1449260431641,517,251,0,0,0,1,2,1,3,0004-00-0001-06.png,0003-00-0000-15.png
00000009,13,1,1449260432584,1449260433450,400,322,0,0,0,0,1,1,1,0005-00-0001-94.png,0004-00-0000-28.png
00000009,14,0,1449260434433,1449260435333,944,331,0,0,0,2,3,1,5,0003-00-0000-61.png,0002-00-0001-61.png
00000009,15,0,1449260438167,1449260438861,408,378,0,0,0,2,1,1,3,0003-00-0000-75.png,0004-00-0001-50.png
00000009,16,1,1449260442031,1449260442230,862,358,0,0,0,4,3,1,7,0001-00-0001-51.png,0002-00-0000-60.png
00000009,17,1,1449260443217,1449260443313,916,431,0,0,0,1,0,1,1,0004-00-0001-02.png,0005-00-0000-63.png
00000009,18,0,1449260444316,1449260444396,913,399,0,0,0,0,1,1,1,0005-00-0000-61.png,0004-00-0001-53.png
00000009,19,0,1449260447505,1449260448102,516,245,0,0,0,4,3,1,7,0001-00-0001-31.png,0002-00-0001-59.png
00000009,20,1,1449260461390,1449260462896,985,310,0,0,0,3,2,1,5,0002-00-0001-42.png,0003-00-0001-14.png
00000009,21,0,1449260463813,1449260463983,986,474,0,0,0,1,2,1,3,0004-00-0000-33.png,0003-00-0000-61.png
00000009,22,1,1449260491636,1449260492162,983,237,0,0,0,2,1,1,3,0003-00-0001-45.png,0004-00-0001-86.png
00000009,23,0,1449260493189,1449260493213,879,332,0,0,0,2,3,1,5,0003-00-0001-77.png,0002-00-0000-12.png
00000009,24,1,1449260496332,1449260497144,483,254,0,0,0,3,4,1,7,0002-00-0001-00.png,0001-00-0000-14.png
00000009,25,1,1449260498028,1449260498711,1024,252,0,0,0,3,2,1,5,0002-00-0000-04.png,0003-00-0001-91.png
00000009,26,1,1449260499628,1449260501776,466,267,0,0,0,2,3,1,5,0003-00-0001-72.png,0002-00-0001-13.png
00000009,27,1,1449260502658,1449260503331,479,228,0,0,0,0,1,1,1,0005-00-0001-08.png,0004-00-0000-70.png
00000009,28,1,1449260504189,1449260504825,1079,227,0,0,0,1,0,1,1,0004-00-0000-22.png,0005-00-0000-63.png
00000009,29,1,1449260505729,1449260506405,344,377,0,0,0,3,4,1,7,0002-00-0000-23.png,0001-00-0000-56.png
00000009,30,1,1449260507470,1449260508304,973,387,0,0,0,2,1,1,3,0003-00-0000-42.png,0004-00-0000-61.png
00000009,31,0,1449260509289,1449260509333,910,410,0,0,0,1,2,1,3,0004-00-0000-99.png,0003-00-0001-66.png
00000009,32,1,1449260512290,1449260512790,940,279,0,0,0,4,3,1,7,0001-00-0001-00.png,0002-00-0000-67.png
00000009,33,1,1449260513616,1449260514575,445,390,0,0,0,2,3,1,5,0003-00-0001-25.png,0002-00-0001-28.png
00000009,34,1,1449260515506,1449260516304,968,306,0,0,0,4,3,1,7,0001-00-0000-45.png,0002-00-0000-38.png
00000009,35,1,1449260517346,1449260518033,469,235,0,0,0,0,1,1,1,0005-00-0000-92.png,0004-00-0001-28.png
00000009,36,0,1449260518969,1449260519838,1033,253,0,0,0,3,4,1,7,0002-00-0001-89.png,0001-00-0001-54.png
00000009,37,1,1449260522874,1449260523402,990,289,0,0,0,2,1,1,3,0003-00-0000-99.png,0004-00-0001-11.png
00000009,38,0,1449260524273,1449260525144,483,243,0,0,0,3,2,1,5,0002-00-0001-13.png,0003-00-0000-26.png
00000009,39,1,1449260528369,1449260528882,1071,306,0,0,0,1,0,1,1,0004-00-0001-18.png,0005-00-0000-76.png
00000009,40,0,1449260530257,1449260531259,990,227,0,0,0,1,2,1,3,0004-00-0001-40.png,0003-00-0001-40.png
00000009,41,1,1449260534214,1449260534673,964,269,0,0,0,2,1,1,3,0003-00-0001-39.png,0004-00-0001-46.png
00000009,42,0,1449260535553,1449260535581,861,394,0,0,0,3,4,1,7,0002-00-0001-92.png,0001-00-0001-81.png
00000009,43,1,1449260538725,1449260538741,896,333,0,0,0,1,0,1,1,0004-00-0001-71.png,0005-00-0000-28.png
00000009,44,0,1449260539645,1449260540548,968,308,0,0,0,1,2,1,3,0004-00-0000-08.png,0003-00-0001-35.png
00000009,45,0,1449260543504,1449260544223,492,265,0,0,0,4,3,1,7,0001-00-0000-20.png,0002-00-0000-54.png
00000009,46,1,1449260547322,1449260548009,400,341,0,0,0,2,3,1,5,0003-00-0000-22.png,0002-00-0000-66.png
00000009,47,0,1449260548878,1449260558189,888,500,0,0,0,0,1,1,1,0005-00-0001-71.png,0004-00-0001-84.png
00000009,48,1,1449260561485,1449260561580,858,401,0,0,0,3,2,1,5,0002-00-0001-59.png,0003-00-0001-98.png
00000009,49,1,1449260562510,1449260563232,1023,295,0,0,0,3,2,1,5,0002-00-0000-20.png,0003-00-0001-19.png
00000009,50,0,1449260564093,1449260564742,468,232,0,0,0,4,3,1,7,0001-00-0000-83.png,0002-00-0001-85.png
00000009,51,0,1449260575779,1449260576250,966,414,0,0,0,1,2,1,3,0004-00-0000-97.png,0003-00-0001-42.png
00000009,52,1,1449260579222,1449260579849,387,414,0,0,0,3,4,1,7,0002-00-0001-65.png,0001-00-0000-11.png
00000009,53,1,1449260580760,1449260581482,916,381,0,0,0,1,0,1,1,0004-00-0000-64.png,0005-00-0001-72.png
00000009,54,1,1449260582347,1449260583171,956,305,0,0,0,2,1,1,3,0003-00-0000-17.png,0004-00-0000-99.png
00000009,55,1,1449260584177,1449260584839,391,314,0,0,0,0,1,1,1,0005-00-0001-84.png,0004-00-0001-59.png
00000009,56,1,1449260585807,1449260587100,468,240,0,0,0,2,3,1,5,0003-00-0001-52.png,0002-00-0001-95.png
00000009,57,1,1449260588053,1449260588869,1035,233,0,0,0,1,0,1,1,0004-00-0000-21.png,0005-00-0001-16.png
00000009,58,1,1449260589760,1449260591476,353,377,0,0,0,2,3,1,5,0003-00-0000-37.png,0002-00-0000-48.png
00000009,59,1,1449260592423,1449260593256,1016,266,0,0,0,2,1,1,3,0003-00-0000-60.png,0004-00-0000-90.png
00000009,60,1,1449260594283,1449260594938,461,219,0,0,0,0,1,1,1,0005-00-0000-35.png,0004-00-0001-75.png
00000009,61,1,1449260595943,1449260596877,1017,263,0,0,0,4,3,1,7,0001-00-0001-65.png,0002-00-0000-78.png
00000009,62,0,1449260597790,1449260597838,859,414,0,0,0,3,4,1,7,0002-00-0001-60.png,0001-00-0001-46.png
00000009,63,1,1449260601067,1449260601129,888,306,0,0,0,3,2,1,5,0002-00-0001-97.png,0003-00-0000-49.png
00000009,64,1,1449260602080,1449260602980,502,240,0,0,0,1,2,1,3,0004-00-0000-15.png,0003-00-0001-03.png
00000009,65,1,1449260603921,1449260604836,361,362,0,0,0,3,4,1,7,0002-00-0001-81.png,0001-00-0000-95.png
00000009,66,1,1449260605892,1449260606637,415,384,0,0,0,0,1,1,1,0005-00-0001-30.png,0004-00-0001-85.png
00000009,67,1,1449260607586,1449260608466,942,308,0,0,0,3,2,1,5,0002-00-0001-96.png,0003-00-0001-83.png
00000009,68,0,1449260609596,1449260610291,486,249,0,0,0,4,3,1,7,0001-00-0000-36.png,0002-00-0000-27.png
00000009,69,1,1449260613240,1449260613418,862,449,0,0,0,1,0,1,1,0004-00-0001-34.png,0005-00-0000-65.png
00000009,70,0,1449260614358,1449260615303,959,320,0,0,0,1,2,1,3,0004-00-0001-19.png,0003-00-0000-29.png
00000009,71,1,1449260618293,1449260618406,943,279,0,0,0,2,1,1,3,0003-00-0001-87.png,0004-00-0000-77.png
00000009,72,1,1449260619323,1449260620238,392,348,0,0,0,2,3,1,5,0003-00-0000-49.png,0002-00-0001-60.png
00000009,73,1,1449260621252,1449260622176,395,349,0,0,0,1,2,1,3,0004-00-0000-17.png,0003-00-0001-48.png
00000009,74,1,1449260623218,1449260624252,964,347,0,0,0,4,3,1,7,0001-00-0000-37.png,0002-00-0001-77.png
00000009,75,0,1449260625184,1449260625951,955,292,0,0,0,2,3,1,5,0003-00-0000-79.png,0002-00-0000-05.png
00000009,76,1,1449260629056,1449260629336,994,293,0,0,0,1,0,1,1,0004-00-0000-60.png,0005-00-0001-41.png
00000009,77,1,1449260630317,1449260631250,1040,287,0,0,0,3,2,1,5,0002-00-0000-95.png,0003-00-0001-33.png
00000009,78,0,1449260632233,1449260632293,857,425,0,0,0,0,1,1,1,0005-00-0000-19.png,0004-00-0001-51.png
00000009,79,1,1449260635251,1449260636063,483,276,0,0,0,3,4,1,7,0002-00-0001-72.png,0001-00-0000-64.png
00000009,80,0,1449260636900,1449260637849,519,259,0,0,0,2,1,1,3,0003-00-0000-84.png,0004-00-0001-74.png
00000009,81,0,1449260640911,1449260641576,356,381,0,0,0,4,3,1,7,0001-00-0001-90.png,0002-00-0000-14.png
00000009,82,0,1449260644465,1449260645028,937,384,0,0,0,2,3,1,5,0003-00-0001-37.png,0002-00-0000-58.png
00000009,83,0,1449260648126,1449260648800,1064,309,0,0,0,3,4,1,7,0002-00-0000-85.png,0001-00-0001-79.png
00000009,84,1,1449260651826,1449260652287,962,300,0,0,0,3,2,1,5,0002-00-0000-85.png,0003-00-0001-66.png
00000009,85,0,1449260653170,1449260654122,937,313,0,0,0,1,2,1,3,0004-00-0000-03.png,0003-00-0001-61.png
00000009,86,1,1449260656954,1449260657482,939,306,0,0,0,2,1,1,3,0003-00-0001-59.png,0004-00-0001-25.png
00000009,87,1,1449260658878,1449260659484,1028,253,0,0,0,1,0,1,1,0004-00-0000-40.png,0005-00-0000-38.png
00000009,88,0,1449260660385,1449260660445,884,400,0,0,0,0,1,1,1,0005-00-0001-05.png,0004-00-0001-36.png
00000009,89,0,1449260663560,1449260663608,918,310,0,0,0,0,1,1,1,0005-00-0000-34.png,0004-00-0000-59.png
00000009,90,1,1449260666696,1449260666724,901,334,0,0,0,2,1,1,3,0003-00-0000-12.png,0004-00-0001-79.png
00000009,91,0,1449260667662,1449260668402,413,384,0,0,0,4,3,1,7,0001-00-0001-23.png,0002-00-0001-42.png
00000009,92,1,1449260671482,1449260671633,905,410,0,0,0,1,0,1,1,0004-00-0000-57.png,0005-00-0000-12.png
00000009,93,1,1449260672575,1449260673383,1029,279,0,0,0,3,2,1,5,0002-00-0000-83.png,0003-00-0000-86.png
00000009,94,0,1449260674342,1449260675322,1058,288,0,0,0,3,4,1,7,0002-00-0000-69.png,0001-00-0001-41.png
00000009,95,0,1449260678294,1449260678320,935,324,0,0,0,1,2,1,3,0004-00-0001-60.png,0003-00-0000-51.png
00000009,96,0,1449260681414,1449260681454,939,306,0,0,0,2,3,1,5,0003-00-0000-83.png,0002-00-0001-87.png
00000009,97,1,1449260684388,1449260684852,950,277,0,0,0,3,2,1,5,0002-00-0000-97.png,0003-00-0000-28.png
00000009,98,1,1449260685697,1449260686870,424,295,0,0,0,1,2,1,3,0004-00-0000-67.png,0003-00-0000-77.png
00000009,99,1,1449260687819,1449260688821,507,242,0,0,0,2,3,1,5,0003-00-0000-82.png,0002-00-0001-03.png
00000009,100,0,1449260689783,1449260690594,1042,237,0,0,0,3,4,1,7,0002-00-0000-18.png,0001-00-0000-48.png
00000009,101,1,1449260693499,1449260693519,869,328,0,0,0,2,1,1,3,0003-00-0001-30.png,0004-00-0001-48.png
00000009,102,1,1449260694475,1449260695258,1041,242,0,0,0,1,0,1,1,0004-00-0000-42.png,0005-00-0000-53.png
00000009,103,0,1449260696215,1449260696936,420,416,0,0,0,4,3,1,7,0001-00-0001-59.png,0002-00-0000-55.png
00000009,104,0,1449260699798,1449260700033,935,326,0,0,0,0,1,1,1,0005-00-0000-64.png,0004-00-0000-05.png
00000009,105,1,1449260703132,1449260703160,866,354,0,0,0,2,1,1,3,0003-00-0000-59.png,0004-00-0000-01.png
00000009,106,1,1449260704065,1449260704919,511,219,0,0,0,2,3,1,5,0003-00-0000-99.png,0002-00-0000-19.png
00000009,107,1,1449260705815,1449260706581,488,227,0,0,0,0,1,1,1,0005-00-0000-94.png,0004-00-0001-63.png
00000009,108,0,1449260707643,1449260708724,425,397,0,0,0,4,3,1,7,0001-00-0001-97.png,0002-00-0000-70.png
00000009,109,1,1449260711739,1449260711803,946,327,0,0,0,3,2,1,5,0002-00-0001-53.png,0003-00-0001-59.png
00000009,110,1,1449260712694,1449260713403,912,315,0,0,0,1,0,1,1,0004-00-0000-21.png,0005-00-0000-34.png
00000009,111,1,1449260714328,1449260715222,489,227,0,0,0,1,2,1,3,0004-00-0000-01.png,0003-00-0001-26.png
00000009,112,0,1449260716141,1449260716887,1058,227,0,0,0,3,4,1,7,0002-00-0001-76.png,0001-00-0001-06.png
00000009,113,0,1449260720013,1449260720600,1049,261,0,0,0,3,4,1,7,0002-00-0000-14.png,0001-00-0001-09.png
00000009,114,1,1449260723999,1449260724563,1041,244,0,0,0,3,2,1,5,0002-00-0001-14.png,0003-00-0000-87.png
00000009,115,1,1449260725478,1449260726115,384,299,0,0,0,0,1,1,1,0005-00-0001-23.png,0004-00-0000-75.png
00000009,116,0,1449260727068,1449260727805,1041,241,0,0,0,1,2,1,3,0004-00-0000-86.png,0003-00-0000-09.png
00000009,117,1,1449260730944,1449260731570,464,242,0,0,0,2,3,1,5,0003-00-0000-17.png,0002-00-0000-46.png
00000009,118,1,1449260732439,1449260733526,1041,243,0,0,0,2,1,1,3,0003-00-0000-10.png,0004-00-0001-94.png
00000009,119,1,1449260734504,1449260735406,1061,261,0,0,0,1,0,1,1,0004-00-0001-58.png,0005-00-0000-44.png
00000009,120,1,1449260736414,1449260736459,876,418,0,0,0,4,3,1,7,0001-00-0000-20.png,0002-00-0001-98.png
00000009,121,1,1449260737656,1449260737704,859,428,0,0,0,4,3,1,7,0001-00-0000-05.png,0002-00-0000-88.png
00000009,122,1,1449260738858,1449260739517,401,396,0,0,0,0,1,1,1,0005-00-0001-34.png,0004-00-0000-90.png
00000009,123,1,1449260740437,1449260741779,484,250,0,0,0,2,3,1,5,0003-00-0001-69.png,0002-00-0001-01.png
00000009,124,0,1449260742671,1449260743530,490,226,0,0,0,3,2,1,5,0002-00-0001-22.png,0003-00-0001-77.png
00000009,125,1,1449260746507,1449260746982,1045,256,0,0,0,1,0,1,1,0004-00-0000-71.png,0005-00-0001-91.png
00000009,126,0,1449260747837,1449260748614,966,324,0,0,0,3,4,1,7,0002-00-0001-59.png,0001-00-0000-84.png
00000009,127,1,1449260751736,1449260752271,899,306,0,0,0,2,1,1,3,0003-00-0001-65.png,0004-00-0000-81.png
00000009,128,0,1449260753237,1449260753293,869,456,0,0,0,1,2,1,3,0004-00-0000-72.png,0003-00-0000-76.png
00000009,129,1,1449260756236,1449260756960,942,302,0,0,0,2,1,1,3,0003-00-0001-80.png,0004-00-0000-41.png
00000009,130,0,1449260757835,1449260757921,873,445,0,0,0,0,1,1,1,0005-00-0000-29.png,0004-00-0000-83.png
00000009,131,0,1449260761035,1449260761616,386,368,0,0,0,4,3,1,7,0001-00-0000-33.png,0002-00-0001-82.png
00000009,132,0,1449260764853,1449260765370,1022,294,0,0,0,3,4,1,7,0002-00-0000-38.png,0001-00-0001-38.png
00000009,133,0,1449260768431,1449260768967,939,323,0,0,0,2,3,1,5,0003-00-0000-31.png,0002-00-0001-04.png
00000009,134,1,1449260771965,1449260772221,891,362,0,0,0,3,2,1,5,0002-00-0001-86.png,0003-00-0001-37.png
00000009,135,0,1449260773200,1449260774065,933,295,0,0,0,1,2,1,3,0004-00-0001-55.png,0003-00-0000-55.png
00000009,136,1,1449260777013,1449260777530,1035,247,0,0,0,1,0,1,1,0004-00-0001-42.png,0005-00-0001-82.png
00000009,137,0,1449260779006,1449260779589,1041,270,0,0,0,1,2,1,3,0004-00-0001-80.png,0003-00-0000-11.png
00000009,138,1,1449260782697,1449260782965,960,315,0,0,0,1,0,1,1,0004-00-0001-38.png,0005-00-0000-42.png
00000009,139,0,1449260783871,1449260784815,1025,267,0,0,0,3,4,1,7,0002-00-0001-86.png,0001-00-0000-25.png
00000009,140,1,1449260787958,1449260787962,859,311,0,0,0,2,1,1,3,0003-00-0000-36.png,0004-00-0001-52.png
00000009,141,1,1449260788893,1449260788901,518,489,0,0,0,0,1,1,1,0005-00-0001-69.png,0004-00-0001-23.png
00000009,142,1,1449260789923,1449260789967,517,500,0,0,0,2,3,1,5,0003-00-0001-48.png,0002-00-0000-61.png
00000009,143,1,1449260790980,1449260791933,1041,253,0,0,0,3,2,1,5,0002-00-0001-99.png,0003-00-0001-20.png
00000009,144,1,1449260792795,1449260792843,862,372,0,0,0,4,3,1,7,0001-00-0001-83.png,0002-00-0000-50.png
00000009,145,0,1449260794008,1449260794901,1014,288,0,0,0,3,4,1,7,0002-00-0001-80.png,0001-00-0000-32.png
00000009,146,0,1449260797877,1449260798570,475,273,0,0,0,2,1,1,3,0003-00-0000-00.png,0004-00-0001-87.png
00000009,147,0,1449260801500,1449260801563,860,376,0,0,0,2,3,1,5,0003-00-0001-15.png,0002-00-0000-63.png
00000009,148,1,1449260804734,1449260804754,933,297,0,0,0,4,3,1,7,0001-00-0000-81.png,0002-00-0001-52.png
00000009,149,1,1449260805615,1449260806704,496,244,0,0,0,1,2,1,3,0004-00-0000-91.png,0003-00-0001-55.png
00000009,150,1,1449260807629,1449260808595,1041,264,0,0,0,1,0,1,1,0004-00-0000-81.png,0005-00-0000-01.png
00000009,151,1,1449260809564,1449260810389,392,384,0,0,0,0,1,1,1,0005-00-0001-28.png,0004-00-0000-94.png
00000009,152,1,1449260811521,1449260812366,1050,265,0,0,0,3,2,1,5,0002-00-0001-99.png,0003-00-0001-74.png
00000009,153,0,1449260813509,1449260814481,1056,253,0,0,0,1,2,1,3,0004-00-0001-84.png,0003-00-0001-96.png
00000009,154,1,1449260817640,1449260817682,921,303,0,0,0,2,1,1,3,0003-00-0000-33.png,0004-00-0001-34.png
00000009,155,0,1449260818562,1449260818575,517,479,0,0,0,4,3,1,7,0001-00-0000-51.png,0002-00-0000-11.png
00000009,156,1,1449260821697,1449260821713,970,306,0,0,0,3,2,1,5,0002-00-0000-94.png,0003-00-0000-61.png
00000009,157,1,1449260822659,1449260824276,460,270,0,0,0,2,3,1,5,0003-00-0001-98.png,0002-00-0000-65.png
00000009,158,1,1449260825161,1449260826515,372,247,0,0,0,0,1,1,1,0005-00-0001-90.png,0004-00-0000-66.png
00000009,159,1,1449260827541,1449260828418,488,240,0,0,0,3,4,1,7,0002-00-0001-30.png,0001-00-0000-11.png
00000009,160,1,1449260829465,1449260830427,1027,242,0,0,0,1,0,1,1,0004-00-0000-48.png,0005-00-0000-70.png
00000009,161,1,1449260831397,1449260832556,501,268,0,0,0,2,3,1,5,0003-00-0000-31.png,0002-00-0001-87.png
00000009,162,0,1449260833546,1449260834490,906,335,0,0,0,3,4,1,7,0002-00-0001-77.png,0001-00-0001-72.png
00000009,163,0,1449260837534,1449260837602,930,328,0,0,0,0,1,1,1,0005-00-0001-13.png,0004-00-0001-00.png
00000009,164,1,1449260841092,1449260841578,1041,244,0,0,0,4,3,1,7,0001-00-0001-95.png,0002-00-0000-47.png
00000009,165,1,1449260842435,1449260843398,949,299,0,0,0,1,0,1,1,0004-00-0001-12.png,0005-00-0001-58.png
00000009,166,0,1449260844293,1449260845470,358,324,0,0,0,2,1,1,3,0003-00-0001-94.png,0004-00-0000-22.png
00000009,167,0,1449260848435,1449260848447,859,361,0,0,0,1,2,1,3,0004-00-0000-73.png,0003-00-0000-70.png
00000009,168,1,1449260851453,1449260851477,863,346,0,0,0,3,2,1,5,0002-00-0000-72.png,0003-00-0000-32.png
00000009,169,0,1449260852358,1449260853243,914,296,0,0,0,1,2,1,3,0004-00-0000-48.png,0003-00-0000-52.png
00000009,170,0,1449260856302,1449260856366,1014,293,0,0,0,0,1,1,1,0005-00-0001-21.png,0004-00-0000-05.png
00000009,171,0,1449260859191,1449260859195,932,318,0,0,0,3,4,1,7,0002-00-0001-91.png,0001-00-0000-22.png
00000009,172,1,1449260862277,1449260862309,914,318,0,0,0,3,2,1,5,0002-00-0000-91.png,0003-00-0000-95.png
00000009,173,1,1449260863269,1449260863924,903,332,0,0,0,1,0,1,1,0004-00-0000-33.png,0005-00-0000-75.png
00000009,174,0,1449260864886,1449260866592,412,317,0,0,0,2,1,1,3,0003-00-0000-13.png,0004-00-0001-43.png
00000009,175,0,1449260869700,1449260870188,1041,243,0,0,0,2,3,1,5,0003-00-0000-78.png,0002-00-0000-88.png
00000009,176,0,1449260873312,1449260874109,420,235,0,0,0,4,3,1,7,0001-00-0001-67.png,0002-00-0001-13.png
00000009,177,1,1449260877244,1449260877300,956,298,0,0,0,2,1,1,3,0003-00-0001-99.png,0004-00-0000-78.png
00000009,178,0,1449260878204,1449260879180,406,353,0,0,0,4,3,1,7,0001-00-0000-65.png,0002-00-0001-17.png
00000009,179,0,1449260882162,1449260882724,964,384,0,0,0,1,2,1,3,0004-00-0001-61.png,0003-00-0001-32.png
00000009,180,1,1449260885791,1449260885815,931,313,0,0,0,1,0,1,1,0004-00-0001-38.png,0005-00-0001-67.png
00000009,181,1,1449260886761,1449260888163,484,241,0,0,0,3,4,1,7,0002-00-0001-45.png,0001-00-0001-21.png
00000009,182,1,1449260889084,1449260890241,361,368,0,0,0,0,1,1,1,0005-00-0000-16.png,0004-00-0000-46.png
00000009,183,1,1449260891165,1449260892474,469,234,0,0,0,2,3,1,5,0003-00-0000-69.png,0002-00-0000-86.png
00000009,184,1,1449260893499,1449260894513,1041,219,0,0,0,3,2,1,5,0002-00-0000-37.png,0003-00-0000-55.png
00000009,185,0,1449260895433,1449260896129,466,227,0,0,0,4,3,1,7,0001-00-0001-32.png,0002-00-0000-78.png
00000009,186,1,1449260899104,1449260899562,939,396,0,0,0,1,0,1,1,0004-00-0000-77.png,0005-00-0000-61.png
00000009,187,1,1449260900401,1449260901348,489,242,0,0,0,2,3,1,5,0003-00-0001-64.png,0002-00-0000-84.png
00000009,188,0,1449260902305,1449260903097,954,306,0,0,0,3,4,1,7,0002-00-0001-17.png,0001-00-0001-07.png
00000009,189,0,1449260906258,1449260906279,922,294,0,0,0,0,1,1,1,0005-00-0000-83.png,0004-00-0001-04.png
00000009,190,0,1449260909488,1449260910216,388,370,0,0,0,2,1,1,3,0003-00-0000-87.png,0004-00-0000-89.png
00000009,191,0,1449260913297,1449260913353,926,308,0,0,0,1,2,1,3,0004-00-0000-16.png,0003-00-0000-29.png
00000009,192,1,1449260916455,1449260916992,1055,252,0,0,0,3,2,1,5,0002-00-0000-38.png,0003-00-0001-68.png
00000009,193,1,1449260918458,1449260919083,1034,271,0,0,0,2,1,1,3,0003-00-0001-84.png,0004-00-0000-33.png
00000009,194,0,1449260920056,1449260921375,932,370,0,0,0,3,4,1,7,0002-00-0001-56.png,0001-00-0001-52.png
00000009,195,1,1449260924254,1449260924314,870,335,0,0,0,3,2,1,5,0002-00-0001-44.png,0003-00-0001-65.png
00000009,196,0,1449260925236,1449260926095,1041,240,0,0,0,1,2,1,3,0004-00-0001-57.png,0003-00-0000-82.png
00000009,197,0,1449260929108,1449260929157,899,304,0,0,0,2,3,1,5,0003-00-0001-23.png,0002-00-0001-44.png
00000009,198,1,1449260932061,1449260932097,935,362,0,0,0,4,3,1,7,0001-00-0000-57.png,0002-00-0000-20.png
00000009,199,1,1449260933034,1449260933756,469,234,0,0,0,0,1,1,1,0005-00-0000-63.png,0004-00-0001-30.png
00000009,200,0,1449260934708,1449260935388,392,313,0,0,0,1,0,1,1,0004-00-0001-06.png,0005-00-0001-83.png
00000009,201,1,1449260938438,1449260938486,929,333,0,0,0,1,0,1,1,0004-00-0000-62.png,0005-00-0000-20.png
00000009,202,0,1449260939407,1449260940064,939,346,0,0,0,1,2,1,3,0004-00-0001-83.png,0003-00-0001-89.png
00000009,203,0,1449260942916,1449260942960,928,301,0,0,0,0,1,1,1,0005-00-0001-93.png,0004-00-0001-82.png
00000009,204,0,1449260946053,1449260946562,941,298,0,0,0,3,4,1,7,0002-00-0000-94.png,0001-00-0000-36.png
00000009,205,1,1449260950096,1449260950659,1045,265,0,0,0,3,2,1,5,0002-00-0001-27.png,0003-00-0000-30.png
00000009,206,0,1449260951486,1449260952542,378,293,0,0,0,2,1,1,3,0003-00-0001-90.png,0004-00-0000-06.png
00000009,207,1,1449260955622,1449260956246,450,263,0,0,0,2,3,1,5,0003-00-0000-42.png,0002-00-0000-55.png
00000009,208,1,1449260957142,1449260958165,945,321,0,0,0,4,3,1,7,0001-00-0001-21.png,0002-00-0000-82.png
00000009,209,1,1449260959157,1449260960233,375,345,0,0,0,2,3,1,5,0003-00-0000-68.png,0002-00-0000-52.png
00000009,210,0,1449260961345,1449260962349,1110,263,0,0,0,1,2,1,3,0004-00-0001-60.png,0003-00-0000-25.png
00000009,211,1,1449260965417,1449260965445,899,313,0,0,0,1,0,1,1,0004-00-0000-21.png,0005-00-0000-21.png
00000009,212,0,1449260966336,1449260967209,470,237,0,0,0,4,3,1,7,0001-00-0001-88.png,0002-00-0001-07.png
00000009,213,0,1449260970319,1449260970935,939,410,0,0,0,3,4,1,7,0002-00-0000-84.png,0001-00-0000-61.png
00000009,214,1,1449260974178,1449260974739,1067,243,0,0,0,3,2,1,5,0002-00-0000-52.png,0003-00-0000-17.png
00000009,215,0,1449260975612,1449260977221,422,246,0,0,0,2,1,1,3,0003-00-0000-90.png,0004-00-0001-83.png
00000009,216,0,1449260980308,1449260980336,871,329,0,0,0,0,1,1,1,0005-00-0001-15.png,0004-00-0000-21.png
00000009,217,1,1449260983408,1449260983456,932,314,0,0,0,3,2,1,5,0002-00-0000-32.png,0003-00-0001-78.png
00000009,218,1,1449260984441,1449260986107,484,241,0,0,0,2,3,1,5,0003-00-0001-09.png,0002-00-0001-13.png
00000009,219,1,1449260987089,1449260988156,970,323,0,0,0,4,3,1,7,0001-00-0001-17.png,0002-00-0001-89.png
00000009,220,1,1449260989160,1449260989984,1067,262,0,0,0,1,0,1,1,0004-00-0000-19.png,0005-00-0000-67.png
00000009,221,1,1449260990919,1449260992310,482,236,0,0,0,3,4,1,7,0002-00-0000-14.png,0001-00-0000-82.png
00000009,222,1,1449260993253,1449260994731,385,410,0,0,0,1,2,1,3,0004-00-0001-58.png,0003-00-0000-63.png
00000009,223,1,1449260995691,1449260996937,935,341,0,0,0,2,1,1,3,0003-00-0001-72.png,0004-00-0000-53.png
00000009,224,1,1449260997877,1449260998708,439,285,0,0,0,0,1,1,1,0005-00-0001-37.png,0004-00-0001-53.png
00000009,225,0,1449260999851,1449261001068,477,260,0,0,0,3,2,1,5,0002-00-0000-01.png,0003-00-0001-74.png
00000009,226,0,1449261004002,1449261004084,990,360,0,0,0,2,3,1,5,0003-00-0000-34.png,0002-00-0001-34.png
00000009,227,1,1449261007208,1449261007276,991,278,0,0,0,4,3,1,7,0001-00-0001-66.png,0002-00-0000-82.png
00000009,228,0,1449261008213,1449261009091,954,279,0,0,0,1,2,1,3,0004-00-0000-50.png,0003-00-0001-13.png
00000009,229,1,1449261012213,1449261012265,915,279,0,0,0,2,1,1,3,0003-00-0001-22.png,0004-00-0000-53.png
00000009,230,1,1449261013200,1449261013904,942,295,0,0,0,1,0,1,1,0004-00-0000-69.png,0005-00-0000-57.png
00000009,231,1,1449261014792,1449261015756,460,220,0,0,0,3,4,1,7,0002-00-0000-87.png,0001-00-0001-93.png
00000009,232,1,1449261016663,1449261017514,488,230,0,0,0,0,1,1,1,0005-00-0000-31.png,0004-00-0000-04.png
00000009,233,1,1449261018544,1449261019479,938,335,0,0,0,4,3,1,7,0001-00-0001-49.png,0002-00-0000-25.png
00000009,234,1,1449261020622,1449261021799,469,229,0,0,0,2,3,1,5,0003-00-0001-81.png,0002-00-0001-46.png
00000009,235,1,1449261022774,1449261023787,949,326,0,0,0,3,2,1,5,0002-00-0001-33.png,0003-00-0000-34.png
00000009,236,0,1449261024740,1449261026008,973,278,0,0,0,3,4,1,7,0002-00-0000-87.png,0001-00-0001-02.png
00000009,237,1,1449261028856,1449261029389,937,381,0,0,0,2,1,1,3,0003-00-0000-10.png,0004-00-0001-07.png
00000009,238,1,1449261030279,1449261030952,1074,261,0,0,0,1,0,1,1,0004-00-0000-43.png,0005-00-0000-88.png
00000009,239,0,1449261031901,1449261031990,891,444,0,0,0,0,1,1,1,0005-00-0001-91.png,0004-00-0001-88.png
00000009,240,0,1449261035202,1449261035754,1067,244,0,0,0,1,2,1,3,0004-00-0000-86.png,0003-00-0000-38.png
00000009,241,1,1449261038666,1449261038727,888,346,0,0,0,4,3,1,7,0001-00-0000-41.png,0002-00-0001-19.png
00000009,242,0,1449261039724,1449261040511,939,294,0,0,0,2,3,1,5,0003-00-0000-96.png,0002-00-0000-47.png
00000009,243,1,1449261043645,1449261043665,911,297,0,0,0,2,1,1,3,0003-00-0001-75.png,0004-00-0000-88.png
00000009,244,1,1449261044653,1449261045466,939,384,0,0,0,1,0,1,1,0004-00-0000-90.png,0005-00-0000-49.png
00000009,245,1,1449261046342,1449261047114,419,376,0,0,0,0,1,1,1,0005-00-0000-59.png,0004-00-0001-08.png
00000009,246,1,1449261048161,1449261049080,1054,259,0,0,0,3,2,1,5,0002-00-0000-98.png,0003-00-0000-19.png
00000009,247,0,1449261050049,1449261051100,926,400,0,0,0,3,4,1,7,0002-00-0000-11.png,0001-00-0000-87.png
00000009,248,0,1449261054172,1449261055198,939,332,0,0,0,1,2,1,3,0004-00-0000-21.png,0003-00-0000-23.png
00000009,249,1,1449261058254,1449261058753,934,310,0,0,0,1,0,1,1,0004-00-0001-50.png,0005-00-0000-95.png
00000009,250,1,1449261059594,1449261060562,978,384,0,0,0,3,2,1,5,0002-00-0001-62.png,0003-00-0000-56.png
00000009,251,0,1449261061575,1449261062564,955,298,0,0,0,1,2,1,3,0004-00-0001-40.png,0003-00-0001-32.png
00000009,252,0,1449261065498,1449261065518,862,334,0,0,0,3,4,1,7,0002-00-0001-37.png,0001-00-0000-24.png
00000009,253,1,1449261068478,1449261068522,908,357,0,0,0,4,3,1,7,0001-00-0000-36.png,0002-00-0001-32.png
00000009,254,1,1449261069416,1449261070704,438,253,0,0,0,2,3,1,5,0003-00-0001-93.png,0002-00-0001-95.png
00000009,255,1,1449261071641,1449261072734,440,239,0,0,0,0,1,1,1,0005-00-0000-14.png,0004-00-0000-09.png
00000009,256,0,1449261073719,1449261074937,416,339,0,0,0,2,1,1,3,0003-00-0000-78.png,0004-00-0001-43.png
00000009,257,0,1449261077879,1449261077899,916,359,0,0,0,0,1,1,1,0005-00-0000-44.png,0004-00-0001-61.png
00000009,258,1,1449261080910,1449261080950,945,329,0,0,0,3,2,1,5,0002-00-0000-19.png,0003-00-0000-01.png
00000009,259,0,1449261081888,1449261082858,919,309,0,0,0,3,4,1,7,0002-00-0000-98.png,0001-00-0000-05.png
00000009,260,0,1449261086497,1449261086557,940,292,0,0,0,1,2,1,3,0004-00-0001-09.png,0003-00-0000-36.png
00000009,261,1,1449261089428,1449261089547,989,320,0,0,0,1,0,1,1,0004-00-0000-81.png,0005-00-0000-66.png
00000009,262,0,1449261090460,1449261091529,401,368,0,0,0,4,3,1,7,0001-00-0001-46.png,0002-00-0001-48.png
00000009,263,1,1449261094586,1449261094614,947,318,0,0,0,2,1,1,3,0003-00-0000-19.png,0004-00-0000-60.png
00000009,264,0,1449261095457,1449261096400,1050,263,0,0,0,2,3,1,5,0003-00-0000-37.png,0002-00-0001-56.png
00000009,265,0,1449261099575,1449261100409,1062,272,0,0,0,1,2,1,3,0004-00-0000-90.png,0003-00-0001-48.png
00000009,266,0,1449261103572,1449261104268,971,386,0,0,0,3,4,1,7,0002-00-0001-12.png,0001-00-0000-17.png
00000009,267,0,1449261107369,1449261107439,944,296,0,0,0,2,3,1,5,0003-00-0001-36.png,0002-00-0000-12.png
00000009,268,1,1449261110420,1449261110938,376,320,0,0,0,0,1,1,1,0005-00-0001-80.png,0004-00-0001-57.png
00000009,269,0,1449261111843,1449261113199,483,232,0,0,0,2,1,1,3,0003-00-0001-59.png,0004-00-0001-74.png
00000009,270,1,1449261116153,1449261116643,965,308,0,0,0,1,0,1,1,0004-00-0001-23.png,0005-00-0000-57.png
00000009,271,1,1449261117462,1449261118628,1066,263,0,0,0,3,2,1,5,0002-00-0000-58.png,0003-00-0000-27.png
00000009,272,1,1449261119630,1449261119658,866,368,0,0,0,4,3,1,7,0001-00-0001-38.png,0002-00-0001-51.png
00000009,273,1,1449261120805,1449261121658,949,396,0,0,0,1,0,1,1,0004-00-0000-06.png,0005-00-0001-24.png
00000009,274,1,1449261122519,1449261122551,860,322,0,0,0,2,1,1,3,0003-00-0001-77.png,0004-00-0001-88.png
00000009,275,0,1449261123846,1449261124918,935,303,0,0,0,2,3,1,5,0003-00-0000-46.png,0002-00-0001-10.png
00000009,276,1,1449261128069,1449261128145,1039,301,0,0,0,4,3,1,7,0001-00-0001-08.png,0002-00-0001-34.png
00000009,277,1,1449261129099,1449261130116,491,238,0,0,0,3,4,1,7,0002-00-0001-42.png,0001-00-0001-60.png
00000009,278,1,1449261131090,1449261131850,1057,244,0,0,0,3,2,1,5,0002-00-0000-64.png,0003-00-0001-01.png
00000009,279,0,1449261132883,1449261132939,865,394,0,0,0,1,2,1,3,0004-00-0001-41.png,0003-00-0001-83.png
00000009,280,1,1449261135785,1449261136304,361,348,0,0,0,0,1,1,1,0005-00-0000-47.png,0004-00-0001-04.png
00000009,281,0,1449261137187,1449261138222,388,292,0,0,0,2,1,1,3,0003-00-0000-26.png,0004-00-0001-38.png
00000009,282,0,1449261141394,1449261141422,935,305,0,0,0,3,4,1,7,0002-00-0001-57.png,0001-00-0001-37.png
00000009,283,1,1449261144544,1449261144568,931,302,0,0,0,1,0,1,1,0004-00-0001-55.png,0005-00-0000-45.png
00000009,284,1,1449261145508,1449261146227,487,228,0,0,0,1,2,1,3,0004-00-0000-32.png,0003-00-0000-30.png
00000009,285,0,1449261147144,1449261148290,513,250,0,0,0,3,2,1,5,0002-00-0000-99.png,0003-00-0001-58.png
00000009,286,0,1449261151441,1449261151481,921,305,0,0,0,0,1,1,1,0005-00-0001-31.png,0004-00-0000-31.png
00000009,287,0,1449261154443,1449261154691,913,294,0,0,0,2,3,1,5,0003-00-0001-43.png,0002-00-0000-34.png
00000009,288,1,1449261157679,1449261157727,889,355,0,0,0,4,3,1,7,0001-00-0001-31.png,0002-00-0001-32.png
00000009,289,1,1449261158649,1449261159337,917,282,0,0,0,1,0,1,1,0004-00-0000-02.png,0005-00-0000-90.png
00000009,290,1,1449261160278,1449261161714,470,235,0,0,0,3,4,1,7,0002-00-0000-88.png,0001-00-0001-11.png
00000009,291,0,1449261162641,1449261163625,1052,272,0,0,0,2,3,1,5,0003-00-0000-08.png,0002-00-0001-45.png
00000009,292,0,1449261166669,1449261166685,888,371,0,0,0,1,2,1,3,0004-00-0001-83.png,0003-00-0001-86.png
00000009,293,0,1449261169608,1449261170440,436,260,0,0,0,4,3,1,7,0001-00-0001-93.png,0002-00-0000-45.png
00000009,294,0,1449261173543,1449261173571,927,275,0,0,0,0,1,1,1,0005-00-0000-57.png,0004-00-0001-25.png
00000009,295,0,1449261176621,1449261177376,374,351,0,0,0,2,1,1,3,0003-00-0001-55.png,0004-00-0001-06.png
00000009,296,1,1449261180321,1449261180349,866,317,0,0,0,3,2,1,5,0002-00-0001-03.png,0003-00-0001-65.png
00000009,297,1,1449261181296,1449261181902,917,279,0,0,0,1,0,1,1,0004-00-0001-42.png,0005-00-0001-02.png
00000009,298,1,1449261182827,1449261183914,491,226,0,0,0,2,3,1,5,0003-00-0000-02.png,0002-00-0000-54.png
00000009,299,1,1449261184982,1449261185677,492,229,0,0,0,0,1,1,1,0005-00-0001-37.png,0004-00-0000-88.png
00000009,300,0,1449261186748,1449261187723,1055,253,0,0,0,1,2,1,3,0004-00-0001-73.png,0003-00-0001-81.png
00000009,301,0,1449261190632,1449261191336,483,257,0,0,0,4,3,1,7,0001-00-0001-04.png,0002-00-0001-62.png
00000009,302,1,1449261194400,1449261195106,483,234,0,0,0,3,4,1,7,0002-00-0000-68.png,0001-00-0000-71.png
00000009,303,0,1449261196039,1449261197120,441,233,0,0,0,3,2,1,5,0002-00-0000-35.png,0003-00-0001-51.png
00000009,304,1,1449261200243,1449261200291,924,305,0,0,0,2,1,1,3,0003-00-0000-52.png,0004-00-0001-34.png
00000009,305,1,1449261201192,1449261202014,427,358,0,0,0,2,3,1,5,0003-00-0001-75.png,0002-00-0001-04.png
00000009,306,0,1449261202999,1449261204130,985,386,0,0,0,1,2,1,3,0004-00-0000-93.png,0003-00-0001-55.png
00000009,307,0,1449261206994,1449261207616,475,231,0,0,0,4,3,1,7,0001-00-0001-00.png,0002-00-0000-19.png
00000009,308,0,1449261210503,1449261210543,890,358,0,0,0,3,4,1,7,0002-00-0000-01.png,0001-00-0000-42.png
00000009,309,1,1449261213640,1449261213680,893,304,0,0,0,3,2,1,5,0002-00-0001-50.png,0003-00-0001-80.png
00000009,310,0,1449261214534,1449261215425,386,335,0,0,0,2,1,1,3,0003-00-0000-64.png,0004-00-0000-58.png
00000009,311,1,1449261218392,1449261219009,459,242,0,0,0,0,1,1,1,0005-00-0000-26.png,0004-00-0000-81.png
00000009,312,1,1449261219894,1449261220629,1019,240,0,0,0,1,0,1,1,0004-00-0000-21.png,0005-00-0001-59.png
00000009,313,1,1449261221608,1449261222548,447,237,0,0,0,2,3,1,5,0003-00-0000-42.png,0002-00-0001-99.png
00000009,314,1,1449261223520,1449261224368,1067,237,0,0,0,4,3,1,7,0001-00-0000-48.png,0002-00-0000-50.png
00000009,315,1,1449261225298,1449261226445,1057,253,0,0,0,3,2,1,5,0002-00-0001-79.png,0003-00-0001-52.png
00000009,316,1,1449261227354,1449261228683,477,236,0,0,0,3,4,1,7,0002-00-0000-48.png,0001-00-0001-61.png
00000009,317,1,1449261229599,1449261230721,510,218,0,0,0,1,2,1,3,0004-00-0001-82.png,0003-00-0001-55.png
00000009,318,1,1449261231728,1449261232562,964,347,0,0,0,1,0,1,1,0004-00-0001-18.png,0005-00-0001-11.png
00000009,319,0,1449261233634,1449261233662,867,363,0,0,0,0,1,1,1,0005-00-0000-75.png,0004-00-0001-31.png
00000009,320,1,1449261236510,1449261236551,889,363,0,0,0,2,1,1,3,0003-00-0000-90.png,0004-00-0000-05.png
00000009,321,1,1449261237451,1449261238304,399,361,0,0,0,2,3,1,5,0003-00-0001-75.png,0002-00-0001-58.png
00000009,322,0,1449261239250,1449261240031,506,225,0,0,0,2,1,1,3,0003-00-0000-64.png,0004-00-0001-27.png
00000009,323,0,1449261243157,1449261243197,943,327,0,0,0,3,4,1,7,0002-00-0001-20.png,0001-00-0001-95.png
00000009,324,0,1449261246258,1449261246306,1008,324,0,0,0,0,1,1,1,0005-00-0000-58.png,0004-00-0001-87.png
00000009,325,1,1449261250062,1449261250102,862,340,0,0,0,4,3,1,7,0001-00-0000-13.png,0002-00-0000-62.png
00000009,326,1,1449261251120,1449261251741,1055,227,0,0,0,1,0,1,1,0004-00-0001-02.png,0005-00-0001-66.png
00000009,327,0,1449261252603,1449261252662,862,384,0,0,0,1,2,1,3,0004-00-0000-89.png,0003-00-0000-56.png
00000009,328,1,1449261255655,1449261255694,903,338,0,0,0,3,2,1,5,0002-00-0001-59.png,0003-00-0000-09.png
00000009,329,0,1449261256611,1449261257530,1038,288,0,0,0,1,2,1,3,0004-00-0001-86.png,0003-00-0001-71.png
00000009,330,0,1449261260653,1449261261460,970,304,0,0,0,2,3,1,5,0003-00-0001-87.png,0002-00-0000-73.png
00000009,331,1,1449261264578,1449261264610,895,317,0,0,0,3,2,1,5,0002-00-0000-47.png,0003-00-0001-61.png
00000009,332,1,1449261265561,1449261266273,438,384,0,0,0,0,1,1,1,0005-00-0001-97.png,0004-00-0001-00.png
00000009,333,1,1449261267257,1449261268065,939,343,0,0,0,1,0,1,1,0004-00-0000-52.png,0005-00-0001-96.png
00000009,334,1,1449261269064,1449261269951,1008,279,0,0,0,2,1,1,3,0003-00-0000-98.png,0004-00-0001-84.png
00000009,335,0,1449261270999,1449261271040,867,376,0,0,0,3,4,1,7,0002-00-0001-26.png,0001-00-0000-84.png
00000009,336,1,1449261274181,1449261274205,878,330,0,0,0,4,3,1,7,0001-00-0001-05.png,0002-00-0001-81.png
00000009,337,0,1449261275054,1449261276136,486,269,0,0,0,2,1,1,3,0003-00-0000-94.png,0004-00-0000-79.png
00000009,338,0,1449261279306,1449261279338,903,313,0,0,0,3,4,1,7,0002-00-0001-03.png,0001-00-0001-78.png
00000009,339,1,1449261282451,1449261282918,1067,255,0,0,0,1,0,1,1,0004-00-0001-34.png,0005-00-0000-86.png
00000009,340,1,1449261284368,1449261285067,465,225,0,0,0,1,2,1,3,0004-00-0001-12.png,0003-00-0000-22.png
00000009,341,1,1449261285946,1449261287150,485,219,0,0,0,2,3,1,5,0003-00-0001-95.png,0002-00-0001-35.png
00000009,342,1,1449261288053,1449261289173,919,286,0,0,0,3,2,1,5,0002-00-0001-85.png,0003-00-0001-80.png
00000009,343,0,1449261290192,1449261291282,509,217,0,0,0,4,3,1,7,0001-00-0000-23.png,0002-00-0000-10.png
00000009,344,1,1449261294286,1449261294752,424,353,0,0,0,0,1,1,1,0005-00-0000-64.png,0004-00-0000-81.png
00000009,345,0,1449261295640,1449261296401,922,303,0,0,0,1,2,1,3,0004-00-0000-16.png,0003-00-0000-97.png
00000009,346,0,1449261299520,1449261299548,917,306,0,0,0,2,3,1,5,0003-00-0001-09.png,0002-00-0000-04.png
00000009,347,0,1449261302473,1449261303256,1085,251,0,0,0,3,4,1,7,0002-00-0000-86.png,0001-00-0000-74.png
00000009,348,1,1449261306302,1449261306357,888,332,0,0,0,4,3,1,7,0001-00-0000-13.png,0002-00-0001-04.png
00000009,349,1,1449261307274,1449261308377,937,376,0,0,0,1,0,1,1,0004-00-0001-24.png,0005-00-0001-10.png
00000009,350,1,1449261309262,1449261309321,859,385,0,0,0,3,2,1,5,0002-00-0000-58.png,0003-00-0001-51.png
00000009,351,0,1449261310515,1449261310591,863,424,0,0,0,0,1,1,1,0005-00-0000-10.png,0004-00-0001-81.png
00000009,352,1,1449261313501,1449261313533,924,382,0,0,0,2,1,1,3,0003-00-0000-53.png,0004-00-0000-18.png
00000009,353,1,1449261314524,1449261315404,493,236,0,0,0,0,1,1,1,0005-00-0000-11.png,0004-00-0001-08.png
00000009,354,0,1449261316245,1449261316953,1060,244,0,0,0,2,3,1,5,0003-00-0001-48.png,0002-00-0000-39.png
00000009,355,0,1449261320116,1449261320738,1041,265,0,0,0,3,4,1,7,0002-00-0000-55.png,0001-00-0001-51.png
00000009,356,0,1449261323620,1449261324199,933,309,0,0,0,1,2,1,3,0004-00-0000-69.png,0003-00-0000-43.png
00000009,357,1,1449261327228,1449261327268,875,308,0,0,0,3,2,1,5,0002-00-0000-59.png,0003-00-0000-69.png
00000009,358,0,1449261328204,1449261329394,491,232,0,0,0,2,1,1,3,0003-00-0001-44.png,0004-00-0000-50.png
00000009,359,1,1449261332478,1449261332565,902,279,0,0,0,4,3,1,7,0001-00-0001-70.png,0002-00-0000-71.png
00000009,360,1,1449261333501,1449261334450,924,334,0,0,0,1,0,1,1,0004-00-0001-06.png,0005-00-0001-12.png
00000009,361,1,1449261335330,1449261336159,436,358,0,0,0,1,2,1,3,0004-00-0001-82.png,0003-00-0000-07.png
00000009,362,0,1449261337109,1449261338095,437,350,0,0,0,4,3,1,7,0001-00-0000-64.png,0002-00-0000-80.png
00000009,363,1,1449261340994,1449261341496,964,294,0,0,0,2,1,1,3,0003-00-0000-34.png,0004-00-0001-46.png
00000009,364,1,1449261342398,1449261343489,498,233,0,0,0,3,4,1,7,0002-00-0001-79.png,0001-00-0000-67.png
00000009,365,1,1449261344435,1449261345227,399,310,0,0,0,0,1,1,1,0005-00-0001-54.png,0004-00-0001-60.png
00000009,366,1,1449261346341,1449261347139,940,280,0,0,0,1,0,1,1,0004-00-0000-83.png,0005-00-0001-26.png
00000009,367,0,1449261348000,1449261348970,380,279,0,0,0,3,2,1,5,0002-00-0000-32.png,0003-00-0000-38.png
00000009,368,0,1449261352052,1449261352080,895,337,0,0,0,2,3,1,5,0003-00-0001-21.png,0002-00-0001-83.png
00000009,369,0,1449261355093,1449261355144,890,374,0,0,0,2,3,1,5,0003-00-0001-65.png,0002-00-0001-68.png
00000009,370,1,1449261358177,1449261358212,927,340,0,0,0,4,3,1,7,0001-00-0001-52.png,0002-00-0000-18.png
00000009,371,0,1449261359131,1449261360042,939,370,0,0,0,1,2,1,3,0004-00-0000-02.png,0003-00-0001-97.png
00000009,372,0,1449261363078,1449261363124,960,339,0,0,0,0,1,1,1,0005-00-0001-86.png,0004-00-0001-60.png
00000009,373,1,1449261366294,1449261366416,1072,283,0,0,0,2,1,1,3,0003-00-0001-75.png,0004-00-0000-33.png
00000009,374,0,1449261367359,1449261368067,1043,242,0,0,0,3,4,1,7,0002-00-0001-98.png,0001-00-0000-57.png
00000009,375,1,1449261371161,1449261371201,928,306,0,0,0,1,0,1,1,0004-00-0001-95.png,0005-00-0000-22.png
00000009,376,1,1449261372140,1449261373144,944,286,0,0,0,3,2,1,5,0002-00-0000-07.png,0003-00-0000-92.png
00000009,377,0,1449261374127,1449261375109,939,306,0,0,0,2,3,1,5,0003-00-0000-51.png,0002-00-0001-91.png
00000009,378,1,1449261377933,1449261378535,1032,279,0,0,0,2,1,1,3,0003-00-0001-75.png,0004-00-0001-89.png
00000009,379,1,1449261379433,1449261380287,383,321,0,0,0,0,1,1,1,0005-00-0001-56.png,0004-00-0001-81.png
00000009,380,1,1449261381241,1449261381966,488,232,0,0,0,1,2,1,3,0004-00-0001-72.png,0003-00-0001-30.png
00000009,381,0,1449261382868,1449261383612,489,245,0,0,0,1,0,1,1,0004-00-0001-97.png,0005-00-0000-49.png
00000009,382,1,1449261386616,1449261387262,956,325,0,0,0,3,2,1,5,0002-00-0001-55.png,0003-00-0001-12.png
00000009,383,1,1449261389224,1449261389967,504,237,0,0,0,3,4,1,7,0002-00-0001-32.png,0001-00-0001-53.png
00000009,384,1,1449261390892,1449261391994,1072,290,0,0,0,4,3,1,7,0001-00-0001-55.png,0002-00-0001-64.png
00000009,385,0,1449261392856,1449261394009,964,317,0,0,0,3,4,1,7,0002-00-0001-69.png,0001-00-0001-72.png
00000009,386,0,1449261397092,1449261397124,874,332,0,0,0,0,1,1,1,0005-00-0000-39.png,0004-00-0001-86.png
00000009,387,1,1449261400155,1449261400171,906,323,0,0,0,1,0,1,1,0004-00-0000-01.png,0005-00-0001-61.png
00000009,388,0,1449261401003,1449261402008,1039,273,0,0,0,2,3,1,5,0003-00-0001-51.png,0002-00-0000-02.png
00000009,389,1,1449261405046,1449261405100,925,342,0,0,0,4,3,1,7,0001-00-0000-52.png,0002-00-0000-69.png
00000009,390,0,1449261406005,1449261407077,395,325,0,0,0,2,1,1,3,0003-00-0001-02.png,0004-00-0001-14.png
00000009,391,0,1449261410227,1449261410903,923,301,0,0,0,1,2,1,3,0004-00-0000-82.png,0003-00-0001-90.png
00000009,392,1,1449261413755,1449261414009,864,306,0,0,0,3,2,1,5,0002-00-0000-14.png,0003-00-0001-26.png
00000009,393,1,1449261414993,1449261416184,352,384,0,0,0,0,1,1,1,0005-00-0001-18.png,0004-00-0001-93.png
00000009,394,1,1449261417117,1449261417885,1016,264,0,0,0,2,1,1,3,0003-00-0001-00.png,0004-00-0000-28.png
00000009,395,0,1449261418857,1449261420104,945,305,0,0,0,3,4,1,7,0002-00-0000-32.png,0001-00-0001-83.png
00000009,396,1,1449261423216,1449261423255,867,335,0,0,0,3,2,1,5,0002-00-0000-45.png,0003-00-0000-96.png
00000009,397,1,1449261424103,1449261424804,897,356,0,0,0,1,0,1,1,0004-00-0001-65.png,0005-00-0001-51.png
00000009,398,0,1449261425771,1449261426722,434,376,0,0,0,4,3,1,7,0001-00-0001-70.png,0002-00-0000-25.png
00000009,399,0,1449261429967,1449261429988,912,332,0,0,0,1,2,1,3,0004-00-0000-44.png,0003-00-0000-59.png
00000009,400,0,1449261432998,1449261433064,931,358,0,0,0,2,3,1,5,0003-00-0000-08.png,0002-00-0001-73.png
00000009,401,0,1449261436195,1449261436228,903,302,0,0,0,0,1,1,1,0005-00-0000-42.png,0004-00-0001-07.png
00000009,402,0,1449261439306,1449261440103,416,410,0,0,0,2,1,1,3,0003-00-0001-42.png,0004-00-0001-43.png
00000009,403,1,1449261442933,1449261442984,1004,363,0,0,0,4,3,1,7,0001-00-0001-32.png,0002-00-0001-91.png
00000009,404,1,1449261444574,1449261445330,378,360,0,0,0,2,3,1,5,0003-00-0001-37.png,0002-00-0001-45.png
00000009,405,0,1449261446282,1449261447191,1059,234,0,0,0,3,4,1,7,0002-00-0000-02.png,0001-00-0001-00.png
00000009,406,0,1449261450408,1449261450416,873,329,0,0,0,1,2,1,3,0004-00-0001-38.png,0003-00-0000-24.png
00000009,407,1,1449261453521,1449261453537,896,320,0,0,0,3,2,1,5,0002-00-0000-82.png,0003-00-0000-03.png
00000009,408,1,1449261454504,1449261455290,910,320,0,0,0,1,0,1,1,0004-00-0000-87.png,0005-00-0000-83.png
00000009,409,0,1449261456213,1449261457333,931,304,0,0,0,3,4,1,7,0002-00-0001-89.png,0001-00-0001-35.png
00000009,410,1,1449261460337,1449261461196,488,222,0,0,0,2,3,1,5,0003-00-0001-59.png,0002-00-0000-14.png
00000009,411,1,1449261462106,1449261462916,936,412,0,0,0,3,2,1,5,0002-00-0001-74.png,0003-00-0000-53.png
00000009,412,1,1449261463892,1449261464656,403,275,0,0,0,0,1,1,1,0005-00-0001-96.png,0004-00-0001-46.png
00000009,413,1,1449261465613,1449261466384,934,271,0,0,0,2,1,1,3,0003-00-0000-62.png,0004-00-0000-56.png
00000009,414,1,1449261467345,1449261468145,1054,253,0,0,0,1,0,1,1,0004-00-0001-38.png,0005-00-0000-20.png
00000009,415,0,1449261469110,1449261470288,1026,259,0,0,0,1,2,1,3,0004-00-0001-44.png,0003-00-0000-06.png
00000009,416,1,1449261473463,1449261473483,875,338,0,0,0,4,3,1,7,0001-00-0001-69.png,0002-00-0000-29.png
00000009,417,0,1449261474485,1449261475556,478,265,0,0,0,4,3,1,7,0001-00-0000-41.png,0002-00-0001-37.png
00000009,418,1,1449261478750,1449261479286,490,232,0,0,0,0,1,1,1,0005-00-0000-66.png,0004-00-0001-16.png
00000009,419,0,1449261480176,1449261481212,943,300,0,0,0,1,2,1,3,0004-00-0001-78.png,0003-00-0000-87.png
00000009,420,1,1449261484326,1449261484386,1005,306,0,0,0,3,2,1,5,0002-00-0000-57.png,0003-00-0001-15.png
00000009,421,0,1449261485237,1449261486252,947,400,0,0,0,3,4,1,7,0002-00-0001-23.png,0001-00-0001-94.png
00000009,422,0,1449261489205,1449261489392,862,319,0,0,0,2,3,1,5,0003-00-0001-40.png,0002-00-0001-72.png
00000009,423,1,1449261492379,1449261492415,860,337,0,0,0,1,0,1,1,0004-00-0000-76.png,0005-00-0001-31.png
00000009,424,1,1449261493380,1449261494414,933,320,0,0,0,2,1,1,3,0003-00-0001-07.png,0004-00-0001-21.png
00000009,425,0,1449261495408,1449261496520,1044,281,0,0,0,3,4,1,7,0002-00-0001-22.png,0001-00-0000-05.png
00000009,426,0,1449261499602,1449261499630,920,329,0,0,0,1,2,1,3,0004-00-0000-95.png,0003-00-0000-80.png
00000009,427,0,1449261502659,1449261503585,390,325,0,0,0,4,3,1,7,0001-00-0000-34.png,0002-00-0001-74.png
00000009,428,1,1449261506777,1449261506805,941,297,0,0,0,2,1,1,3,0003-00-0000-69.png,0004-00-0000-25.png
00000009,429,1,1449261507781,1449261508981,355,361,0,0,0,0,1,1,1,0005-00-0001-14.png,0004-00-0001-39.png
00000009,430,1,1449261509967,1449261511069,446,237,0,0,0,2,3,1,5,0003-00-0000-08.png,0002-00-0001-98.png
00000009,431,1,1449261512044,1449261512915,950,264,0,0,0,3,2,1,5,0002-00-0000-42.png,0003-00-0000-08.png
00000009,432,1,1449261513891,1449261514818,939,322,0,0,0,1,0,1,1,0004-00-0000-07.png,0005-00-0001-15.png
00000009,433,0,1449261515816,1449261516851,931,400,0,0,0,3,4,1,7,0002-00-0001-48.png,0001-00-0001-13.png
00000009,434,0,1449261520249,1449261520260,868,327,0,0,0,2,3,1,5,0003-00-0001-26.png,0002-00-0000-01.png
00000009,435,0,1449261523304,1449261524214,484,240,0,0,0,4,3,1,7,0001-00-0000-83.png,0002-00-0000-26.png
00000009,436,0,1449261527286,1449261528033,987,310,0,0,0,1,2,1,3,0004-00-0001-68.png,0003-00-0001-24.png
00000009,437,1,1449261530924,1449261531580,1030,275,0,0,0,1,0,1,1,0004-00-0000-05.png,0005-00-0001-57.png
00000009,438,1,1449261532406,1449261533142,408,369,0,0,0,0,1,1,1,0005-00-0001-00.png,0004-00-0001-19.png
00000009,439,1,1449261534037,1449261534996,1029,275,0,0,0,2,1,1,3,0003-00-0000-67.png,0004-00-0000-09.png
00000009,440,0,1449261535992,1449261536933,425,406,0,0,0,3,2,1,5,0002-00-0000-31.png,0003-00-0000-16.png
00000009,441,1,1449261539916,1449261540472,1095,253,0,0,0,4,3,1,7,0001-00-0000-07.png,0002-00-0001-04.png
00000009,442,0,1449261541348,1449261542607,1062,277,0,0,0,1,2,1,3,0004-00-0001-66.png,0003-00-0000-99.png
00000009,443,1,1449261545680,1449261546175,1067,253,0,0,0,1,0,1,1,0004-00-0001-62.png,0005-00-0000-58.png
00000009,444,0,1449261547004,1449261548118,490,226,0,0,0,3,2,1,5,0002-00-0000-34.png,0003-00-0001-26.png
00000009,445,0,1449261551266,1449261551294,940,323,0,0,0,2,3,1,5,0003-00-0000-10.png,0002-00-0000-72.png
00000009,446,1,1449261554468,1449261554516,874,283,0,0,0,2,1,1,3,0003-00-0001-58.png,0004-00-0000-67.png
00000009,447,0,1449261555445,1449261556145,908,294,0,0,0,3,4,1,7,0002-00-0001-38.png,0001-00-0000-77.png
00000009,448,0,1449261559155,1449261559235,887,330,0,0,0,0,1,1,1,0005-00-0000-74.png,0004-00-0000-60.png
00000009,449,0,1449261562319,1449261562347,889,325,0,0,0,1,2,1,3,0004-00-0000-68.png,0003-00-0001-95.png
00000009,450,0,1449261565476,1449261565536,952,284,0,0,0,3,4,1,7,0002-00-0001-44.png,0001-00-0000-88.png
00000009,451,0,1449261568599,1449261568659,898,326,0,0,0,2,3,1,5,0003-00-0001-18.png,0002-00-0001-10.png
00000009,452,1,1449261571592,1449261571660,909,357,0,0,0,1,0,1,1,0004-00-0000-12.png,0005-00-0000-93.png
00000009,453,0,1449261572564,1449261573760,488,222,0,0,0,2,1,1,3,0003-00-0000-58.png,0004-00-0000-84.png
00000009,454,1,1449261579125,1449261579688,965,325,0,0,0,4,3,1,7,0001-00-0001-47.png,0002-00-0001-08.png
00000009,455,1,1449261580596,1449261581226,479,239,0,0,0,0,1,1,1,0005-00-0001-59.png,0004-00-0001-60.png
00000009,456,0,1449261582165,1449261583014,494,229,0,0,0,3,2,1,5,0002-00-0001-78.png,0003-00-0000-87.png
00000009,457,0,1449261586080,1449261586159,932,267,0,0,0,2,3,1,5,0003-00-0001-81.png,0002-00-0000-09.png
00000009,458,0,1449261589207,1449261589279,927,355,0,0,0,1,2,1,3,0004-00-0001-29.png,0003-00-0001-53.png
00000009,459,1,1449261592228,1449261592289,913,358,0,0,0,4,3,1,7,0001-00-0001-52.png,0002-00-0001-70.png
00000009,460,1,1449261593199,1449261594424,412,241,0,0,0,0,1,1,1,0005-00-0000-54.png,0004-00-0000-14.png
00000009,461,1,1449261595338,1449261596544,1005,256,0,0,0,3,2,1,5,0002-00-0000-57.png,0003-00-0001-30.png
00000009,462,1,1449261598076,1449261598112,857,372,0,0,0,1,0,1,1,0004-00-0000-11.png,0005-00-0001-19.png
00000009,463,0,1449261599216,1449261600283,465,374,0,0,0,2,1,1,3,0003-00-0000-98.png,0004-00-0001-51.png
00000009,464,0,1449261603373,1449261603951,955,381,0,0,0,3,4,1,7,0002-00-0001-66.png,0001-00-0001-85.png
00000009,465,0,1449261606857,1449261606966,1027,328,0,0,0,2,3,1,5,0003-00-0000-74.png,0002-00-0001-54.png
00000009,466,1,1449261609849,1449261610427,483,224,0,0,0,0,1,1,1,0005-00-0001-97.png,0004-00-0000-81.png
00000009,467,1,1449261611279,1449261611901,946,282,0,0,0,1,0,1,1,0004-00-0000-89.png,0005-00-0000-17.png
00000009,468,0,1449261612771,1449261613476,883,344,0,0,0,3,4,1,7,0002-00-0001-99.png,0001-00-0001-40.png
00000009,469,0,1449261616571,1449261617272,493,233,0,0,0,4,3,1,7,0001-00-0001-32.png,0002-00-0000-81.png
00000009,470,1,1449261620457,1449261620485,915,332,0,0,0,3,2,1,5,0002-00-0000-97.png,0003-00-0000-62.png
00000009,471,1,1449261621358,1449261622799,456,257,0,0,0,1,2,1,3,0004-00-0000-30.png,0003-00-0000-75.png
00000009,472,0,1449261623661,1449261624368,473,228,0,0,0,2,1,1,3,0003-00-0000-71.png,0004-00-0000-11.png
00000009,473,1,1449261627415,1449261628412,461,263,0,0,0,3,4,1,7,0002-00-0000-35.png,0001-00-0001-02.png
00000009,474,0,1449261629331,1449261630221,1040,284,0,0,0,1,2,1,3,0004-00-0001-83.png,0003-00-0001-30.png
00000009,475,1,1449261648560,1449261649041,357,378,0,0,0,0,1,1,1,0005-00-0001-71.png,0004-00-0000-49.png
00000009,476,1,1449261649985,1449261650800,1143,332,0,0,0,3,2,1,5,0002-00-0000-99.png,0003-00-0001-19.png
00000009,477,1,1449261651640,1449261651723,894,405,0,0,0,4,3,1,7,0001-00-0001-90.png,0002-00-0001-13.png
00000009,478,1,1449261652657,1449261655609,990,315,0,0,0,2,1,1,3,0003-00-0001-76.png,0004-00-0000-72.png
00000009,479,1,1449261656922,1449261657544,1009,286,0,0,0,1,0,1,1,0004-00-0000-66.png,0005-00-0000-34.png
00000009,480,0,1449261658389,1449261659159,918,337,0,0,0,2,3,1,5,0003-00-0000-72.png,0002-00-0001-22.png
00000009,481,1,1449261662021,1449261662731,465,266,0,0,0,2,3,1,5,0003-00-0000-01.png,0002-00-0001-50.png
00000009,482,1,1449261663600,1449261664302,955,321,0,0,0,1,0,1,1,0004-00-0001-80.png,0005-00-0000-50.png
00000009,483,0,1449261665170,1449261666192,941,305,0,0,0,3,4,1,7,0002-00-0000-63.png,0001-00-0001-53.png
00000009,484,0,1449261676526,1449261677293,975,385,0,0,0,1,2,1,3,0004-00-0000-90.png,0003-00-0000-32.png
00000009,485,1,1449261680789,1449261680817,888,332,0,0,0,4,3,1,7,0001-00-0000-21.png,0002-00-0000-25.png
00000009,486,1,1449261681863,1449261682514,394,400,0,0,0,0,1,1,1,0005-00-0001-93.png,0004-00-0000-82.png
00000009,487,1,1449261683359,1449261684256,902,364,0,0,0,2,1,1,3,0003-00-0001-61.png,0004-00-0001-54.png
00000009,488,1,1449261685098,1449261686170,1019,290,0,0,0,3,2,1,5,0002-00-0000-16.png,0003-00-0001-25.png
00000009,489,1,1449261687068,1449261687819,426,330,0,0,0,3,4,1,7,0002-00-0000-23.png,0001-00-0001-91.png
00000009,490,1,1449261688815,1449261689482,1024,260,0,0,0,1,0,1,1,0004-00-0001-40.png,0005-00-0000-67.png
00000009,491,0,1449261690449,1449261690483,884,392,0,0,0,2,3,1,5,0003-00-0000-56.png,0002-00-0000-98.png
00000009,492,1,1449261693779,1449261694473,393,365,0,0,0,0,1,1,1,0005-00-0000-53.png,0004-00-0001-81.png
00000009,493,1,1449261695367,1449261696219,927,314,0,0,0,3,2,1,5,0002-00-0000-37.png,0003-00-0001-68.png
00000009,494,0,1449261697095,1449261697836,942,389,0,0,0,1,2,1,3,0004-00-0001-39.png,0003-00-0000-89.png
00000009,495,1,1449261700813,1449261701356,1023,336,0,0,0,2,1,1,3,0003-00-0001-83.png,0004-00-0000-53.png
00000009,496,1,1449261702771,1449261702799,862,315,0,0,0,4,3,1,7,0001-00-0001-60.png,0002-00-0000-72.png
00000009,497,0,1449261703754,1449261704687,1041,261,0,0,0,1,2,1,3,0004-00-0000-70.png,0003-00-0001-28.png
00000009,498,0,1449261707868,1449261707888,893,313,0,0,0,0,1,1,1,0005-00-0000-36.png,0004-00-0000-99.png
00000009,499,1,1449261711029,1449261711069,900,299,0,0,0,4,3,1,7,0001-00-0001-22.png,0002-00-0000-48.png
00000009,500,1,1449261711984,1449261713324,461,245,0,0,0,2,3,1,5,0003-00-0001-93.png,0002-00-0001-76.png
00000009,501,1,1449261714249,1449261714954,919,287,0,0,0,1,0,1,1,0004-00-0001-20.png,0005-00-0001-57.png
00000009,502,1,1449261715915,1449261715997,869,385,0,0,0,3,2,1,5,0002-00-0001-49.png,0003-00-0001-68.png
00000009,503,0,1449261717011,1449261718295,904,295,0,0,0,3,4,1,7,0002-00-0001-55.png,0001-00-0001-93.png
00000009,504,1,1449261721314,1449261721770,915,336,0,0,0,2,1,1,3,0003-00-0001-59.png,0004-00-0001-00.png
00000009,505,1,1449261723204,1449261723273,860,434,0,0,0,1,0,1,1,0004-00-0001-33.png,0005-00-0001-24.png
00000009,506,1,1449261724105,1449261725061,932,345,0,0,0,3,2,1,5,0002-00-0000-95.png,0003-00-0001-12.png
00000009,507,1,1449261725973,1449261726013,888,369,0,0,0,4,3,1,7,0001-00-0001-50.png,0002-00-0000-05.png
00000009,508,1,1449261727118,1449261728302,521,218,0,0,0,3,4,1,7,0002-00-0001-92.png,0001-00-0000-10.png
00000009,509,0,1449261729192,1449261730028,1041,282,0,0,0,2,3,1,5,0003-00-0001-25.png,0002-00-0001-69.png
00000009,510,0,1449261733197,1449261733221,875,306,0,0,0,0,1,1,1,0005-00-0000-57.png,0004-00-0000-36.png
00000009,511,0,1449261736278,1449261736310,913,306,0,0,0,1,2,1,3,0004-00-0001-90.png,0003-00-0000-94.png
00000009,512,1,1449261739402,1449261739442,909,309,0,0,0,2,1,1,3,0003-00-0000-35.png,0004-00-0000-28.png
00000009,513,1,1449261740377,1449261741010,484,222,0,0,0,0,1,1,1,0005-00-0001-78.png,0004-00-0001-89.png
00000009,514,1,1449261741873,1449261743385,459,249,0,0,0,1,2,1,3,0004-00-0000-21.png,0003-00-0001-50.png
00000009,515,1,1449261744359,1449261745383,1014,279,0,0,0,4,3,1,7,0001-00-0000-61.png,0002-00-0000-20.png
00000009,516,1,1449261746375,1449261747434,411,331,0,0,0,3,4,1,7,0002-00-0001-69.png,0001-00-0001-90.png
00000009,517,0,1449261748363,1449261749353,390,356,0,0,0,2,1,1,3,0003-00-0001-14.png,0004-00-0001-84.png
00000009,518,1,1449261752340,1449261753062,501,262,0,0,0,2,3,1,5,0003-00-0001-17.png,0002-00-0000-16.png
00000009,519,1,1449261753983,1449261754723,1028,253,0,0,0,3,2,1,5,0002-00-0001-81.png,0003-00-0000-40.png
00000009,520,1,1449261755637,1449261756643,934,314,0,0,0,1,0,1,1,0004-00-0001-56.png,0005-00-0001-47.png
00000009,521,1,1449261757586,1449261758659,1041,279,0,0,0,1,0,1,1,0004-00-0000-92.png,0005-00-0001-62.png
00000009,522,1,1449261759521,1449261759541,882,360,0,0,0,3,2,1,5,0002-00-0001-65.png,0003-00-0001-82.png
00000009,523,0,1449261760776,1449261761578,466,242,0,0,0,4,3,1,7,0001-00-0000-62.png,0002-00-0000-27.png
00000009,524,1,1449261764658,1449261765225,512,233,0,0,0,0,1,1,1,0005-00-0001-47.png,0004-00-0000-35.png
00000009,525,0,1449261766081,1449261766916,920,425,0,0,0,3,4,1,7,0002-00-0001-38.png,0001-00-0000-27.png
00000009,526,1,1449261770036,1449261770068,869,321,0,0,0,2,1,1,3,0003-00-0000-45.png,0004-00-0001-29.png
00000009,527,0,1449261770951,1449261771890,935,322,0,0,0,2,3,1,5,0003-00-0000-98.png,0002-00-0001-47.png
00000009,528,1,1449261774737,1449261775336,504,264,0,0,0,1,2,1,3,0004-00-0000-42.png,0003-00-0001-56.png
00000009,529,1,1449261776243,1449261776886,1034,246,0,0,0,1,0,1,1,0004-00-0001-38.png,0005-00-0000-64.png
00000009,530,0,1449261777790,1449261778977,1047,246,0,0,0,2,3,1,5,0003-00-0001-29.png,0002-00-0001-63.png
00000009,531,0,1449261781834,1449261782380,965,302,0,0,0,3,4,1,7,0002-00-0001-37.png,0001-00-0000-83.png
00000009,532,0,1449261785403,1449261785427,884,361,0,0,0,0,1,1,1,0005-00-0001-84.png,0004-00-0000-93.png
00000009,533,0,1449261788522,1449261788542,877,332,0,0,0,1,2,1,3,0004-00-0000-34.png,0003-00-0001-39.png
00000009,534,0,1449261791651,1449261792355,400,342,0,0,0,2,1,1,3,0003-00-0000-79.png,0004-00-0000-14.png
00000009,535,0,1449261800019,1449261800565,390,384,0,0,0,4,3,1,7,0001-00-0000-22.png,0002-00-0001-81.png
00000009,536,1,1449261809271,1449261809860,1011,236,0,0,0,3,2,1,5,0002-00-0000-51.png,0003-00-0001-77.png
00000009,537,1,1449261810861,1449261811596,468,217,0,0,0,0,1,1,1,0005-00-0001-74.png,0004-00-0001-33.png
00000009,538,1,1449261812429,1449261813143,929,294,0,0,0,3,2,1,5,0002-00-0000-00.png,0003-00-0000-40.png
00000009,539,1,1449261814056,1449261815232,939,298,0,0,0,2,1,1,3,0003-00-0000-96.png,0004-00-0001-52.png
00000009,540,0,1449261816207,1449261816267,870,384,0,0,0,2,3,1,5,0003-00-0001-08.png,0002-00-0000-09.png
00000009,541,0,1449261819586,1449261820281,508,262,0,0,0,4,3,1,7,0001-00-0001-37.png,0002-00-0000-32.png
00000009,542,1,1449261824242,1449261824286,868,330,0,0,0,1,0,1,1,0004-00-0000-52.png,0005-00-0000-15.png
00000009,543,0,1449261825207,1449261825980,1029,279,0,0,0,3,4,1,7,0002-00-0000-44.png,0001-00-0000-01.png
00000009,544,0,1449261829079,1449261829794,939,410,0,0,0,1,2,1,3,0004-00-0001-29.png,0003-00-0000-87.png
00000009,545,0,1449261832655,1449261832695,893,378,0,0,0,1,2,1,3,0004-00-0001-50.png,0003-00-0000-47.png
00000009,546,0,1449261835825,1449261836448,380,346,0,0,0,3,2,1,5,0002-00-0000-06.png,0003-00-0000-61.png
00000009,547,0,1449261839442,1449261839466,891,354,0,0,0,3,4,1,7,0002-00-0001-84.png,0001-00-0001-19.png
00000009,548,1,1449261842355,1449261842906,488,221,0,0,0,0,1,1,1,0005-00-0000-77.png,0004-00-0001-43.png
00000009,549,0,1449261843758,1449261844874,489,260,0,0,0,2,1,1,3,0003-00-0001-09.png,0004-00-0000-34.png
00000009,550,1,1449261848013,1449261848533,1055,279,0,0,0,1,0,1,1,0004-00-0000-26.png,0005-00-0001-91.png
00000009,551,0,1449261849939,1449261850240,887,489,0,0,0,2,3,1,5,0003-00-0000-16.png,0002-00-0001-74.png
00000009,552,1,1449261853558,1449261854103,967,314,0,0,0,4,3,1,7,0001-00-0001-56.png,0002-00-0000-80.png
00000009,553,0,1449261855010,1449261855931,478,237,0,0,0,3,2,1,5,0002-00-0000-79.png,0003-00-0000-15.png
00000009,554,0,1449261859221,1449261859265,864,336,0,0,0,0,1,1,1,0005-00-0000-92.png,0004-00-0000-31.png
00000009,555,0,1449261862144,1449261863084,489,254,0,0,0,2,1,1,3,0003-00-0001-83.png,0004-00-0000-23.png
00000009,556,0,1449261866494,1449261866526,929,301,0,0,0,1,2,1,3,0004-00-0000-81.png,0003-00-0001-59.png
00000009,557,1,1449261869360,1449261870381,490,259,0,0,0,2,3,1,5,0003-00-0000-15.png,0002-00-0000-95.png
00000009,558,0,1449261871307,1449261872335,474,217,0,0,0,4,3,1,7,0001-00-0001-89.png,0002-00-0000-51.png
00000009,559,1,1449261875314,1449261875842,1044,288,0,0,0,1,0,1,1,0004-00-0001-44.png,0005-00-0000-52.png
00000009,560,0,1449261877221,1449261877477,904,488,0,0,0,3,4,1,7,0002-00-0000-16.png,0001-00-0000-94.png
00000009,561,1,1449261880424,1449261880488,944,385,0,0,0,3,2,1,5,0002-00-0000-90.png,0003-00-0000-24.png
00000009,562,1,1449261881366,1449261882503,474,237,0,0,0,2,3,1,5,0003-00-0000-79.png,0002-00-0000-79.png
00000009,563,0,1449261883402,1449261884659,990,318,0,0,0,3,4,1,7,0002-00-0000-37.png,0001-00-0000-76.png
00000009,564,0,1449261887821,1449261888399,1042,256,0,0,0,1,2,1,3,0004-00-0001-11.png,0003-00-0000-08.png
00000009,565,1,1449261891338,1449261891906,937,333,0,0,0,2,1,1,3,0003-00-0001-79.png,0004-00-0001-70.png
00000009,566,1,1449261892775,1449261893880,1039,266,0,0,0,1,0,1,1,0004-00-0000-09.png,0005-00-0000-49.png
00000009,567,1,1449261894770,1449261895563,492,238,0,0,0,0,1,1,1,0005-00-0001-09.png,0004-00-0000-25.png
00000009,568,1,1449261896492,1449261897432,926,360,0,0,0,4,3,1,7,0001-00-0000-65.png,0002-00-0001-87.png
00000009,569,1,1449261898442,1449261899172,1044,241,0,0,0,1,0,1,1,0004-00-0000-72.png,0005-00-0000-31.png
00000009,570,0,1449261900105,1449261901061,912,369,0,0,0,1,2,1,3,0004-00-0001-15.png,0003-00-0000-53.png
00000009,571,1,1449261904045,1449261904950,460,273,0,0,0,0,1,1,1,0005-00-0001-23.png,0004-00-0001-80.png
00000009,572,1,1449261905853,1449261906917,1026,279,0,0,0,3,2,1,5,0002-00-0001-30.png,0003-00-0000-19.png
00000009,573,1,1449261907829,1449261909323,1016,253,0,0,0,2,1,1,3,0003-00-0000-59.png,0004-00-0000-48.png
00000009,574,1,1449261910234,1449261911288,491,237,0,0,0,3,4,1,7,0002-00-0000-41.png,0001-00-0000-35.png
00000009,575,1,1449261912232,1449261913553,1019,253,0,0,0,4,3,1,7,0001-00-0001-93.png,0002-00-0001-97.png
00000009,576,1,1449261914479,1449261915560,387,310,0,0,0,2,3,1,5,0003-00-0001-14.png,0002-00-0000-24.png
00000009,577,1,1449261916529,1449261917804,470,234,0,0,0,2,3,1,5,0003-00-0000-95.png,0002-00-0001-24.png
00000009,578,0,1449261918742,1449261919450,494,280,0,0,0,3,2,1,5,0002-00-0000-74.png,0003-00-0001-66.png
00000009,579,1,1449261922309,1449261922337,956,410,0,0,0,2,1,1,3,0003-00-0000-76.png,0004-00-0001-93.png
00000009,580,1,1449261923253,1449261924324,504,239,0,0,0,1,2,1,3,0004-00-0000-91.png,0003-00-0000-50.png
00000009,581,0,1449261925301,1449261926031,464,233,0,0,0,4,3,1,7,0001-00-0001-30.png,0002-00-0000-06.png
00000009,582,1,1449261928895,1449261928959,862,358,0,0,0,1,0,1,1,0004-00-0000-49.png,0005-00-0001-20.png
00000009,583,0,1449261929851,1449261931011,937,287,0,0,0,3,4,1,7,0002-00-0000-46.png,0001-00-0000-23.png
00000009,584,0,1449261934076,1449261934104,875,358,0,0,0,0,1,1,1,0005-00-0000-38.png,0004-00-0001-94.png
00000009,585,1,1449261937242,1449261937771,1044,258,0,0,0,2,1,1,3,0003-00-0001-76.png,0004-00-0001-59.png
00000009,586,1,1449261938625,1449261939755,390,331,0,0,0,2,3,1,5,0003-00-0000-99.png,0002-00-0001-32.png
00000009,587,1,1449261940736,1449261941477,1011,251,0,0,0,1,0,1,1,0004-00-0000-95.png,0005-00-0000-41.png
00000009,588,1,1449261942423,1449261943622,453,345,0,0,0,3,4,1,7,0002-00-0001-49.png,0001-00-0000-97.png
00000009,589,0,1449261944560,1449261945451,906,294,0,0,0,1,2,1,3,0004-00-0001-84.png,0003-00-0001-78.png
00000009,590,1,1449261948572,1449261949155,463,246,0,0,0,0,1,1,1,0005-00-0000-91.png,0004-00-0000-01.png
00000009,591,1,1449261950563,1449261951463,931,286,0,0,0,3,2,1,5,0002-00-0000-72.png,0003-00-0000-16.png
00000009,592,0,1449261952338,1449261953278,415,358,0,0,0,4,3,1,7,0001-00-0000-01.png,0002-00-0001-55.png
00000009,593,0,1449261956274,1449261956970,509,272,0,0,0,2,1,1,3,0003-00-0001-19.png,0004-00-0001-04.png
00000009,594,0,1449261959974,1449261960558,1041,277,0,0,0,2,3,1,5,0003-00-0001-79.png,0002-00-0001-85.png
00000009,595,1,1449261963688,1449261964399,1016,320,0,0,0,1,0,1,1,0004-00-0000-88.png,0005-00-0001-48.png
00000009,596,1,1449261965274,1449261966576,1084,253,0,0,0,3,2,1,5,0002-00-0000-75.png,0003-00-0001-50.png
00000009,597,0,1449261967504,1449261968335,1041,253,0,0,0,0,1,1,1,0005-00-0000-53.png,0004-00-0000-60.png
00000009,598,0,1449261971453,1449261971473,888,306,0,0,0,1,2,1,3,0004-00-0001-04.png,0003-00-0000-66.png
00000009,599,0,1449261974443,1449261974451,859,401,0,0,0,3,4,1,7,0002-00-0001-84.png,0001-00-0000-37.png
00000009,600,0,1449261977283,1449261978177,459,234,0,0,0,4,3,1,7,0001-00-0000-37.png,0002-00-0000-48.png
00000009,601,1,1449261981088,1449261981129,924,384,0,0,0,1,0,1,1,0004-00-0000-95.png,0005-00-0000-23.png
00000009,602,0,1449261982032,1449261983415,939,296,0,0,0,1,2,1,3,0004-00-0000-46.png,0003-00-0001-36.png
00000009,603,1,1449261986538,1449261986570,867,326,0,0,0,4,3,1,7,0001-00-0000-69.png,0002-00-0000-81.png
00000009,604,1,1449261987522,1449261988225,470,234,0,0,0,0,1,1,1,0005-00-0001-78.png,0004-00-0001-71.png
00000009,605,0,1449261989111,1449261990260,964,306,0,0,0,2,3,1,5,0003-00-0000-13.png,0002-00-0000-64.png
00000009,606,1,1449261993482,1449261994015,940,406,0,0,0,3,2,1,5,0002-00-0001-88.png,0003-00-0001-79.png
00000009,607,0,1449261994873,1449261995847,414,371,0,0,0,2,1,1,3,0003-00-0001-14.png,0004-00-0000-92.png
00000009,608,0,1449261998701,1449261998721,870,343,0,0,0,3,4,1,7,0002-00-0000-41.png,0001-00-0001-03.png
00000009,609,1,1449262001641,1449262002694,470,260,0,0,0,3,4,1,7,0002-00-0000-99.png,0001-00-0001-62.png
00000009,610,1,1449262003622,1449262004463,1039,267,0,0,0,1,0,1,1,0004-00-0000-45.png,0005-00-0001-91.png
00000009,611,1,1449262005315,1449262006223,427,358,0,0,0,0,1,1,1,0005-00-0001-63.png,0004-00-0000-49.png
00000009,612,1,1449262007189,1449262008350,1067,306,0,0,0,4,3,1,7,0001-00-0001-82.png,0002-00-0001-67.png
00000009,613,1,1449262009313,1449262010079,1041,246,0,0,0,2,1,1,3,0003-00-0000-78.png,0004-00-0000-32.png
00000009,614,1,1449262011044,1449262011802,1145,309,0,0,0,3,2,1,5,0002-00-0001-48.png,0003-00-0001-07.png
00000009,615,0,1449262012919,1449262014010,925,373,0,0,0,1,2,1,3,0004-00-0001-02.png,0003-00-0001-60.png
00000009,616,0,1449262016855,1449262017444,1068,320,0,0,0,2,3,1,5,0003-00-0000-58.png,0002-00-0001-08.png
00000009,617,0,1449262020343,1449262021097,970,313,0,0,0,2,3,1,5,0003-00-0001-95.png,0002-00-0001-92.png
00000009,618,0,1449262024124,1449262024689,1016,279,0,0,0,1,2,1,3,0004-00-0000-69.png,0003-00-0000-08.png
00000009,619,1,1449262027622,1449262027662,934,382,0,0,0,4,3,1,7,0001-00-0001-83.png,0002-00-0001-24.png
00000009,620,0,1449262028586,1449262029587,411,365,0,0,0,3,2,1,5,0002-00-0001-94.png,0003-00-0000-91.png
00000009,621,0,1449262032777,1449262032884,996,254,0,0,0,3,4,1,7,0002-00-0001-00.png,0001-00-0000-39.png
00000009,622,1,1449262036045,1449262036098,888,321,0,0,0,1,0,1,1,0004-00-0000-08.png,0005-00-0001-18.png
00000009,623,0,1449262037023,1449262037838,492,231,0,0,0,2,1,1,3,0003-00-0000-11.png,0004-00-0001-71.png
00000009,624,1,1449262040991,1449262041564,390,358,0,0,0,0,1,1,1,0005-00-0001-61.png,0004-00-0001-49.png
00000009,625,0,1449262042430,1449262043253,453,236,0,0,0,4,3,1,7,0001-00-0000-01.png,0002-00-0001-12.png
00000009,626,1,1449262046400,1449262047214,465,255,0,0,0,3,4,1,7,0002-00-0000-36.png,0001-00-0000-15.png
00000009,627,0,1449262048133,1449262048836,1028,286,0,0,0,0,1,1,1,0005-00-0001-56.png,0004-00-0000-64.png
00000009,628,0,1449262051956,1449262052500,964,392,0,0,0,1,2,1,3,0004-00-0001-13.png,0003-00-0001-82.png
00000009,629,1,1449262055388,1449262055424,892,353,0,0,0,2,1,1,3,0003-00-0001-32.png,0004-00-0000-19.png
00000009,630,1,1449262056361,1449262057400,921,325,0,0,0,3,2,1,5,0002-00-0000-27.png,0003-00-0000-62.png
00000009,631,1,1449262058348,1449262059200,490,230,0,0,0,2,3,1,5,0003-00-0000-33.png,0002-00-0000-62.png
00000009,632,1,1449262060172,1449262061348,940,308,0,0,0,1,0,1,1,0004-00-0001-54.png,0005-00-0001-10.png
00000009,633,1,1449262062256,1449262063544,494,253,0,0,0,3,4,1,7,0002-00-0001-88.png,0001-00-0001-70.png
00000009,634,1,1449262064488,1449262065378,1041,265,0,0,0,4,3,1,7,0001-00-0001-39.png,0002-00-0000-89.png
00000009,635,1,1449262066398,1449262067159,1048,298,0,0,0,2,1,1,3,0003-00-0000-93.png,0004-00-0000-55.png
00000009,636,1,1449262068084,1449262069125,494,234,0,0,0,2,3,1,5,0003-00-0000-73.png,0002-00-0000-74.png
00000009,637,1,1449262070102,1449262071142,1083,265,0,0,0,1,0,1,1,0004-00-0001-96.png,0005-00-0001-36.png
00000009,638,1,1449262072102,1449262072142,867,397,0,0,0,3,2,1,5,0002-00-0001-75.png,0003-00-0001-81.png
00000009,639,1,1449262073364,1449262074111,499,238,0,0,0,1,2,1,3,0004-00-0001-09.png,0003-00-0000-35.png
00000009,640,1,1449262075139,1449262075797,489,278,0,0,0,0,1,1,1,0005-00-0000-19.png,0004-00-0001-04.png
00000009,641,1,1449262076711,1449262077562,934,257,0,0,0,3,2,1,5,0002-00-0001-79.png,0003-00-0000-81.png
00000009,642,1,1449262078521,1449262078580,858,416,0,0,0,4,3,1,7,0001-00-0000-71.png,0002-00-0001-69.png
00000009,643,0,1449262079903,1449262079967,898,443,0,0,0,1,2,1,3,0004-00-0000-97.png,0003-00-0000-39.png
00000009,644,1,1449262083051,1449262083083,888,319,0,0,0,2,1,1,3,0003-00-0001-59.png,0004-00-0000-98.png
00000009,645,1,1449262083997,1449262085011,927,332,0,0,0,1,0,1,1,0004-00-0000-01.png,0005-00-0000-78.png
00000009,646,0,1449262085901,1449262085949,858,360,0,0,0,0,1,1,1,0005-00-0001-38.png,0004-00-0000-35.png
00000009,647,0,1449262088808,1449262089607,964,395,0,0,0,3,4,1,7,0002-00-0001-05.png,0001-00-0001-95.png
00000009,648,1,1449262092732,1449262093239,484,270,0,0,0,2,3,1,5,0003-00-0000-30.png,0002-00-0001-60.png
00000009,649,0,1449262094152,1449262094833,940,314,0,0,0,3,4,1,7,0002-00-0000-13.png,0001-00-0001-36.png
00000009,650,1,1449262097789,1449262098337,505,221,0,0,0,0,1,1,1,0005-00-0001-80.png,0004-00-0001-54.png
00000009,651,0,1449262099257,1449262099993,1159,384,0,0,0,1,2,1,3,0004-00-0001-98.png,0003-00-0001-64.png
00000009,652,1,1449262102868,1449262103414,939,318,0,0,0,2,1,1,3,0003-00-0001-30.png,0004-00-0001-55.png
00000009,653,0,1449262104255,1449262105220,1041,279,0,0,0,2,3,1,5,0003-00-0001-49.png,0002-00-0001-79.png
00000009,654,1,1449262109586,1449262109603,889,326,0,0,0,4,3,1,7,0001-00-0001-90.png,0002-00-0001-53.png
00000009,655,0,1449262110481,1449262110536,513,484,0,0,0,1,0,1,1,0004-00-0001-77.png,0005-00-0001-75.png
00000009,656,0,1449262113589,1449262114238,469,240,0,0,0,3,2,1,5,0002-00-0000-39.png,0003-00-0001-57.png
00000009,657,0,1449262117075,1449262117676,964,321,0,0,0,1,2,1,3,0004-00-0000-40.png,0003-00-0000-00.png
00000009,658,1,1449262120637,1449262121280,939,314,0,0,0,2,1,1,3,0003-00-0001-33.png,0004-00-0000-10.png
00000009,659,1,1449262122178,1449262123090,947,350,0,0,0,1,0,1,1,0004-00-0000-11.png,0005-00-0000-47.png
00000009,660,1,1449262123913,1449262124995,945,369,0,0,0,3,2,1,5,0002-00-0001-14.png,0003-00-0001-50.png
00000009,661,1,1449262125914,1449262125970,857,387,0,0,0,4,3,1,7,0001-00-0000-34.png,0002-00-0000-10.png
00000009,662,1,1449262127083,1449262128166,426,360,0,0,0,2,3,1,5,0003-00-0000-26.png,0002-00-0000-66.png
00000009,663,1,1449262129105,1449262129900,414,358,0,0,0,0,1,1,1,0005-00-0000-15.png,0004-00-0001-97.png
00000009,664,1,1449262130820,1449262131497,447,240,0,0,0,3,4,1,7,0002-00-0000-87.png,0001-00-0000-64.png
00000009,665,0,1449262132509,1449262133574,472,256,0,0,0,4,3,1,7,0001-00-0000-04.png,0002-00-0000-84.png
00000009,666,0,1449262136688,1449262137449,1064,286,0,0,0,1,2,1,3,0004-00-0001-73.png,0003-00-0001-91.png
00000009,667,1,1449262140586,1449262141188,1069,265,0,0,0,2,1,1,3,0003-00-0001-65.png,0004-00-0001-51.png
00000009,668,1,1449262142084,1449262142818,946,284,0,0,0,1,0,1,1,0004-00-0000-90.png,0005-00-0001-46.png
00000009,669,1,1449262144157,1449262144185,862,320,0,0,0,3,2,1,5,0002-00-0001-21.png,0003-00-0000-65.png
00000009,670,1,1449262145201,1449262146620,476,244,0,0,0,2,3,1,5,0003-00-0000-62.png,0002-00-0000-56.png
00000009,671,0,1449262147548,1449262148422,929,423,0,0,0,3,4,1,7,0002-00-0001-65.png,0001-00-0001-61.png
00000009,672,1,1449262151580,1449262152311,477,243,0,0,0,0,1,1,1,0005-00-0000-50.png,0004-00-0001-80.png
00000009,673,1,1449262153189,1449262153867,400,387,0,0,0,0,1,1,1,0005-00-0000-76.png,0004-00-0000-59.png
00000009,674,0,1449262154940,1449262155765,950,291,0,0,0,1,2,1,3,0004-00-0000-07.png,0003-00-0000-98.png
00000009,675,1,1449262158705,1449262159532,490,255,0,0,0,2,3,1,5,0003-00-0000-35.png,0002-00-0001-75.png
00000009,676,1,1449262160402,1449262161399,951,388,0,0,0,3,2,1,5,0002-00-0000-73.png,0003-00-0001-07.png
00000009,677,0,1449262162334,1449262163457,399,322,0,0,0,2,1,1,3,0003-00-0000-88.png,0004-00-0001-45.png
00000009,678,1,1449262166374,1449262166426,910,380,0,0,0,1,0,1,1,0004-00-0000-63.png,0005-00-0001-24.png
00000009,679,0,1449262167359,1449262168581,487,248,0,0,0,4,3,1,7,0001-00-0001-18.png,0002-00-0001-29.png
00000009,680,0,1449262171565,1449262171675,985,328,0,0,0,3,4,1,7,0002-00-0001-91.png,0001-00-0001-93.png
00000009,681,0,1449262174542,1449262175123,1041,263,0,0,0,1,2,1,3,0004-00-0001-79.png,0003-00-0000-51.png
00000009,682,0,1449262178280,1449262178292,862,320,0,0,0,0,1,1,1,0005-00-0001-82.png,0004-00-0000-37.png
00000009,683,1,1449262181420,1449262181487,940,282,0,0,0,2,1,1,3,0003-00-0001-21.png,0004-00-0000-80.png
00000009,684,1,1449262182399,1449262183643,441,384,0,0,0,2,3,1,5,0003-00-0000-68.png,0002-00-0001-87.png
00000009,685,1,1449262184531,1449262185345,1041,245,0,0,0,1,0,1,1,0004-00-0001-03.png,0005-00-0001-73.png
00000009,686,0,1449262186273,1449262187173,952,309,0,0,0,3,4,1,7,0002-00-0000-99.png,0001-00-0001-22.png
00000009,687,1,1449262190086,1449262190620,939,394,0,0,0,3,2,1,5,0002-00-0001-01.png,0003-00-0001-90.png
00000009,688,1,1449262191478,1449262192470,992,326,0,0,0,4,3,1,7,0001-00-0000-74.png,0002-00-0001-57.png
00000009,689,1,1449262193398,1449262194124,456,264,0,0,0,0,1,1,1,0005-00-0001-19.png,0004-00-0000-96.png
00000009,690,1,1449262195534,1449262196239,1143,306,0,0,0,1,0,1,1,0004-00-0001-81.png,0005-00-0001-49.png
00000009,691,0,1449262197082,1449262197845,485,257,0,0,0,3,2,1,5,0002-00-0001-80.png,0003-00-0000-24.png
00000009,692,0,1449262200709,1449262201267,913,358,0,0,0,1,2,1,3,0004-00-0000-03.png,0003-00-0000-85.png
00000009,693,1,1449262204420,1449262204452,908,310,0,0,0,2,1,1,3,0003-00-0001-97.png,0004-00-0000-87.png
00000009,694,0,1449262205415,1449262206204,936,287,0,0,0,2,3,1,5,0003-00-0001-84.png,0002-00-0001-77.png
00000009,695,0,1449262209250,1449262209288,888,358,0,0,0,3,4,1,7,0002-00-0001-18.png,0001-00-0000-17.png
00000009,696,1,1449262212490,1449262212522,959,328,0,0,0,4,3,1,7,0001-00-0000-90.png,0002-00-0001-89.png
00000009,697,1,1449262213403,1449262214329,473,244,0,0,0,2,3,1,5,0003-00-0001-74.png,0002-00-0001-34.png
00000009,698,1,1449262215222,1449262216135,1025,253,0,0,0,1,0,1,1,0004-00-0001-44.png,0005-00-0000-99.png
00000009,699,1,1449262217032,1449262218122,964,349,0,0,0,2,1,1,3,0003-00-0000-52.png,0004-00-0001-07.png
00000009,700,1,1449262219258,1449262220569,459,243,0,0,0,3,4,1,7,0002-00-0001-86.png,0001-00-0000-10.png
00000009,701,1,1449262221536,1449262222397,416,358,0,0,0,0,1,1,1,0005-00-0001-13.png,0004-00-0001-84.png
00000009,702,1,1449262223362,1449262224222,434,373,0,0,0,1,2,1,3,0004-00-0001-21.png,0003-00-0001-02.png
00000009,703,1,1449262225178,1449262226193,924,378,0,0,0,4,3,1,7,0001-00-0001-64.png,0002-00-0001-12.png
00000009,704,1,1449262227174,1449262227198,862,368,0,0,0,3,2,1,5,0002-00-0001-39.png,0003-00-0001-42.png
00000009,705,0,1449262228307,1449262229254,931,297,0,0,0,3,4,1,7,0002-00-0000-10.png,0001-00-0000-31.png
00000009,706,1,1449262232361,1449262232921,486,261,0,0,0,0,1,1,1,0005-00-0001-94.png,0004-00-0000-30.png
00000009,707,1,1449262233751,1449262234447,1052,253,0,0,0,1,0,1,1,0004-00-0000-93.png,0005-00-0001-30.png
00000009,708,1,1449262235892,1449262235940,862,399,0,0,0,4,3,1,7,0001-00-0000-55.png,0002-00-0001-89.png
00000009,709,0,1449262236965,1449262237707,1015,252,0,0,0,2,3,1,5,0003-00-0000-90.png,0002-00-0001-92.png
00000009,710,0,1449262240792,1449262240821,877,332,0,0,0,1,2,1,3,0004-00-0001-45.png,0003-00-0001-80.png
00000009,711,1,1449262243960,1449262244447,1080,279,0,0,0,3,2,1,5,0002-00-0000-37.png,0003-00-0001-19.png
00000009,712,1,1449262245271,1449262246379,933,395,0,0,0,2,1,1,3,0003-00-0000-68.png,0004-00-0001-44.png
00000009,713,1,1449262247329,1449262248593,1054,263,0,0,0,4,3,1,7,0001-00-0001-35.png,0002-00-0001-16.png
00000009,714,1,1449262249556,1449262250688,1041,292,0,0,0,2,1,1,3,0003-00-0001-17.png,0004-00-0000-95.png
00000009,715,1,1449262251594,1449262252755,513,220,0,0,0,3,4,1,7,0002-00-0000-58.png,0001-00-0000-82.png
00000009,716,1,1449262253756,1449262254461,936,297,0,0,0,1,0,1,1,0004-00-0000-12.png,0005-00-0000-89.png
00000009,717,0,1449262255479,1449262255507,859,368,0,0,0,2,3,1,5,0003-00-0001-01.png,0002-00-0001-04.png
00000009,718,0,1449262258348,1449262258945,939,375,0,0,0,1,2,1,3,0004-00-0000-22.png,0003-00-0000-58.png
00000009,719,1,1449262261966,1449262262446,479,251,0,0,0,0,1,1,1,0005-00-0001-91.png,0004-00-0000-43.png
00000009,720,0,1449262263291,1449262264334,407,338,0,0,0,3,2,1,5,0002-00-0001-05.png,0003-00-0001-85.png
00000009,721,0,1449262267162,1449262267673,963,304,0,0,0,3,4,1,7,0002-00-0000-98.png,0001-00-0001-61.png
00000009,722,1,1449262270853,1449262271664,1041,274,0,0,0,4,3,1,7,0001-00-0001-61.png,0002-00-0000-74.png
00000009,723,1,1449262272562,1449262274352,384,351,0,0,0,2,3,1,5,0003-00-0000-01.png,0002-00-0000-87.png
00000009,724,1,1449262275265,1449262276538,956,394,0,0,0,3,2,1,5,0002-00-0001-71.png,0003-00-0001-66.png
00000009,725,1,1449262277442,1449262278526,472,236,0,0,0,1,2,1,3,0004-00-0000-59.png,0003-00-0001-07.png
00000009,726,1,1449262279510,1449262280208,940,321,0,0,0,1,0,1,1,0004-00-0001-52.png,0005-00-0001-50.png
00000009,727,1,1449262281250,1449262281962,978,294,0,0,0,2,1,1,3,0003-00-0001-27.png,0004-00-0001-11.png
00000009,728,0,1449262282978,1449262283014,882,426,0,0,0,0,1,1,1,0005-00-0000-77.png,0004-00-0001-68.png
00000009,729,0,1449262286068,1449262286559,1043,275,0,0,0,1,2,1,3,0004-00-0000-86.png,0003-00-0001-94.png
00000009,730,1,1449262289715,1449262290373,961,310,0,0,0,4,3,1,7,0001-00-0000-73.png,0002-00-0001-75.png
00000009,731,0,1449262291303,1449262292445,477,264,0,0,0,3,2,1,5,0002-00-0001-79.png,0003-00-0001-40.png
00000009,732,0,1449262295447,1449262295977,990,321,0,0,0,2,3,1,5,0003-00-0001-24.png,0002-00-0001-67.png
00000009,733,1,1449262299158,1449262299732,470,233,0,0,0,0,1,1,1,0005-00-0000-28.png,0004-00-0001-45.png
00000009,734,0,1449262300575,1449262301477,932,298,0,0,0,3,4,1,7,0002-00-0000-57.png,0001-00-0001-71.png
00000009,735,1,1449262304601,1449262304633,877,329,0,0,0,1,0,1,1,0004-00-0001-58.png,0005-00-0000-29.png
00000009,736,0,1449262306152,1449262307006,469,235,0,0,0,2,1,1,3,0003-00-0000-72.png,0004-00-0001-58.png
00000009,737,1,1449262310089,1449262310141,862,358,0,0,0,1,0,1,1,0004-00-0001-26.png,0005-00-0000-48.png
00000009,738,1,1449262311033,1449262311894,484,235,0,0,0,2,3,1,5,0003-00-0001-07.png,0002-00-0000-96.png
00000009,739,1,1449262312790,1449262313697,490,226,0,0,0,3,4,1,7,0002-00-0000-25.png,0001-00-0000-35.png
00000009,740,1,1449262314718,1449262315505,1034,260,0,0,0,2,1,1,3,0003-00-0000-07.png,0004-00-0000-17.png
00000009,741,1,1449262316873,1449262317496,482,265,0,0,0,0,1,1,1,0005-00-0000-66.png,0004-00-0000-85.png
00000009,742,0,1449262318553,1449262319705,462,376,0,0,0,4,3,1,7,0001-00-0000-91.png,0002-00-0000-21.png
00000009,743,1,1449262322846,1449262322886,900,332,0,0,0,3,2,1,5,0002-00-0000-94.png,0003-00-0001-28.png
00000009,744,0,1449262323730,1449262324735,1058,248,0,0,0,1,2,1,3,0004-00-0001-20.png,0003-00-0001-02.png
00000009,745,1,1449262327974,1449262327986,888,306,0,0,0,1,0,1,1,0004-00-0001-55.png,0005-00-0000-61.png
00000009,746,1,1449262328868,1449262329659,427,384,0,0,0,2,3,1,5,0003-00-0001-79.png,0002-00-0000-13.png
00000009,747,1,1449262330547,1449262331177,915,271,0,0,0,2,1,1,3,0003-00-0001-40.png,0004-00-0000-10.png
00000009,748,1,1449262332130,1449262333204,1028,279,0,0,0,4,3,1,7,0001-00-0001-86.png,0002-00-0001-51.png
00000009,749,0,1449262334149,1449262334181,862,398,0,0,0,1,2,1,3,0004-00-0001-68.png,0003-00-0000-28.png
00000009,750,0,1449262337203,1449262338062,1016,331,0,0,0,3,4,1,7,0002-00-0000-63.png,0001-00-0000-96.png
00000009,751,1,1449262341014,1449262341094,922,367,0,0,0,3,2,1,5,0002-00-0000-05.png,0003-00-0001-28.png
00000009,752,0,1449262342028,1449262342688,896,309,0,0,0,0,1,1,1,0005-00-0000-95.png,0004-00-0001-81.png
00000009,753,0,1449262345563,1449262346248,409,375,0,0,0,4,3,1,7,0001-00-0001-06.png,0002-00-0000-06.png
00000009,754,1,1449262349088,1449262349990,377,344,0,0,0,2,3,1,5,0003-00-0000-48.png,0002-00-0000-72.png
00000009,755,1,1449262350881,1449262351862,490,227,0,0,0,1,2,1,3,0004-00-0000-98.png,0003-00-0001-44.png
00000009,756,1,1449262352756,1449262353559,1016,248,0,0,0,3,2,1,5,0002-00-0000-34.png,0003-00-0000-16.png
00000009,757,1,1449262354509,1449262355352,1143,292,0,0,0,1,0,1,1,0004-00-0001-08.png,0005-00-0001-11.png
00000009,758,0,1449262356319,1449262357385,518,228,0,0,0,2,1,1,3,0003-00-0001-90.png,0004-00-0000-81.png
00000009,759,0,1449262360549,1449262360581,937,316,0,0,0,3,4,1,7,0002-00-0000-63.png,0001-00-0001-94.png
00000009,760,1,1449262363440,1449262363977,471,221,0,0,0,0,1,1,1,0005-00-0001-93.png,0004-00-0000-11.png
00000009,761,0,1449262364864,1449262365492,910,305,0,0,0,3,4,1,7,0002-00-0000-21.png,0001-00-0001-90.png
00000009,762,0,1449262368336,1449262369137,388,304,0,0,0,2,1,1,3,0003-00-0000-30.png,0004-00-0001-75.png
00000009,763,1,1449262372298,1449262372353,914,339,0,0,0,1,0,1,1,0004-00-0001-84.png,0005-00-0000-66.png
00000009,764,0,1449262373254,1449262374045,439,384,0,0,0,4,3,1,7,0001-00-0000-89.png,0002-00-0000-40.png
00000009,765,1,1449262377248,1449262377824,990,374,0,0,0,3,2,1,5,0002-00-0001-26.png,0003-00-0001-11.png
00000009,766,1,1449262378652,1449262379464,400,324,0,0,0,2,3,1,5,0003-00-0000-40.png,0002-00-0000-63.png
00000009,767,1,1449262380345,1449262381185,449,282,0,0,0,0,1,1,1,0005-00-0001-60.png,0004-00-0001-68.png
00000009,768,1,1449262382403,1449262383174,441,229,0,0,0,1,2,1,3,0004-00-0001-89.png,0003-00-0001-41.png
00000009,769,0,1449262384157,1449262384869,490,217,0,0,0,2,1,1,3,0003-00-0001-94.png,0004-00-0001-63.png
00000009,770,0,1449262387979,1449262388007,889,313,0,0,0,2,3,1,5,0003-00-0001-78.png,0002-00-0001-21.png
00000009,771,0,1449262391112,1449262391137,871,350,0,0,0,3,4,1,7,0002-00-0001-25.png,0001-00-0000-21.png
00000009,772,1,1449262394276,1449262394795,951,306,0,0,0,3,2,1,5,0002-00-0001-63.png,0003-00-0000-28.png
00000009,773,1,1449262395711,1449262396635,1025,244,0,0,0,1,0,1,1,0004-00-0001-97.png,0005-00-0001-40.png
00000009,774,0,1449262397459,1449262398414,1016,290,0,0,0,1,2,1,3,0004-00-0000-68.png,0003-00-0000-53.png
00000009,775,1,1449262401624,1449262402204,493,245,0,0,0,0,1,1,1,0005-00-0001-76.png,0004-00-0001-22.png
00000009,776,1,1449262403073,1449262404012,928,338,0,0,0,4,3,1,7,0001-00-0001-16.png,0002-00-0001-44.png
00000009,777,0,1449262404891,1449262406399,1006,253,0,0,0,3,4,1,7,0002-00-0000-80.png,0001-00-0000-81.png
00000009,778,0,1449262409507,1449262410056,948,277,0,0,0,1,2,1,3,0004-00-0000-83.png,0003-00-0000-01.png
00000009,779,1,1449262412989,1449262413493,960,299,0,0,0,3,2,1,5,0002-00-0000-99.png,0003-00-0000-10.png
00000009,780,0,1449262414351,1449262415630,506,219,0,0,0,4,3,1,7,0001-00-0000-98.png,0002-00-0001-32.png
00000009,781,0,1449262418665,1449262418693,882,332,0,0,0,0,1,1,1,0005-00-0000-00.png,0004-00-0000-40.png
00000009,782,0,1449262421647,1449262422624,491,238,0,0,0,2,1,1,3,0003-00-0000-27.png,0004-00-0000-98.png
00000009,783,0,1449262425513,1449262426054,957,316,0,0,0,2,3,1,5,0003-00-0001-84.png,0002-00-0001-09.png
00000009,784,1,1449262429060,1449262429558,1062,259,0,0,0,1,0,1,1,0004-00-0001-09.png,0005-00-0001-45.png
00000009,785,1,1449262430452,1449262431432,1049,244,0,0,0,2,1,1,3,0003-00-0001-26.png,0004-00-0001-83.png
00000009,786,0,1449262432329,1449262433041,1027,227,0,0,0,1,2,1,3,0004-00-0001-84.png,0003-00-0001-37.png
00000009,787,1,1449262435879,1449262436593,1067,295,0,0,0,4,3,1,7,0001-00-0000-15.png,0002-00-0000-02.png
00000009,788,1,1449262437477,1449262439022,396,360,0,0,0,3,4,1,7,0002-00-0000-57.png,0001-00-0001-26.png
00000009,789,1,1449262439965,1449262440596,410,400,0,0,0,0,1,1,1,0005-00-0000-93.png,0004-00-0000-75.png
00000009,790,1,1449262441561,1449262442477,968,291,0,0,0,3,2,1,5,0002-00-0000-11.png,0003-00-0000-87.png
00000009,791,1,1449262443433,1449262444385,503,238,0,0,0,2,3,1,5,0003-00-0000-52.png,0002-00-0001-74.png
00000009,792,1,1449262445447,1449262446539,939,384,0,0,0,1,0,1,1,0004-00-0001-29.png,0005-00-0001-95.png
00000009,793,1,1449262447394,1449262447406,862,368,0,0,0,3,2,1,5,0002-00-0001-76.png,0003-00-0001-01.png
00000009,794,0,1449262448607,1449262449890,1010,254,0,0,0,2,3,1,5,0003-00-0001-86.png,0002-00-0001-28.png
00000009,795,1,1449262452794,1449262453317,939,315,0,0,0,2,1,1,3,0003-00-0000-57.png,0004-00-0001-48.png
00000009,796,1,1449262454180,1449262454949,954,337,0,0,0,1,0,1,1,0004-00-0001-68.png,0005-00-0000-95.png
00000009,797,1,1449262455775,1449262456628,514,227,0,0,0,1,2,1,3,0004-00-0001-45.png,0003-00-0001-74.png
00000009,798,0,1449262457561,1449262458411,1042,278,0,0,0,3,4,1,7,0002-00-0000-10.png,0001-00-0001-28.png
00000009,799,1,1449262461620,1449262462187,384,323,0,0,0,0,1,1,1,0005-00-0001-12.png,0004-00-0001-62.png
00000009,800,1,1449262463088,1449262463803,940,323,0,0,0,4,3,1,7,0001-00-0000-78.png,0002-00-0001-35.png
00000009,801,1,1449262464719,1449262466240,489,267,0,0,0,3,4,1,7,0002-00-0000-75.png,0001-00-0001-95.png
00000009,802,1,1449262467158,1449262468206,484,238,0,0,0,2,3,1,5,0003-00-0001-47.png,0002-00-0000-27.png
00000009,803,1,1449262469187,1449262470205,427,377,0,0,0,0,1,1,1,0005-00-0000-90.png,0004-00-0000-26.png
00000009,804,1,1449262471164,1449262471903,933,399,0,0,0,1,0,1,1,0004-00-0000-40.png,0005-00-0000-65.png
00000009,805,1,1449262472837,1449262473631,961,331,0,0,0,2,1,1,3,0003-00-0001-69.png,0004-00-0000-00.png
00000009,806,1,1449262474671,1449262475495,402,305,0,0,0,1,2,1,3,0004-00-0000-43.png,0003-00-0001-67.png
00000009,807,1,1449262476462,1449262477464,902,267,0,0,0,3,2,1,5,0002-00-0000-77.png,0003-00-0000-95.png
00000009,808,1,1449262478418,1449262479406,1156,358,0,0,0,4,3,1,7,0001-00-0000-09.png,0002-00-0001-78.png
00000009,809,0,1449262480339,1449262480359,875,384,0,0,0,0,1,1,1,0005-00-0000-13.png,0004-00-0001-25.png
00000009,810,1,1449262483418,1449262484102,401,347,0,0,0,2,3,1,5,0003-00-0001-33.png,0002-00-0001-14.png
00000009,811,0,1449262484965,1449262485816,504,237,0,0,0,4,3,1,7,0001-00-0001-80.png,0002-00-0001-61.png
00000009,812,0,1449262488995,1449262489670,954,402,0,0,0,1,2,1,3,0004-00-0001-92.png,0003-00-0001-92.png
00000009,813,1,1449262492778,1449262493367,1108,276,0,0,0,3,2,1,5,0002-00-0000-11.png,0003-00-0001-29.png
00000009,814,0,1449262494250,1449262495236,964,369,0,0,0,3,4,1,7,0002-00-0000-11.png,0001-00-0001-50.png
00000009,815,1,1449262498385,1449262498480,977,282,0,0,0,1,0,1,1,0004-00-0000-63.png,0005-00-0000-57.png
00000009,816,0,1449262499419,1449262500122,441,384,0,0,0,2,1,1,3,0003-00-0000-71.png,0004-00-0000-03.png
00000009,817,0,1449262503075,1449262503111,876,363,0,0,0,2,3,1,5,0003-00-0000-57.png,0002-00-0000-02.png
00000009,818,0,1449262506013,1449262506652,481,261,0,0,0,2,1,1,3,0003-00-0000-71.png,0004-00-0000-16.png
00000009,819,1,1449262509505,1449262510027,485,258,0,0,0,0,1,1,1,0005-00-0000-66.png,0004-00-0001-83.png
00000009,820,1,1449262510915,1449262512044,1016,269,0,0,0,4,3,1,7,0001-00-0000-88.png,0002-00-0000-92.png
00000009,821,1,1449262512959,1449262513691,934,395,0,0,0,1,0,1,1,0004-00-0001-57.png,0005-00-0000-88.png
00000009,822,0,1449262514532,1449262515603,920,297,0,0,0,1,2,1,3,0004-00-0001-14.png,0003-00-0001-68.png
00000009,823,0,1449262518547,1449262518591,905,374,0,0,0,3,4,1,7,0002-00-0000-49.png,0001-00-0000-15.png
00000009,824,1,1449262521451,1449262522247,939,290,0,0,0,3,2,1,5,0002-00-0000-05.png,0003-00-0000-15.png
00000009,825,1,1449262523099,1449262523802,503,219,0,0,0,0,1,1,1,0005-00-0000-02.png,0004-00-0001-46.png
00000009,826,1,1449262524693,1449262525554,1028,279,0,0,0,3,2,1,5,0002-00-0001-48.png,0003-00-0000-55.png
00000009,827,0,1449262526611,1449262527303,510,236,0,0,0,1,0,1,1,0004-00-0000-56.png,0005-00-0000-12.png
00000009,828,0,1449262530291,1449262530913,939,317,0,0,0,2,3,1,5,0003-00-0001-13.png,0002-00-0001-34.png
00000009,829,0,1449262534103,1449262534123,862,332,0,0,0,3,4,1,7,0002-00-0001-58.png,0001-00-0001-55.png
00000009,830,1,1449262537234,1449262537866,952,332,0,0,0,2,1,1,3,0003-00-0000-37.png,0004-00-0000-72.png
00000009,831,0,1449262538711,1449262539461,462,380,0,0,0,4,3,1,7,0001-00-0001-41.png,0002-00-0000-37.png
00000009,832,0,1449262542691,1449262542707,871,325,0,0,0,1,2,1,3,0004-00-0001-29.png,0003-00-0001-81.png
00000009,833,1,1449262545709,1449262546252,941,317,0,0,0,1,0,1,1,0004-00-0000-77.png,0005-00-0000-52.png
00000009,834,1,1449262547130,1449262547962,440,384,0,0,0,1,2,1,3,0004-00-0000-27.png,0003-00-0000-74.png
00000009,835,1,1449262548920,1449262549800,429,403,0,0,0,3,4,1,7,0002-00-0001-35.png,0001-00-0001-69.png
00000009,836,1,1449262550766,1449262551754,911,326,0,0,0,3,2,1,5,0002-00-0000-92.png,0003-00-0001-65.png
00000009,837,1,1449262552753,1449262552804,878,391,0,0,0,4,3,1,7,0001-00-0001-88.png,0002-00-0001-76.png
00000009,838,0,1449262553945,1449262554740,1029,240,0,0,0,2,3,1,5,0003-00-0001-66.png,0002-00-0000-87.png
00000009,839,1,1449262557734,1449262558337,1054,291,0,0,0,2,1,1,3,0003-00-0001-17.png,0004-00-0001-17.png
00000009,840,1,1449262559732,1449262560384,513,219,0,0,0,0,1,1,1,0005-00-0001-21.png,0004-00-0000-83.png
00000009,841,0,1449262561291,1449262562365,515,241,0,0,0,3,2,1,5,0002-00-0001-55.png,0003-00-0001-27.png
00000009,842,1,1449262565447,1449262565935,467,257,0,0,0,0,1,1,1,0005-00-0000-17.png,0004-00-0001-89.png
00000009,843,0,1449262566833,1449262567906,435,246,0,0,0,2,1,1,3,0003-00-0001-20.png,0004-00-0001-88.png
00000009,844,1,1449262571049,1449262571701,509,253,0,0,0,3,4,1,7,0002-00-0001-00.png,0001-00-0000-10.png
00000009,845,0,1449262572668,1449262573430,1015,257,0,0,0,2,3,1,5,0003-00-0000-48.png,0002-00-0000-26.png
00000009,846,0,1449262576417,1449262576429,877,419,0,0,0,1,2,1,3,0004-00-0000-60.png,0003-00-0000-25.png
00000009,847,1,1449262579567,1449262580269,1064,284,0,0,0,4,3,1,7,0001-00-0000-99.png,0002-00-0000-73.png
00000009,848,1,1449262581168,1449262581820,905,303,0,0,0,1,0,1,1,0004-00-0000-19.png,0005-00-0000-67.png
00000009,849,1,1449262583353,1449262583948,498,221,0,0,0,0,1,1,1,0005-00-0000-17.png,0004-00-0001-09.png
00000009,850,0,1449262584812,1449262585882,460,374,0,0,0,2,1,1,3,0003-00-0001-93.png,0004-00-0001-77.png
00000009,851,1,1449262589047,1449262589095,913,306,0,0,0,3,2,1,5,0002-00-0000-74.png,0003-00-0001-42.png
00000009,852,1,1449262589991,1449262590674,913,303,0,0,0,1,0,1,1,0004-00-0000-46.png,0005-00-0001-74.png
00000009,853,0,1449262591591,1449262592855,1026,322,0,0,0,3,4,1,7,0002-00-0001-36.png,0001-00-0001-92.png
00000009,854,0,1449262596063,1449262596708,498,257,0,0,0,4,3,1,7,0001-00-0000-03.png,0002-00-0001-52.png
00000009,855,0,1449262599720,1449262600548,977,331,0,0,0,2,3,1,5,0003-00-0000-82.png,0002-00-0001-66.png
00000009,856,1,1449262603547,1449262604134,471,245,0,0,0,1,2,1,3,0004-00-0000-15.png,0003-00-0001-15.png
00000009,857,1,1449262605038,1449262605755,1020,252,0,0,0,2,1,1,3,0003-00-0001-08.png,0004-00-0001-12.png
00000009,858,1,1449262606706,1449262607593,489,230,0,0,0,1,2,1,3,0004-00-0000-15.png,0003-00-0001-02.png
00000009,859,1,1449262608565,1449262609222,945,325,0,0,0,1,0,1,1,0004-00-0001-02.png,0005-00-0000-86.png
00000009,860,1,1449262610204,1449262611511,922,340,0,0,0,3,2,1,5,0002-00-0000-70.png,0003-00-0000-96.png
00000009,861,0,1449262612560,1449262613627,521,234,0,0,0,4,3,1,7,0001-00-0000-93.png,0002-00-0000-60.png
00000009,862,0,1449262616613,1449262617532,964,410,0,0,0,3,4,1,7,0002-00-0001-27.png,0001-00-0000-96.png
00000009,863,1,1449262620669,1449262621243,433,364,0,0,0,0,1,1,1,0005-00-0001-55.png,0004-00-0001-65.png
00000009,864,1,1449262622149,1449262623108,489,222,0,0,0,2,3,1,5,0003-00-0001-54.png,0002-00-0001-98.png
00000009,865,0,1449262624018,1449262625120,465,238,0,0,0,2,1,1,3,0003-00-0000-33.png,0004-00-0001-07.png
00000009,866,1,1449262628120,1449262628609,489,264,0,0,0,0,1,1,1,0005-00-0000-95.png,0004-00-0001-33.png
00000009,867,1,1449262629503,1449262630637,444,312,0,0,0,1,2,1,3,0004-00-0000-37.png,0003-00-0000-21.png
00000009,868,0,1449262631598,1449262632594,421,328,0,0,0,4,3,1,7,0001-00-0001-85.png,0002-00-0000-56.png
00000009,869,0,1449262635636,1449262635684,914,338,0,0,0,2,3,1,5,0003-00-0000-77.png,0002-00-0000-23.png
00000009,870,1,1449262639091,1449262639123,883,319,0,0,0,3,2,1,5,0002-00-0000-56.png,0003-00-0001-85.png
00000009,871,0,1449262640027,1449262640706,883,303,0,0,0,3,4,1,7,0002-00-0001-74.png,0001-00-0000-81.png
00000009,872,1,1449262643665,1449262644351,963,322,0,0,0,1,0,1,1,0004-00-0000-40.png,0005-00-0000-82.png
00000009,873,1,1449262645255,1449262646156,914,333,0,0,0,2,1,1,3,0003-00-0001-62.png,0004-00-0000-25.png
00000009,874,1,1449262647095,1449262647829,1006,249,0,0,0,1,0,1,1,0004-00-0001-92.png,0005-00-0001-88.png
00000009,875,1,1449262649286,1449262650059,451,411,0,0,0,3,4,1,7,0002-00-0000-87.png,0001-00-0001-17.png
00000009,876,1,1449262651008,1449262652188,954,327,0,0,0,4,3,1,7,0001-00-0001-01.png,0002-00-0001-64.png
00000009,877,1,1449262653215,1449262654055,504,226,0,0,0,0,1,1,1,0005-00-0000-25.png,0004-00-0000-41.png
00000009,878,0,1449262655004,1449262655789,516,228,0,0,0,3,2,1,5,0002-00-0001-30.png,0003-00-0001-40.png
00000009,879,0,1449262658760,1449262658814,894,400,0,0,0,2,3,1,5,0003-00-0001-13.png,0002-00-0000-47.png
00000009,880,0,1449262661962,1449262662527,1046,259,0,0,0,1,2,1,3,0004-00-0001-54.png,0003-00-0001-37.png
00000009,881,1,1449262665647,1449262666235,972,332,0,0,0,2,1,1,3,0003-00-0000-93.png,0004-00-0000-25.png
00000009,882,1,1449262667128,1449262668235,906,288,0,0,0,3,2,1,5,0002-00-0000-74.png,0003-00-0000-41.png
00000009,883,1,1449262669135,1449262670045,1041,264,0,0,0,1,0,1,1,0004-00-0001-36.png,0005-00-0001-95.png
00000009,884,1,1449262671001,1449262672704,461,247,0,0,0,3,4,1,7,0002-00-0000-26.png,0001-00-0001-69.png
00000009,885,1,1449262673676,1449262674637,514,247,0,0,0,0,1,1,1,0005-00-0001-18.png,0004-00-0001-48.png
00000009,886,1,1449262675500,1449262676252,940,347,0,0,0,4,3,1,7,0001-00-0000-05.png,0002-00-0000-76.png
00000009,887,1,1449262677233,1449262678238,410,297,0,0,0,2,3,1,5,0003-00-0000-01.png,0002-00-0000-83.png
00000009,888,0,1449262679159,1449262680010,1008,295,0,0,0,1,2,1,3,0004-00-0001-43.png,0003-00-0000-91.png
00000009,889,1,1449262682935,1449262683558,1067,253,0,0,0,3,2,1,5,0002-00-0000-23.png,0003-00-0000-50.png
00000009,890,1,1449262684443,1449262685461,936,283,0,0,0,2,1,1,3,0003-00-0000-31.png,0004-00-0001-67.png
00000009,891,0,1449262686447,1449262687318,968,306,0,0,0,1,2,1,3,0004-00-0001-23.png,0003-00-0000-55.png
00000009,892,1,1449262690462,1449262690494,890,334,0,0,0,4,3,1,7,0001-00-0001-74.png,0002-00-0001-72.png
00000009,893,1,1449262691475,1449262692565,449,403,0,0,0,2,3,1,5,0003-00-0001-83.png,0002-00-0000-98.png
00000009,894,0,1449262693450,1449262694568,945,348,0,0,0,3,4,1,7,0002-00-0000-04.png,0001-00-0000-94.png
00000009,895,1,1449262697403,1449262698004,483,232,0,0,0,0,1,1,1,0005-00-0001-23.png,0004-00-0001-92.png
00000009,896,1,1449262698879,1449262699609,925,352,0,0,0,1,0,1,1,0004-00-0001-55.png,0005-00-0000-01.png
00000009,897,1,1449262700506,1449262701192,955,295,0,0,0,1,0,1,1,0004-00-0001-17.png,0005-00-0000-90.png
00000009,898,0,1449262702096,1449262703046,926,282,0,0,0,2,3,1,5,0003-00-0000-12.png,0002-00-0000-83.png
00000009,899,1,1449262706080,1449262706111,868,404,0,0,0,2,1,1,3,0003-00-0000-71.png,0004-00-0000-86.png
00000009,900,1,1449262706984,1449262708010,942,296,0,0,0,3,2,1,5,0002-00-0001-17.png,0003-00-0000-39.png
00000009,901,1,1449262708946,1449262709815,923,293,0,0,0,4,3,1,7,0001-00-0001-16.png,0002-00-0000-24.png
00000009,902,0,1449262710772,1449262711722,923,306,0,0,0,3,4,1,7,0002-00-0001-43.png,0001-00-0000-81.png
00000009,903,0,1449262714785,1449262715279,1081,256,0,0,0,1,2,1,3,0004-00-0000-31.png,0003-00-0000-85.png
00000009,904,0,1449262718425,1449262718496,939,279,0,0,0,0,1,1,1,0005-00-0000-59.png,0004-00-0000-41.png
00000009,905,1,1449262721773,1449262721900,1019,279,0,0,0,4,3,1,7,0001-00-0001-59.png,0002-00-0000-42.png
00000009,906,0,1449262722877,1449262723592,1027,261,0,0,0,3,4,1,7,0002-00-0000-80.png,0001-00-0001-76.png
00000009,907,0,1449262726752,1449262726788,928,303,0,0,0,2,3,1,5,0003-00-0000-75.png,0002-00-0000-02.png
00000009,908,1,1449262729831,1449262729884,937,333,0,0,0,1,0,1,1,0004-00-0001-74.png,0005-00-0000-38.png
00000009,909,1,1449262730818,1449262731735,914,313,0,0,0,3,2,1,5,0002-00-0000-78.png,0003-00-0001-18.png
00000009,910,0,1449262732636,1449262733429,1047,236,0,0,0,1,2,1,3,0004-00-0001-41.png,0003-00-0001-97.png
00000009,911,0,1449262736514,1449262737326,423,403,0,0,0,2,1,1,3,0003-00-0000-55.png,0004-00-0000-96.png
00000009,912,1,1449262740360,1449262740965,444,240,0,0,0,0,1,1,1,0005-00-0000-81.png,0004-00-0001-62.png
00000009,913,0,1449262741837,1449262742545,922,316,0,0,0,1,2,1,3,0004-00-0000-51.png,0003-00-0001-80.png
00000009,914,1,1449262745438,1449262746033,960,304,0,0,0,3,2,1,5,0002-00-0001-99.png,0003-00-0001-32.png
00000009,915,0,1449262747573,1449262748575,964,291,0,0,0,2,3,1,5,0003-00-0000-59.png,0002-00-0001-76.png
00000009,916,1,1449262751763,1449262752321,502,261,0,0,0,0,1,1,1,0005-00-0001-07.png,0004-00-0001-07.png
00000009,917,1,1449262753249,1449262753899,1010,270,0,0,0,1,0,1,1,0004-00-0001-14.png,0005-00-0000-53.png
00000009,918,1,1449262754785,1449262756005,910,337,0,0,0,2,1,1,3,0003-00-0001-23.png,0004-00-0001-93.png
00000009,919,1,1449262756970,1449262757707,1016,265,0,0,0,4,3,1,7,0001-00-0001-83.png,0002-00-0001-84.png
00000009,920,1,1449262758754,1449262760071,480,227,0,0,0,3,4,1,7,0002-00-0001-03.png,0001-00-0001-21.png
00000009,921,0,1449262761057,1449262761784,999,279,0,0,0,2,3,1,5,0003-00-0000-50.png,0002-00-0001-49.png
00000009,922,1,1449262764804,1449262765389,913,384,0,0,0,2,1,1,3,0003-00-0000-95.png,0004-00-0000-90.png
00000009,923,0,1449262766204,1449262766228,860,327,0,0,0,3,4,1,7,0002-00-0000-80.png,0001-00-0001-15.png
00000009,924,1,1449262769345,1449262769357,868,330,0,0,0,3,2,1,5,0002-00-0000-02.png,0003-00-0000-47.png
00000009,925,0,1449262770257,1449262770965,516,228,0,0,0,4,3,1,7,0001-00-0001-32.png,0002-00-0000-65.png
00000009,926,1,1449262774150,1449262774820,489,264,0,0,0,0,1,1,1,0005-00-0001-39.png,0004-00-0001-42.png
00000009,927,1,1449262775711,1449262776656,520,261,0,0,0,1,2,1,3,0004-00-0001-92.png,0003-00-0000-13.png
00000009,928,1,1449262777574,1449262778825,945,320,0,0,0,1,0,1,1,0004-00-0001-86.png,0005-00-0001-44.png
00000009,929,1,1449262779688,1449262780464,939,282,0,0,0,1,0,1,1,0004-00-0000-64.png,0005-00-0001-01.png
00000009,930,0,1449262781356,1449262781372,859,334,0,0,0,2,3,1,5,0003-00-0001-31.png,0002-00-0001-68.png
00000009,931,0,1449262784476,1449262784500,862,323,0,0,0,3,4,1,7,0002-00-0001-85.png,0001-00-0000-81.png
00000009,932,0,1449262787589,1449262787621,897,311,0,0,0,0,1,1,1,0005-00-0000-81.png,0004-00-0000-37.png
00000009,933,1,1449262790709,1449262790753,862,306,0,0,0,4,3,1,7,0001-00-0000-46.png,0002-00-0001-02.png
00000009,934,0,1449262791723,1449262792646,465,233,0,0,0,2,1,1,3,0003-00-0000-14.png,0004-00-0001-29.png
00000009,935,1,1449262795618,1449262795646,865,406,0,0,0,3,2,1,5,0002-00-0000-08.png,0003-00-0001-18.png
00000009,936,0,1449262796616,1449262797588,1041,270,0,0,0,1,2,1,3,0004-00-0001-75.png,0003-00-0000-29.png
00000009,937,1,1449262800679,1449262800709,901,345,0,0,0,2,1,1,3,0003-00-0000-19.png,0004-00-0001-13.png
00000009,938,0,1449262801590,1449262802820,1041,262,0,0,0,2,3,1,5,0003-00-0000-45.png,0002-00-0001-17.png
00000009,939,1,1449262805862,1449262806395,1083,253,0,0,0,3,2,1,5,0002-00-0000-29.png,0003-00-0000-08.png
00000009,940,1,1449262807229,1449262808027,1041,269,0,0,0,1,0,1,1,0004-00-0001-52.png,0005-00-0001-61.png
00000009,941,1,1449262808905,1449262809947,1028,279,0,0,0,4,3,1,7,0001-00-0000-11.png,0002-00-0001-91.png
00000009,942,0,1449262810855,1449262812186,1041,239,0,0,0,3,4,1,7,0002-00-0000-11.png,0001-00-0001-95.png
00000009,943,0,1449262815190,1449262815923,1067,281,0,0,0,1,2,1,3,0004-00-0001-17.png,0003-00-0001-51.png
00000009,944,0,1449262819114,1449262819252,877,266,0,0,0,0,1,1,1,0005-00-0001-56.png,0004-00-0000-88.png
00000009,945,1,1449262822123,1449262822633,1067,279,0,0,0,4,3,1,7,0001-00-0000-86.png,0002-00-0001-57.png
00000009,946,0,1449262823504,1449262823564,889,403,0,0,0,1,2,1,3,0004-00-0001-02.png,0003-00-0000-97.png
00000009,947,1,1449262826653,1449262826674,874,358,0,0,0,2,1,1,3,0003-00-0001-64.png,0004-00-0001-78.png
00000009,948,1,1449262827570,1449262828514,504,232,0,0,0,0,1,1,1,0005-00-0001-25.png,0004-00-0000-24.png
00000009,949,0,1449262829430,1449262830237,958,299,0,0,0,3,4,1,7,0002-00-0000-21.png,0001-00-0000-77.png
