subject_id,trial,correct_response,stim_time,response_time,x_coord,y_coord,trial_timeout,timeout_time,interTrial_timeout,left_rank,right_rank,distance,joint_rank,left_image,right_image
00000014,1,1,1449501273175,1449501273811,977,535,0,0,0,4,3,1,7,0001-00-0001-88.png,0002-00-0001-56.png
00000014,2,1,1449501275025,1449501275502,926,463,0,0,0,1,0,1,1,0004-00-0001-68.png,0005-00-0001-95.png
00000014,3,1,1449501276421,1449501276908,369,478,0,0,0,0,1,1,1,0005-00-0001-60.png,0004-00-0000-07.png
00000014,4,1,1449501277742,1449501278263,922,439,0,0,0,3,2,1,5,0002-00-0000-28.png,0003-00-0001-19.png
00000014,5,1,1449501279123,1449501279568,403,478,0,0,0,1,2,1,3,0004-00-0000-37.png,0003-00-0000-62.png
00000014,6,0,1449501280435,1449501281289,898,462,0,0,0,2,3,1,5,0003-00-0001-61.png,0002-00-0001-02.png
00000014,7,0,1449501284214,1449501284648,903,436,0,0,0,3,4,1,7,0002-00-0000-73.png,0001-00-0001-11.png
00000014,8,1,1449501287731,1449501288143,926,410,0,0,0,2,1,1,3,0003-00-0001-03.png,0004-00-0000-24.png
00000014,9,1,1449501289072,1449501289506,353,452,0,0,0,0,1,1,1,0005-00-0001-47.png,0004-00-0000-37.png
00000014,10,1,1449501290401,1449501290848,396,474,0,0,0,1,2,1,3,0004-00-0001-71.png,0003-00-0000-48.png
00000014,11,0,1449501291746,1449501292189,423,471,0,0,0,3,2,1,5,0002-00-0001-16.png,0003-00-0000-33.png
00000014,12,0,1449501295623,1449501296034,1002,420,0,0,0,3,4,1,7,0002-00-0001-77.png,0001-00-0000-33.png
00000014,13,0,1449501299658,1449501300080,999,412,0,0,0,2,3,1,5,0003-00-0000-56.png,0002-00-0000-08.png
00000014,14,1,1449501302945,1449501303342,927,351,0,0,0,2,1,1,3,0003-00-0001-88.png,0004-00-0000-33.png
00000014,15,0,1449501304270,1449501304718,376,500,0,0,0,4,3,1,7,0001-00-0000-71.png,0002-00-0001-90.png
00000014,16,1,1449501307778,1449501308208,895,472,0,0,0,1,0,1,1,0004-00-0000-88.png,0005-00-0000-54.png
00000014,17,0,1449501309236,1449501309830,922,513,0,0,0,3,4,1,7,0002-00-0001-91.png,0001-00-0000-62.png
00000014,18,0,1449501313156,1449501313532,979,398,0,0,0,1,2,1,3,0004-00-0001-22.png,0003-00-0000-61.png
00000014,19,1,1449501316812,1449501317208,982,427,0,0,0,3,2,1,5,0002-00-0001-49.png,0003-00-0000-83.png
00000014,20,1,1449501318244,1449501318861,947,489,0,0,0,1,0,1,1,0004-00-0001-44.png,0005-00-0001-59.png
00000014,21,1,1449501320768,1449501321173,908,540,0,0,0,4,3,1,7,0001-00-0000-70.png,0002-00-0000-55.png
00000014,22,1,1449501322585,1449501323114,357,409,0,0,0,0,1,1,1,0005-00-0000-78.png,0004-00-0001-36.png
00000014,23,0,1449501324603,1449501325048,865,563,0,0,0,2,3,1,5,0003-00-0001-67.png,0002-00-0001-98.png
00000014,24,0,1449501340158,1449501340649,394,349,0,0,0,2,1,1,3,0003-00-0000-88.png,0004-00-0000-18.png
00000014,25,0,1449501344043,1449501344427,986,394,0,0,0,0,1,1,1,0005-00-0001-15.png,0004-00-0000-50.png
00000014,26,1,1449501348288,1449501348681,1029,410,0,0,0,4,3,1,7,0001-00-0000-63.png,0002-00-0000-97.png
00000014,27,1,1449501349588,1449501350193,942,437,0,0,0,1,0,1,1,0004-00-0001-58.png,0005-00-0001-62.png
00000014,28,0,1449501351088,1449501351491,427,477,0,0,0,3,2,1,5,0002-00-0001-03.png,0003-00-0000-63.png
00000014,29,1,1449501354985,1449501355387,1005,389,0,0,0,2,1,1,3,0003-00-0001-36.png,0004-00-0001-64.png
00000014,30,0,1449501356326,1449501356883,921,481,0,0,0,1,2,1,3,0004-00-0001-67.png,0003-00-0001-53.png
00000014,31,0,1449501361644,1449501362047,978,487,0,0,0,2,3,1,5,0003-00-0000-45.png,0002-00-0000-71.png
00000014,32,0,1449501365101,1449501365505,984,474,0,0,0,3,4,1,7,0002-00-0001-66.png,0001-00-0000-25.png
00000014,33,0,1449501368556,1449501368963,974,412,0,0,0,3,4,1,7,0002-00-0000-63.png,0001-00-0000-57.png
00000014,34,1,1449501372853,1449501373304,1015,414,0,0,0,3,2,1,5,0002-00-0000-62.png,0003-00-0001-52.png
00000014,35,1,1449501374179,1449501374695,889,531,0,0,0,4,3,1,7,0001-00-0001-49.png,0002-00-0000-23.png
00000014,36,0,1449501375574,1449501376069,427,475,0,0,0,1,0,1,1,0004-00-0001-32.png,0005-00-0001-22.png
00000014,37,0,1449501379461,1449501379870,950,491,0,0,0,2,3,1,5,0003-00-0001-39.png,0002-00-0001-55.png
00000014,38,1,1449501382958,1449501383366,955,428,0,0,0,2,1,1,3,0003-00-0001-42.png,0004-00-0001-35.png
00000014,39,1,1449501384248,1449501384687,432,436,0,0,0,0,1,1,1,0005-00-0001-22.png,0004-00-0001-32.png
00000014,40,1,1449501385652,1449501386602,406,524,0,0,0,1,2,1,3,0004-00-0000-95.png,0003-00-0001-48.png
00000014,41,1,1449501387567,1449501387956,415,462,0,0,0,1,2,1,3,0004-00-0000-19.png,0003-00-0000-62.png
00000014,42,0,1449501388911,1449501389520,904,417,0,0,0,2,3,1,5,0003-00-0001-16.png,0002-00-0001-91.png
00000014,43,0,1449501393791,1449501394208,947,472,0,0,0,3,4,1,7,0002-00-0001-05.png,0001-00-0001-62.png
00000014,44,1,1449501397559,1449501397983,978,449,0,0,0,3,2,1,5,0002-00-0001-20.png,0003-00-0000-94.png
00000014,45,1,1449501398856,1449501399300,427,476,0,0,0,0,1,1,1,0005-00-0000-40.png,0004-00-0001-68.png
00000014,46,1,1449501400249,1449501400778,889,553,0,0,0,1,0,1,1,0004-00-0000-73.png,0005-00-0000-24.png
00000014,47,0,1449501401701,1449501402143,439,501,0,0,0,4,3,1,7,0001-00-0000-38.png,0002-00-0001-74.png
00000014,48,1,1449501406135,1449501406500,978,424,0,0,0,2,1,1,3,0003-00-0001-03.png,0004-00-0000-07.png
00000014,49,0,1449501407738,1449501408138,978,435,0,0,0,2,3,1,5,0003-00-0000-72.png,0002-00-0001-56.png
00000014,50,1,1449501412217,1449501413094,503,509,0,0,0,1,2,1,3,0004-00-0001-80.png,0003-00-0000-68.png
00000014,51,1,1449501414040,1449501414550,922,445,0,0,0,2,1,1,3,0003-00-0000-62.png,0004-00-0000-59.png
00000014,52,0,1449501415499,1449501415956,401,474,0,0,0,1,0,1,1,0004-00-0001-36.png,0005-00-0000-92.png
00000014,53,0,1449501419034,1449501419374,976,370,0,0,0,0,1,1,1,0005-00-0001-34.png,0004-00-0000-18.png
00000014,54,0,1449501422643,1449501423108,392,482,0,0,0,4,3,1,7,0001-00-0000-33.png,0002-00-0001-93.png
00000014,55,0,1449501426050,1449501426356,995,373,0,0,0,3,4,1,7,0002-00-0001-56.png,0001-00-0000-37.png
00000014,56,1,1449501429397,1449501429790,1027,367,0,0,0,3,2,1,5,0002-00-0000-72.png,0003-00-0000-44.png
00000014,57,0,1449501430672,1449501431087,397,455,0,0,0,1,0,1,1,0004-00-0000-81.png,0005-00-0001-10.png
00000014,58,1,1449501434647,1449501435063,991,423,0,0,0,2,1,1,3,0003-00-0000-78.png,0004-00-0000-00.png
00000014,59,0,1449501435984,1449501436523,923,535,0,0,0,3,4,1,7,0002-00-0001-20.png,0001-00-0000-68.png
00000014,60,0,1449501439955,1449501440342,973,383,0,0,0,2,3,1,5,0003-00-0001-75.png,0002-00-0000-46.png
00000014,61,1,1449501443960,1449501444349,979,414,0,0,0,4,3,1,7,0001-00-0000-06.png,0002-00-0000-96.png
00000014,62,1,1449501445426,1449501445873,392,457,0,0,0,1,2,1,3,0004-00-0001-90.png,0003-00-0000-37.png
00000014,63,1,1449501446912,1449501447312,370,453,0,0,0,0,1,1,1,0005-00-0000-75.png,0004-00-0000-15.png
00000014,64,1,1449501448244,1449501449183,866,562,0,0,0,3,2,1,5,0002-00-0001-17.png,0003-00-0001-60.png
00000014,65,1,1449501450108,1449501450523,458,489,0,0,0,3,4,1,7,0002-00-0001-34.png,0001-00-0001-88.png
00000014,66,1,1449501451472,1449501452033,914,423,0,0,0,3,2,1,5,0002-00-0001-86.png,0003-00-0000-12.png
00000014,67,1,1449501452941,1449501453358,460,497,0,0,0,2,3,1,5,0003-00-0000-30.png,0002-00-0000-80.png
00000014,68,1,1449501454321,1449501454862,900,464,0,0,0,1,0,1,1,0004-00-0000-94.png,0005-00-0000-09.png
00000014,69,1,1449501455804,1449501456347,901,462,0,0,0,2,1,1,3,0003-00-0001-88.png,0004-00-0000-20.png
00000014,70,0,1449501457326,1449501457738,350,475,0,0,0,4,3,1,7,0001-00-0001-46.png,0002-00-0001-98.png
00000014,71,0,1449501461091,1449501461546,975,445,0,0,0,1,2,1,3,0004-00-0001-43.png,0003-00-0001-99.png
00000014,72,0,1449501464720,1449501465159,995,414,0,0,0,0,1,1,1,0005-00-0000-80.png,0004-00-0001-82.png
00000014,73,0,1449501468297,1449501468725,876,435,0,0,0,3,4,1,7,0002-00-0000-04.png,0001-00-0000-29.png
00000014,74,1,1449501472015,1449501472431,928,384,0,0,0,4,3,1,7,0001-00-0000-42.png,0002-00-0000-92.png
00000014,75,1,1449501473372,1449501473921,922,470,0,0,0,3,2,1,5,0002-00-0001-18.png,0003-00-0000-04.png
00000014,76,0,1449501475006,1449501475538,877,424,0,0,0,2,3,1,5,0003-00-0001-92.png,0002-00-0000-67.png
00000014,77,0,1449501479191,1449501479591,952,566,0,0,0,0,1,1,1,0005-00-0001-39.png,0004-00-0000-57.png
00000014,78,1,1449501482599,1449501482995,952,513,0,0,0,2,1,1,3,0003-00-0000-99.png,0004-00-0000-89.png
00000014,79,1,1449501484349,1449501484764,409,444,0,0,0,1,2,1,3,0004-00-0000-23.png,0003-00-0000-54.png
00000014,80,0,1449501485761,1449501486180,336,483,0,0,0,1,0,1,1,0004-00-0001-06.png,0005-00-0001-67.png
00000014,81,0,1449501489058,1449501489659,324,404,0,0,0,4,3,1,7,0001-00-0000-16.png,0002-00-0000-14.png
00000014,82,1,1449501492762,1449501493132,977,417,0,0,0,1,0,1,1,0004-00-0000-01.png,0005-00-0000-19.png
00000014,83,0,1449501494099,1449501494653,894,468,0,0,0,1,2,1,3,0004-00-0001-28.png,0003-00-0001-26.png
00000014,84,0,1449501497634,1449501497730,504,453,0,0,0,2,1,1,3,0003-00-0001-46.png,0004-00-0001-98.png
00000014,85,0,1449501500647,1449501501844,365,365,0,0,0,3,2,1,5,0002-00-0001-35.png,0003-00-0001-89.png
00000014,86,0,1449501505441,1449501505791,998,471,0,0,0,3,4,1,7,0002-00-0001-40.png,0001-00-0001-11.png
00000014,87,0,1449501508716,1449501509134,1003,460,0,0,0,0,1,1,1,0005-00-0000-36.png,0004-00-0001-14.png
00000014,88,0,1449501514511,1449501514968,971,524,0,0,0,2,3,1,5,0003-00-0000-60.png,0002-00-0001-51.png
00000014,89,0,1449501518041,1449501518418,1003,397,0,0,0,3,4,1,7,0002-00-0001-28.png,0001-00-0001-62.png
00000014,90,1,1449501521518,1449501521990,958,499,0,0,0,4,3,1,7,0001-00-0001-95.png,0002-00-0000-59.png
00000014,91,1,1449501522929,1449501523373,343,441,0,0,0,0,1,1,1,0005-00-0001-57.png,0004-00-0001-68.png
00000014,92,1,1449501524362,1449501524813,373,469,0,0,0,1,2,1,3,0004-00-0000-67.png,0003-00-0001-78.png
00000014,93,1,1449501525799,1449501526365,916,459,0,0,0,3,2,1,5,0002-00-0000-20.png,0003-00-0000-56.png
00000014,94,1,1449501527351,1449501527733,401,464,0,0,0,2,3,1,5,0003-00-0001-44.png,0002-00-0000-30.png
00000014,95,0,1449501528683,1449501529114,427,464,0,0,0,1,0,1,1,0004-00-0000-26.png,0005-00-0001-83.png
00000014,96,1,1449501532330,1449501532767,978,423,0,0,0,2,1,1,3,0003-00-0000-72.png,0004-00-0000-41.png
00000014,97,1,1449501533661,1449501534046,445,478,0,0,0,3,4,1,7,0002-00-0001-90.png,0001-00-0000-99.png
00000014,98,0,1449501534962,1449501535411,335,467,0,0,0,1,0,1,1,0004-00-0000-11.png,0005-00-0001-56.png
00000014,99,1,1449501538382,1449501538965,350,501,0,0,0,0,1,1,1,0005-00-0001-42.png,0004-00-0000-68.png
00000014,100,1,1449501539893,1449501540425,922,472,0,0,0,2,1,1,3,0003-00-0000-15.png,0004-00-0001-65.png
00000014,101,0,1449501541376,1449501541908,886,450,0,0,0,2,3,1,5,0003-00-0000-94.png,0002-00-0000-73.png
00000014,102,1,1449501544931,1449501545779,385,405,0,0,0,1,2,1,3,0004-00-0001-54.png,0003-00-0000-20.png
00000014,103,1,1449501546707,1449501547234,870,445,0,0,0,3,2,1,5,0002-00-0001-17.png,0003-00-0001-49.png
00000014,104,0,1449501548149,1449501548556,411,449,0,0,0,4,3,1,7,0001-00-0000-19.png,0002-00-0001-79.png
00000014,105,1,1449501551390,1449501552022,897,536,0,0,0,3,2,1,5,0002-00-0001-65.png,0003-00-0000-34.png
00000014,106,0,1449501552931,1449501553362,376,476,0,0,0,1,0,1,1,0004-00-0001-29.png,0005-00-0001-74.png
00000014,107,1,1449501556458,1449501556884,924,487,0,0,0,4,3,1,7,0001-00-0000-13.png,0002-00-0000-02.png
00000014,108,0,1449501557821,1449501558237,468,493,0,0,0,2,1,1,3,0003-00-0001-54.png,0004-00-0001-54.png
00000014,109,1,1449501561240,1449501561829,365,409,0,0,0,0,1,1,1,0005-00-0001-77.png,0004-00-0000-29.png
00000014,110,0,1449501562802,1449501563311,924,459,0,0,0,2,3,1,5,0003-00-0000-28.png,0002-00-0000-74.png
00000014,111,0,1449501566707,1449501567158,986,447,0,0,0,1,2,1,3,0004-00-0001-55.png,0003-00-0000-55.png
00000014,112,0,1449501576061,1449501576454,1001,429,0,0,0,3,4,1,7,0002-00-0000-06.png,0001-00-0000-91.png
00000014,113,1,1449501581471,1449501581855,958,437,0,0,0,3,2,1,5,0002-00-0001-65.png,0003-00-0000-21.png
00000014,114,1,1449501582719,1449501583166,350,448,0,0,0,0,1,1,1,0005-00-0001-24.png,0004-00-0000-46.png
00000014,115,1,1449501584144,1449501585116,923,547,0,0,0,2,1,1,3,0003-00-0001-77.png,0004-00-0001-90.png
00000014,116,1,1449501586031,1449501586457,427,488,0,0,0,2,3,1,5,0003-00-0001-92.png,0002-00-0001-85.png
00000014,117,0,1449501587382,1449501587925,899,465,0,0,0,1,2,1,3,0004-00-0001-61.png,0003-00-0001-62.png
00000014,118,1,1449501591050,1449501591484,964,449,0,0,0,1,0,1,1,0004-00-0000-58.png,0005-00-0001-69.png
00000014,119,0,1449501592838,1449501593295,339,448,0,0,0,4,3,1,7,0001-00-0001-13.png,0002-00-0001-65.png
00000014,120,0,1449501596486,1449501596902,995,416,0,0,0,3,4,1,7,0002-00-0001-56.png,0001-00-0001-08.png
00000014,121,0,1449501600116,1449501600575,982,454,0,0,0,0,1,1,1,0005-00-0001-22.png,0004-00-0001-03.png
00000014,122,1,1449501603732,1449501604175,950,491,0,0,0,1,0,1,1,0004-00-0000-06.png,0005-00-0001-58.png
00000014,123,0,1449501605093,1449501605522,416,560,0,0,0,3,2,1,5,0002-00-0000-98.png,0003-00-0000-86.png
00000014,124,0,1449501608434,1449501608843,938,423,0,0,0,2,3,1,5,0003-00-0001-01.png,0002-00-0001-44.png
00000014,125,0,1449501612488,1449501612891,1016,423,0,0,0,1,2,1,3,0004-00-0001-99.png,0003-00-0000-18.png
00000014,126,1,1449501616046,1449501616482,976,476,0,0,0,2,1,1,3,0003-00-0000-29.png,0004-00-0001-63.png
00000014,127,0,1449501617376,1449501617792,445,479,0,0,0,4,3,1,7,0001-00-0000-04.png,0002-00-0001-27.png
00000014,128,0,1449501620775,1449501621198,976,438,0,0,0,3,4,1,7,0002-00-0000-89.png,0001-00-0001-87.png
00000014,129,1,1449501624324,1449501624757,977,437,0,0,0,4,3,1,7,0001-00-0000-61.png,0002-00-0000-11.png
00000014,130,1,1449501625704,1449501626246,376,399,0,0,0,0,1,1,1,0005-00-0000-49.png,0004-00-0000-63.png
00000014,131,1,1449501627276,1449501628253,928,442,0,0,0,1,0,1,1,0004-00-0000-80.png,0005-00-0001-59.png
00000014,132,0,1449501629262,1449501629779,900,463,0,0,0,1,2,1,3,0004-00-0000-41.png,0003-00-0000-27.png
00000014,133,0,1449501632862,1449501633286,989,424,0,0,0,3,4,1,7,0002-00-0000-33.png,0001-00-0000-27.png
00000014,134,1,1449501636320,1449501636756,1001,429,0,0,0,3,2,1,5,0002-00-0000-68.png,0003-00-0000-25.png
00000014,135,0,1449501638106,1449501638623,379,442,0,0,0,2,1,1,3,0003-00-0000-76.png,0004-00-0000-37.png
00000014,136,0,1449501641575,1449501641997,981,427,0,0,0,2,3,1,5,0003-00-0000-24.png,0002-00-0001-71.png
00000014,137,0,1449501645114,1449501645499,953,462,0,0,0,3,4,1,7,0002-00-0000-49.png,0001-00-0001-54.png
00000014,138,0,1449501648520,1449501649122,1003,385,0,0,0,0,1,1,1,0005-00-0000-44.png,0004-00-0001-02.png
00000014,139,1,1449501652073,1449501652499,981,427,0,0,0,1,0,1,1,0004-00-0000-47.png,0005-00-0001-03.png
00000014,140,0,1449501653400,1449501653974,874,560,0,0,0,1,2,1,3,0004-00-0001-09.png,0003-00-0000-94.png
00000014,141,1,1449501656989,1449501657385,953,416,0,0,0,3,2,1,5,0002-00-0001-66.png,0003-00-0000-16.png
00000014,142,1,1449501658301,1449501658844,892,428,0,0,0,2,1,1,3,0003-00-0001-11.png,0004-00-0000-50.png
00000014,143,0,1449501659772,1449501660261,875,449,0,0,0,2,3,1,5,0003-00-0000-88.png,0002-00-0001-31.png
00000014,144,1,1449501663201,1449501663613,938,423,0,0,0,4,3,1,7,0001-00-0001-81.png,0002-00-0000-36.png
00000014,145,1,1449501664591,1449501664962,360,433,0,0,0,0,1,1,1,0005-00-0000-40.png,0004-00-0000-97.png
00000014,146,1,1449501665894,1449501666411,902,469,0,0,0,2,1,1,3,0003-00-0000-08.png,0004-00-0000-92.png
00000014,147,1,1449501667434,1449501667959,944,457,0,0,0,4,3,1,7,0001-00-0001-51.png,0002-00-0001-26.png
00000014,148,0,1449501668944,1449501669367,431,464,0,0,0,1,0,1,1,0004-00-0001-24.png,0005-00-0000-11.png
00000014,149,0,1449501672263,1449501672849,941,474,0,0,0,1,2,1,3,0004-00-0001-33.png,0003-00-0000-70.png
00000014,150,0,1449501675804,1449501676257,982,467,0,0,0,3,4,1,7,0002-00-0001-57.png,0001-00-0000-61.png
00000014,151,0,1449501679201,1449501679628,975,404,0,0,0,2,3,1,5,0003-00-0001-12.png,0002-00-0001-82.png
00000014,152,1,1449501682609,1449501682993,1002,437,0,0,0,3,2,1,5,0002-00-0001-28.png,0003-00-0000-96.png
00000014,153,0,1449501683860,1449501684283,376,448,0,0,0,3,2,1,5,0002-00-0000-00.png,0003-00-0001-60.png
00000014,154,0,1449501687290,1449501687753,953,468,0,0,0,3,4,1,7,0002-00-0000-77.png,0001-00-0000-62.png
00000014,155,0,1449501690789,1449501691244,975,461,0,0,0,1,2,1,3,0004-00-0001-73.png,0003-00-0000-56.png
00000014,156,0,1449501694137,1449501694515,998,393,0,0,0,2,3,1,5,0003-00-0001-64.png,0002-00-0000-63.png
00000014,157,1,1449501697756,1449501698175,940,501,0,0,0,1,0,1,1,0004-00-0001-84.png,0005-00-0001-90.png
00000014,158,0,1449501699115,1449501699520,398,469,0,0,0,4,3,1,7,0001-00-0001-25.png,0002-00-0000-93.png
00000014,159,1,1449501702417,1449501702820,900,528,0,0,0,2,1,1,3,0003-00-0001-19.png,0004-00-0000-94.png
00000014,160,1,1449501703795,1449501704180,376,424,0,0,0,0,1,1,1,0005-00-0000-49.png,0004-00-0001-86.png
00000014,161,0,1449501705200,1449501705838,913,528,0,0,0,0,1,1,1,0005-00-0001-36.png,0004-00-0001-78.png
00000014,162,1,1449501708678,1449501709088,949,431,0,0,0,1,0,1,1,0004-00-0001-84.png,0005-00-0000-13.png
00000014,163,0,1449501710095,1449501710611,925,482,0,0,0,1,2,1,3,0004-00-0001-58.png,0003-00-0001-19.png
00000014,164,1,1449501713647,1449501714094,940,438,0,0,0,2,1,1,3,0003-00-0001-90.png,0004-00-0000-55.png
00000014,165,0,1449501715059,1449501715534,899,474,0,0,0,3,4,1,7,0002-00-0000-42.png,0001-00-0001-87.png
00000014,166,0,1449501718963,1449501719403,991,449,0,0,0,2,3,1,5,0003-00-0000-26.png,0002-00-0000-49.png
00000014,167,1,1449501722432,1449501722864,977,410,0,0,0,3,2,1,5,0002-00-0001-32.png,0003-00-0000-68.png
00000014,168,1,1449501723785,1449501724279,862,448,0,0,0,4,3,1,7,0001-00-0001-54.png,0002-00-0000-34.png
00000014,169,1,1449501725334,1449501725797,370,479,0,0,0,0,1,1,1,0005-00-0000-29.png,0004-00-0001-19.png
00000014,170,1,1449501726982,1449501728021,925,449,0,0,0,3,2,1,5,0002-00-0001-14.png,0003-00-0000-38.png
00000014,171,1,1449501729056,1449501729474,355,435,0,0,0,1,2,1,3,0004-00-0001-77.png,0003-00-0000-42.png
00000014,172,1,1449501730598,1449501731009,427,478,0,0,0,3,4,1,7,0002-00-0000-55.png,0001-00-0000-91.png
00000014,173,0,1449501732020,1449501732407,344,461,0,0,0,1,0,1,1,0004-00-0001-11.png,0005-00-0001-10.png
00000014,174,1,1449501735400,1449501735917,374,377,0,0,0,2,3,1,5,0003-00-0001-78.png,0002-00-0000-96.png
00000014,175,1,1449501737328,1449501737781,926,449,0,0,0,2,1,1,3,0003-00-0000-77.png,0004-00-0000-40.png
00000014,176,0,1449501738779,1449501739172,416,476,0,0,0,4,3,1,7,0001-00-0001-36.png,0002-00-0001-09.png
00000014,177,1,1449501742188,1449501742686,955,468,0,0,0,1,0,1,1,0004-00-0001-15.png,0005-00-0000-63.png
00000014,178,1,1449501743696,1449501744149,350,448,0,0,0,1,2,1,3,0004-00-0000-90.png,0003-00-0000-75.png
00000014,179,0,1449501745179,1449501745575,427,460,0,0,0,4,3,1,7,0001-00-0001-31.png,0002-00-0000-34.png
00000014,180,0,1449501748696,1449501749063,881,548,0,0,0,2,3,1,5,0003-00-0000-84.png,0002-00-0001-49.png
00000014,181,1,1449501752186,1449501752581,947,453,0,0,0,2,1,1,3,0003-00-0000-33.png,0004-00-0000-23.png
00000014,182,1,1449501754500,1449501754948,863,561,0,0,0,3,2,1,5,0002-00-0000-98.png,0003-00-0001-78.png
00000014,183,0,1449501756058,1449501756553,862,462,0,0,0,3,4,1,7,0002-00-0000-36.png,0001-00-0001-87.png
00000014,184,1,1449501759648,1449501760078,350,398,0,0,0,0,1,1,1,0005-00-0000-24.png,0004-00-0001-62.png
00000014,185,1,1449501761555,1449501761999,919,467,0,0,0,3,2,1,5,0002-00-0000-75.png,0003-00-0001-89.png
00000014,186,0,1449501762970,1449501763330,401,474,0,0,0,4,3,1,7,0001-00-0000-91.png,0002-00-0000-49.png
00000014,187,1,1449501766305,1449501766737,950,431,0,0,0,2,1,1,3,0003-00-0000-10.png,0004-00-0000-42.png
00000014,188,0,1449501767700,1449501768215,875,423,0,0,0,3,4,1,7,0002-00-0000-00.png,0001-00-0001-26.png
00000014,189,1,1449501771237,1449501771642,908,419,0,0,0,1,0,1,1,0004-00-0001-45.png,0005-00-0000-50.png
00000014,190,1,1449501772624,1449501772997,381,566,0,0,0,1,2,1,3,0004-00-0000-29.png,0003-00-0001-16.png
00000014,191,0,1449501774037,1449501774488,874,475,0,0,0,2,3,1,5,0003-00-0000-55.png,0002-00-0000-94.png
00000014,192,0,1449501777708,1449501778143,964,449,0,0,0,0,1,1,1,0005-00-0000-43.png,0004-00-0001-30.png
00000014,193,1,1449501781332,1449501781818,947,472,0,0,0,3,2,1,5,0002-00-0001-06.png,0003-00-0000-47.png
00000014,194,0,1449501782794,1449501783343,862,448,0,0,0,3,4,1,7,0002-00-0000-85.png,0001-00-0001-01.png
00000014,195,1,1449501786412,1449501786823,963,494,0,0,0,2,1,1,3,0003-00-0001-92.png,0004-00-0000-74.png
00000014,196,1,1449501787723,1449501788135,350,449,0,0,0,0,1,1,1,0005-00-0000-44.png,0004-00-0001-69.png
00000014,197,1,1449501789156,1449501789661,939,475,0,0,0,1,0,1,1,0004-00-0001-20.png,0005-00-0000-82.png
00000014,198,1,1449501790727,1449501791115,307,471,0,0,0,1,2,1,3,0004-00-0000-92.png,0003-00-0000-40.png
00000014,199,1,1449501792096,1449501792521,427,488,0,0,0,2,3,1,5,0003-00-0000-44.png,0002-00-0001-74.png
00000014,200,1,1449501793560,1449501794069,925,474,0,0,0,4,3,1,7,0001-00-0001-10.png,0002-00-0001-12.png
00000014,201,1,1449501795150,1449501795521,325,488,0,0,0,0,1,1,1,0005-00-0001-75.png,0004-00-0001-45.png
00000014,202,0,1449501796561,1449501796943,401,461,0,0,0,3,2,1,5,0002-00-0000-36.png,0003-00-0000-69.png
00000014,203,0,1449501799880,1449501800433,419,402,0,0,0,4,3,1,7,0001-00-0000-10.png,0002-00-0000-03.png
00000014,204,0,1449501803280,1449501803671,931,506,0,0,0,2,3,1,5,0003-00-0001-48.png,0002-00-0001-13.png
00000014,205,1,1449501806767,1449501807195,952,513,0,0,0,2,1,1,3,0003-00-0001-95.png,0004-00-0001-64.png
00000014,206,0,1449501808085,1449501808468,406,489,0,0,0,1,0,1,1,0004-00-0000-20.png,0005-00-0001-55.png
00000014,207,0,1449501811508,1449501811933,896,465,0,0,0,3,4,1,7,0002-00-0000-75.png,0001-00-0000-77.png
00000014,208,0,1449501814956,1449501815419,972,472,0,0,0,1,2,1,3,0004-00-0000-96.png,0003-00-0000-79.png
00000014,209,0,1449501818439,1449501818868,974,435,0,0,0,0,1,1,1,0005-00-0001-87.png,0004-00-0001-15.png
00000014,210,1,1449501821931,1449501822354,977,462,0,0,0,3,2,1,5,0002-00-0000-76.png,0003-00-0000-51.png
00000014,211,1,1449501823319,1449501823707,378,471,0,0,0,3,4,1,7,0002-00-0001-56.png,0001-00-0001-66.png
00000014,212,1,1449501824692,1449501825583,369,452,0,0,0,2,3,1,5,0003-00-0001-92.png,0002-00-0000-66.png
00000014,213,1,1449501826630,1449501826989,371,476,0,0,0,1,2,1,3,0004-00-0000-16.png,0003-00-0000-18.png
00000014,214,1,1449501827955,1449501828470,901,476,0,0,0,2,1,1,3,0003-00-0000-93.png,0004-00-0001-02.png
00000014,215,0,1449501829952,1449501830371,412,407,0,0,0,4,3,1,7,0001-00-0001-90.png,0002-00-0000-67.png
00000014,216,1,1449501833471,1449501833903,982,441,0,0,0,1,0,1,1,0004-00-0000-66.png,0005-00-0000-57.png
00000014,217,0,1449501834800,1449501835345,910,498,0,0,0,3,4,1,7,0002-00-0001-42.png,0001-00-0001-77.png
00000014,218,0,1449501838360,1449501838818,975,455,0,0,0,1,2,1,3,0004-00-0000-85.png,0003-00-0000-26.png
00000014,219,1,1449501841736,1449501842174,975,456,0,0,0,4,3,1,7,0001-00-0000-54.png,0002-00-0000-35.png
00000014,220,0,1449501843087,1449501843464,401,475,0,0,0,1,0,1,1,0004-00-0001-06.png,0005-00-0001-01.png
00000014,221,0,1449501846529,1449501846949,926,474,0,0,0,2,3,1,5,0003-00-0000-80.png,0002-00-0001-10.png
00000014,222,0,1449501849977,1449501850382,950,384,0,0,0,0,1,1,1,0005-00-0000-92.png,0004-00-0000-52.png
00000014,223,1,1449501853307,1449501853692,970,424,0,0,0,3,2,1,5,0002-00-0000-78.png,0003-00-0000-33.png
00000014,224,1,1449501854617,1449501855563,878,377,0,0,0,2,1,1,3,0003-00-0000-36.png,0004-00-0000-24.png
00000014,225,1,1449501856565,1449501856935,385,467,0,0,0,0,1,1,1,0005-00-0001-00.png,0004-00-0000-54.png
00000014,226,0,1449501857935,1449501858296,429,484,0,0,0,3,2,1,5,0002-00-0000-20.png,0003-00-0000-66.png
00000014,227,1,1449501861134,1449501861605,943,466,0,0,0,2,1,1,3,0003-00-0000-95.png,0004-00-0001-50.png
00000014,228,0,1449501862558,1449501862941,310,453,0,0,0,4,3,1,7,0001-00-0000-27.png,0002-00-0001-93.png
00000014,229,1,1449501866294,1449501866723,901,426,0,0,0,1,0,1,1,0004-00-0000-40.png,0005-00-0000-77.png
00000014,230,0,1449501867893,1449501868851,952,475,0,0,0,2,3,1,5,0003-00-0001-28.png,0002-00-0001-94.png
00000014,231,0,1449501871800,1449501872256,884,416,0,0,0,1,2,1,3,0004-00-0001-76.png,0003-00-0000-50.png
00000014,232,0,1449501875169,1449501875642,939,449,0,0,0,3,4,1,7,0002-00-0001-88.png,0001-00-0000-59.png
00000014,233,0,1449501878569,1449501878951,991,371,0,0,0,2,3,1,5,0003-00-0001-08.png,0002-00-0001-60.png
00000014,234,1,1449501882038,1449501882463,1002,439,0,0,0,3,2,1,5,0002-00-0000-82.png,0003-00-0000-85.png
00000014,235,1,1449501883791,1449501884250,925,475,0,0,0,2,1,1,3,0003-00-0000-12.png,0004-00-0000-77.png
00000014,236,1,1449501885166,1449501885567,349,441,0,0,0,0,1,1,1,0005-00-0001-07.png,0004-00-0000-53.png
00000014,237,0,1449501886567,1449501887526,888,475,0,0,0,1,2,1,3,0004-00-0000-85.png,0003-00-0000-57.png
00000014,238,1,1449501890401,1449501890888,945,433,0,0,0,4,3,1,7,0001-00-0000-32.png,0002-00-0001-57.png
00000014,239,0,1449501891796,1449501892297,889,527,0,0,0,3,4,1,7,0002-00-0000-63.png,0001-00-0001-79.png
00000014,240,0,1449501895294,1449501895378,523,528,0,0,0,1,0,1,1,0004-00-0001-59.png,0005-00-0000-12.png
00000014,241,0,1449501898307,1449501898649,910,377,0,0,0,1,2,1,3,0004-00-0000-26.png,0003-00-0000-20.png
00000014,242,1,1449501901764,1449501902128,990,423,0,0,0,3,2,1,5,0002-00-0001-74.png,0003-00-0000-45.png
00000014,243,0,1449501903076,1449501903687,401,500,0,0,0,1,0,1,1,0004-00-0000-60.png,0005-00-0000-19.png
00000014,244,0,1449501907073,1449501907485,969,463,0,0,0,2,3,1,5,0003-00-0000-26.png,0002-00-0000-89.png
00000014,245,1,1449501910620,1449501911036,903,407,0,0,0,4,3,1,7,0001-00-0000-24.png,0002-00-0001-45.png
00000014,246,1,1449501911971,1449501912469,864,553,0,0,0,2,1,1,3,0003-00-0000-26.png,0004-00-0000-96.png
00000014,247,1,1449501913450,1449501913812,347,471,0,0,0,0,1,1,1,0005-00-0000-12.png,0004-00-0000-23.png
00000014,248,0,1449501914922,1449501915344,872,482,0,0,0,3,4,1,7,0002-00-0001-27.png,0001-00-0000-54.png
00000014,249,0,1449501918259,1449501918692,940,462,0,0,0,3,4,1,7,0002-00-0000-65.png,0001-00-0000-66.png
00000014,250,1,1449501921537,1449501921946,972,445,0,0,0,1,0,1,1,0004-00-0000-36.png,0005-00-0000-67.png
00000014,251,0,1449501922963,1449501923497,920,477,0,0,0,1,2,1,3,0004-00-0000-86.png,0003-00-0001-63.png
00000014,252,0,1449501926569,1449501927028,986,447,0,0,0,2,3,1,5,0003-00-0000-10.png,0002-00-0000-70.png
00000014,253,1,1449501930033,1449501930467,958,473,0,0,0,2,1,1,3,0003-00-0000-45.png,0004-00-0001-86.png
00000014,254,0,1449501931434,1449501931843,362,449,0,0,0,4,3,1,7,0001-00-0001-82.png,0002-00-0000-26.png
00000014,255,1,1449501934958,1449501935339,977,435,0,0,0,3,2,1,5,0002-00-0001-80.png,0003-00-0000-99.png
00000014,256,1,1449501936296,1449501936716,339,462,0,0,0,0,1,1,1,0005-00-0000-40.png,0004-00-0001-08.png
00000014,257,0,1449501937762,1449501938314,918,481,0,0,0,3,4,1,7,0002-00-0001-48.png,0001-00-0001-70.png
00000014,258,1,1449501941327,1449501941734,977,423,0,0,0,3,2,1,5,0002-00-0000-66.png,0003-00-0000-36.png
00000014,259,1,1449501942617,1449501943019,427,463,0,0,0,2,3,1,5,0003-00-0000-74.png,0002-00-0001-17.png
00000014,260,1,1449501944020,1449501944517,889,475,0,0,0,1,0,1,1,0004-00-0001-26.png,0005-00-0001-41.png
00000014,261,0,1449501945471,1449501945845,338,475,0,0,0,4,3,1,7,0001-00-0000-54.png,0002-00-0000-48.png
00000014,262,0,1449501948761,1449501949130,875,540,0,0,0,1,2,1,3,0004-00-0001-09.png,0003-00-0000-91.png
00000014,263,1,1449501952051,1449501952494,989,452,0,0,0,2,1,1,3,0003-00-0000-67.png,0004-00-0001-02.png
00000014,264,1,1449501953424,1449501953853,350,475,0,0,0,0,1,1,1,0005-00-0001-77.png,0004-00-0001-35.png
00000014,265,0,1449501954868,1449501955425,872,510,0,0,0,2,3,1,5,0003-00-0000-65.png,0002-00-0000-01.png
00000014,266,1,1449501958331,1449501958711,888,528,0,0,0,3,2,1,5,0002-00-0000-77.png,0003-00-0000-42.png
00000014,267,1,1449501960088,1449501960502,905,481,0,0,0,1,0,1,1,0004-00-0001-33.png,0005-00-0000-98.png
00000014,268,1,1449501961550,1449501961929,338,449,0,0,0,0,1,1,1,0005-00-0000-74.png,0004-00-0000-59.png
00000014,269,1,1449501963083,1449501963581,900,482,0,0,0,4,3,1,7,0001-00-0001-03.png,0002-00-0001-10.png
00000014,270,0,1449501964647,1449501965657,907,474,0,0,0,3,4,1,7,0002-00-0000-80.png,0001-00-0000-45.png
00000014,271,0,1449501968654,1449501969408,944,426,0,0,0,1,2,1,3,0004-00-0000-00.png,0003-00-0000-91.png
00000014,272,1,1449501972364,1449501972815,972,471,0,0,0,2,1,1,3,0003-00-0001-83.png,0004-00-0000-88.png
00000014,273,0,1449501973726,1449501974215,894,477,0,0,0,2,3,1,5,0003-00-0000-12.png,0002-00-0001-79.png
00000014,274,1,1449501977255,1449501977689,951,463,0,0,0,3,2,1,5,0002-00-0001-58.png,0003-00-0001-05.png
00000014,275,1,1449501978592,1449501979255,922,471,0,0,0,4,3,1,7,0001-00-0001-15.png,0002-00-0001-14.png
00000014,276,0,1449501980294,1449501980742,876,486,0,0,0,1,2,1,3,0004-00-0000-66.png,0003-00-0000-07.png
00000014,277,0,1449501983992,1449501984415,960,447,0,0,0,3,4,1,7,0002-00-0000-03.png,0001-00-0001-29.png
00000014,278,1,1449501987251,1449501987834,338,410,0,0,0,0,1,1,1,0005-00-0001-84.png,0004-00-0001-79.png
00000014,279,1,1449501988742,1449501989261,895,477,0,0,0,1,0,1,1,0004-00-0000-31.png,0005-00-0000-47.png
00000014,280,0,1449501990264,1449501990630,427,502,0,0,0,2,1,1,3,0003-00-0000-34.png,0004-00-0001-27.png
00000014,281,0,1449501993494,1449501993904,952,449,0,0,0,3,4,1,7,0002-00-0000-01.png,0001-00-0001-68.png
00000014,282,0,1449501996952,1449501997354,976,440,0,0,0,0,1,1,1,0005-00-0000-19.png,0004-00-0000-03.png
00000014,283,0,1449502000430,1449502000801,932,501,0,0,0,1,2,1,3,0004-00-0000-47.png,0003-00-0001-94.png
00000014,284,1,1449502003939,1449502004392,973,444,0,0,0,4,3,1,7,0001-00-0000-47.png,0002-00-0001-67.png
00000014,285,1,1449502005716,1449502006131,925,475,0,0,0,1,0,1,1,0004-00-0000-21.png,0005-00-0000-67.png
00000014,286,0,1449502007130,1449502007683,932,475,0,0,0,2,3,1,5,0003-00-0001-03.png,0002-00-0001-37.png
00000014,287,1,1449502010535,1449502010984,938,424,0,0,0,2,1,1,3,0003-00-0001-21.png,0004-00-0001-81.png
00000014,288,0,1449502011938,1449502012310,398,497,0,0,0,3,2,1,5,0002-00-0000-46.png,0003-00-0000-04.png
00000014,289,1,1449502015287,1449502015725,980,465,0,0,0,2,1,1,3,0003-00-0001-47.png,0004-00-0000-63.png
00000014,290,1,1449502016657,1449502017041,427,464,0,0,0,1,2,1,3,0004-00-0000-95.png,0003-00-0001-88.png
00000014,291,0,1449502018121,1449502018490,358,458,0,0,0,3,2,1,5,0002-00-0000-82.png,0003-00-0000-78.png
00000014,292,1,1449502021492,1449502021881,977,463,0,0,0,1,0,1,1,0004-00-0001-85.png,0005-00-0000-54.png
00000014,293,1,1449502023208,1449502023672,332,394,0,0,0,0,1,1,1,0005-00-0001-88.png,0004-00-0001-03.png
00000014,294,0,1449502024684,1449502025101,374,458,0,0,0,4,3,1,7,0001-00-0000-01.png,0002-00-0000-52.png
00000014,295,0,1449502027937,1449502028393,951,464,0,0,0,3,4,1,7,0002-00-0001-84.png,0001-00-0000-87.png
00000014,296,0,1449502031407,1449502031777,949,470,0,0,0,2,3,1,5,0003-00-0000-10.png,0002-00-0000-56.png
00000014,297,1,1449502034836,1449502035274,945,558,0,0,0,2,1,1,3,0003-00-0001-07.png,0004-00-0001-35.png
00000014,298,0,1449502036112,1449502036568,325,436,0,0,0,1,0,1,1,0004-00-0001-13.png,0005-00-0001-64.png
00000014,299,0,1449502039476,1449502039871,950,457,0,0,0,2,3,1,5,0003-00-0000-17.png,0002-00-0000-28.png
00000014,300,0,1449502043014,1449502043368,946,420,0,0,0,1,2,1,3,0004-00-0001-11.png,0003-00-0001-26.png
00000014,301,1,1449502046212,1449502046627,964,450,0,0,0,3,2,1,5,0002-00-0000-69.png,0003-00-0000-60.png
00000014,302,0,1449502047535,1449502047940,339,441,0,0,0,4,3,1,7,0001-00-0001-01.png,0002-00-0001-44.png
00000014,303,0,1449502050864,1449502051288,926,410,0,0,0,3,4,1,7,0002-00-0001-47.png,0001-00-0001-66.png
00000014,304,0,1449502054129,1449502054557,977,397,0,0,0,0,1,1,1,0005-00-0000-46.png,0004-00-0001-95.png
00000014,305,0,1449502057615,1449502057999,904,507,0,0,0,3,4,1,7,0002-00-0001-94.png,0001-00-0001-11.png
00000014,306,1,1449502060953,1449502061475,977,410,0,0,0,4,3,1,7,0001-00-0000-77.png,0002-00-0000-22.png
00000014,307,0,1449502062808,1449502063346,427,410,0,0,0,2,1,1,3,0003-00-0001-58.png,0004-00-0000-37.png
00000014,308,0,1449502066258,1449502066626,938,462,0,0,0,1,2,1,3,0004-00-0000-67.png,0003-00-0001-61.png
00000014,309,1,1449502069616,1449502070024,975,430,0,0,0,1,0,1,1,0004-00-0000-86.png,0005-00-0001-75.png
00000014,310,0,1449502070899,1449502071281,376,462,0,0,0,3,2,1,5,0002-00-0000-69.png,0003-00-0000-71.png
00000014,311,0,1449502074220,1449502074697,961,436,0,0,0,2,3,1,5,0003-00-0001-05.png,0002-00-0001-91.png
00000014,312,0,1449502077739,1449502078144,994,400,0,0,0,0,1,1,1,0005-00-0000-59.png,0004-00-0001-07.png
00000014,313,0,1449502081206,1449502081637,1015,473,0,0,0,2,3,1,5,0003-00-0000-89.png,0002-00-0001-26.png
00000014,314,0,1449502084795,1449502085230,937,410,0,0,0,0,1,1,1,0005-00-0001-51.png,0004-00-0001-96.png
00000014,315,1,1449502088083,1449502088608,360,394,0,0,0,1,2,1,3,0004-00-0001-35.png,0003-00-0000-22.png
00000014,316,0,1449502089493,1449502089938,924,483,0,0,0,3,4,1,7,0002-00-0001-62.png,0001-00-0001-20.png
00000014,317,1,1449502092869,1449502093280,911,392,0,0,0,3,2,1,5,0002-00-0000-23.png,0003-00-0001-58.png
00000014,318,0,1449502094207,1449502094632,343,451,0,0,0,4,3,1,7,0001-00-0001-31.png,0002-00-0001-91.png
00000014,319,0,1449502097469,1449502097513,453,451,0,0,0,1,0,1,1,0004-00-0000-73.png,0005-00-0001-57.png
00000014,320,1,1449502100617,1449502101033,986,463,0,0,0,2,1,1,3,0003-00-0000-28.png,0004-00-0000-90.png
00000014,321,0,1449502101958,1449502102485,921,472,0,0,0,3,4,1,7,0002-00-0000-51.png,0001-00-0000-52.png
00000014,322,0,1449502105375,1449502106216,445,401,0,0,0,2,1,1,3,0003-00-0000-71.png,0004-00-0001-54.png
00000014,323,1,1449502109184,1449502109572,973,452,0,0,0,1,0,1,1,0004-00-0000-83.png,0005-00-0001-67.png
00000014,324,0,1449502110454,1449502110967,861,562,0,0,0,1,2,1,3,0004-00-0000-66.png,0003-00-0001-21.png
00000014,325,1,1449502114103,1449502114716,401,436,0,0,0,0,1,1,1,0005-00-0000-39.png,0004-00-0001-29.png
00000014,326,1,1449502116030,1449502116587,926,552,0,0,0,4,3,1,7,0001-00-0000-21.png,0002-00-0001-77.png
00000014,327,0,1449502117541,1449502118502,900,462,0,0,0,2,3,1,5,0003-00-0001-87.png,0002-00-0000-51.png
00000014,328,0,1449502121375,1449502121830,376,371,0,0,0,3,2,1,5,0002-00-0001-81.png,0003-00-0000-80.png
00000014,329,0,1449502124970,1449502125381,953,434,0,0,0,1,2,1,3,0004-00-0000-63.png,0003-00-0001-34.png
00000014,330,0,1449502128285,1449502128751,970,455,0,0,0,0,1,1,1,0005-00-0001-13.png,0004-00-0001-15.png
00000014,331,1,1449502131675,1449502132163,939,449,0,0,0,3,2,1,5,0002-00-0001-69.png,0003-00-0000-45.png
00000014,332,1,1449502133067,1449502133569,940,476,0,0,0,4,3,1,7,0001-00-0001-93.png,0002-00-0000-59.png
00000014,333,1,1449502134585,1449502135103,909,501,0,0,0,2,1,1,3,0003-00-0000-73.png,0004-00-0000-56.png
00000014,334,0,1449502136159,1449502136623,901,498,0,0,0,3,4,1,7,0002-00-0001-03.png,0001-00-0000-98.png
00000014,335,1,1449502139565,1449502139993,952,450,0,0,0,1,0,1,1,0004-00-0001-52.png,0005-00-0001-59.png
00000014,336,0,1449502140938,1449502141391,901,501,0,0,0,2,3,1,5,0003-00-0001-43.png,0002-00-0001-67.png
00000014,337,0,1449502144534,1449502144859,970,399,0,0,0,0,1,1,1,0005-00-0001-34.png,0004-00-0000-07.png
00000014,338,1,1449502147982,1449502148408,978,456,0,0,0,2,1,1,3,0003-00-0001-73.png,0004-00-0001-56.png
00000014,339,0,1449502149350,1449502149889,918,478,0,0,0,1,2,1,3,0004-00-0001-34.png,0003-00-0000-11.png
00000014,340,0,1449502152863,1449502153409,943,464,0,0,0,3,4,1,7,0002-00-0001-97.png,0001-00-0001-97.png
00000014,341,0,1449502156348,1449502156789,924,536,0,0,0,2,3,1,5,0003-00-0000-72.png,0002-00-0001-47.png
00000014,342,0,1449502159942,1449502160460,413,424,0,0,0,3,2,1,5,0002-00-0001-50.png,0003-00-0000-87.png
00000014,343,1,1449502163552,1449502163932,975,457,0,0,0,1,0,1,1,0004-00-0001-29.png,0005-00-0001-23.png
00000014,344,0,1449502164847,1449502165235,389,450,0,0,0,4,3,1,7,0001-00-0001-52.png,0002-00-0000-96.png
00000014,345,0,1449502168127,1449502168165,519,430,0,0,0,3,2,1,5,0002-00-0001-65.png,0003-00-0000-30.png
00000014,346,0,1449502171235,1449502171661,974,443,0,0,0,0,1,1,1,0005-00-0000-72.png,0004-00-0000-10.png
00000014,347,1,1449502174618,1449502175076,979,442,0,0,0,1,0,1,1,0004-00-0000-57.png,0005-00-0001-18.png
00000014,348,1,1449502175977,1449502176509,914,475,0,0,0,2,1,1,3,0003-00-0000-59.png,0004-00-0000-81.png
00000014,349,0,1449502177559,1449502178452,914,557,0,0,0,1,2,1,3,0004-00-0000-52.png,0003-00-0000-95.png
00000014,350,1,1449502181357,1449502181804,968,490,0,0,0,4,3,1,7,0001-00-0001-15.png,0002-00-0001-64.png
00000014,351,0,1449502182744,1449502183279,925,489,0,0,0,3,4,1,7,0002-00-0001-73.png,0001-00-0001-56.png
00000014,352,0,1449502186296,1449502186719,912,561,0,0,0,2,3,1,5,0003-00-0000-83.png,0002-00-0000-67.png
00000014,353,0,1449502189580,1449502190031,965,449,0,0,0,0,1,1,1,0005-00-0001-73.png,0004-00-0000-72.png
00000014,354,1,1449502192934,1449502193381,962,472,0,0,0,1,0,1,1,0004-00-0000-12.png,0005-00-0000-07.png
00000014,355,1,1449502194262,1449502194686,403,445,0,0,0,1,2,1,3,0004-00-0001-32.png,0003-00-0001-28.png
00000014,356,0,1449502196502,1449502196873,913,462,0,0,0,2,3,1,5,0003-00-0001-71.png,0002-00-0000-46.png
00000014,357,1,1449502199810,1449502200273,965,475,0,0,0,2,1,1,3,0003-00-0000-41.png,0004-00-0000-22.png
00000014,358,0,1449502201212,1449502201765,872,460,0,0,0,3,4,1,7,0002-00-0001-75.png,0001-00-0001-04.png
00000014,359,1,1449502204661,1449502205126,959,499,0,0,0,3,2,1,5,0002-00-0000-42.png,0003-00-0001-44.png
00000014,360,0,1449502206093,1449502206457,431,472,0,0,0,4,3,1,7,0001-00-0000-69.png,0002-00-0001-64.png
00000014,361,0,1449502209541,1449502209947,946,451,0,0,0,1,2,1,3,0004-00-0000-86.png,0003-00-0001-92.png
00000014,362,0,1449502213128,1449502213502,898,536,0,0,0,2,3,1,5,0003-00-0000-70.png,0002-00-0000-44.png
00000014,363,1,1449502216933,1449502217305,986,447,0,0,0,1,0,1,1,0004-00-0001-14.png,0005-00-0001-91.png
00000014,364,1,1449502218570,1449502218966,907,499,0,0,0,3,2,1,5,0002-00-0000-20.png,0003-00-0000-57.png
00000014,365,1,1449502220031,1449502220407,307,445,0,0,0,0,1,1,1,0005-00-0001-70.png,0004-00-0001-13.png
00000014,366,0,1449502221471,1449502221859,401,502,0,0,0,4,3,1,7,0001-00-0001-74.png,0002-00-0001-73.png
00000014,367,1,1449502224941,1449502225337,959,441,0,0,0,2,1,1,3,0003-00-0000-13.png,0004-00-0000-16.png
00000014,368,0,1449502227138,1449502227589,908,473,0,0,0,3,4,1,7,0002-00-0001-74.png,0001-00-0000-36.png
00000014,369,0,1449502230477,1449502230485,478,462,0,0,0,4,3,1,7,0001-00-0001-39.png,0002-00-0001-18.png
00000014,370,1,1449502233391,1449502233866,974,515,0,0,0,2,1,1,3,0003-00-0001-28.png,0004-00-0000-31.png
00000014,371,1,1449502234751,1449502235246,343,407,0,0,0,1,2,1,3,0004-00-0001-37.png,0003-00-0001-64.png
00000014,372,0,1449502236400,1449502236918,908,490,0,0,0,2,3,1,5,0003-00-0000-20.png,0002-00-0000-13.png
00000014,373,0,1449502239779,1449502240207,889,501,0,0,0,0,1,1,1,0005-00-0000-43.png,0004-00-0001-42.png
00000014,374,0,1449502243122,1449502243636,390,412,0,0,0,3,2,1,5,0002-00-0000-91.png,0003-00-0001-32.png
00000014,375,0,1449502246749,1449502247144,964,450,0,0,0,3,4,1,7,0002-00-0000-79.png,0001-00-0001-33.png
00000014,376,1,1449502250228,1449502250675,975,463,0,0,0,1,0,1,1,0004-00-0000-82.png,0005-00-0000-03.png
00000014,377,0,1449502251580,1449502252114,895,484,0,0,0,3,4,1,7,0002-00-0000-54.png,0001-00-0001-83.png
00000014,378,0,1449502255078,1449502255550,899,515,0,0,0,0,1,1,1,0005-00-0000-15.png,0004-00-0001-11.png
00000014,379,1,1449502258647,1449502259062,990,410,0,0,0,1,0,1,1,0004-00-0001-43.png,0005-00-0000-54.png
00000014,380,1,1449502259998,1449502260535,927,493,0,0,0,3,2,1,5,0002-00-0000-13.png,0003-00-0001-62.png
00000014,381,0,1449502261539,1449502261951,401,511,0,0,0,4,3,1,7,0001-00-0000-24.png,0002-00-0000-35.png
00000014,382,0,1449502264907,1449502265338,964,475,0,0,0,2,3,1,5,0003-00-0001-41.png,0002-00-0000-05.png
00000014,383,0,1449502268436,1449502268885,965,475,0,0,0,1,2,1,3,0004-00-0001-87.png,0003-00-0000-34.png
00000014,384,1,1449502272031,1449502272480,975,501,0,0,0,2,1,1,3,0003-00-0000-92.png,0004-00-0001-20.png
00000014,385,0,1449502273873,1449502274686,925,475,0,0,0,1,2,1,3,0004-00-0000-51.png,0003-00-0000-02.png
00000014,386,1,1449502277748,1449502278173,969,452,0,0,0,3,2,1,5,0002-00-0001-16.png,0003-00-0001-22.png
00000014,387,1,1449502279065,1449502279586,901,527,0,0,0,1,0,1,1,0004-00-0001-42.png,0005-00-0000-68.png
00000014,388,1,1449502280599,1449502281132,939,501,0,0,0,4,3,1,7,0001-00-0001-98.png,0002-00-0001-50.png
00000014,389,1,1449502282153,1449502282533,367,454,0,0,0,0,1,1,1,0005-00-0000-38.png,0004-00-0000-14.png
00000014,390,0,1449502283851,1449502284486,955,492,0,0,0,3,4,1,7,0002-00-0001-05.png,0001-00-0000-30.png
00000014,391,1,1449502287456,1449502287910,958,474,0,0,0,2,1,1,3,0003-00-0001-76.png,0004-00-0000-91.png
00000014,392,1,1449502288863,1449502289294,360,461,0,0,0,2,3,1,5,0003-00-0000-57.png,0002-00-0000-71.png
00000014,393,1,1449502290445,1449502290970,900,515,0,0,0,3,2,1,5,0002-00-0000-08.png,0003-00-0000-38.png
00000014,394,0,1449502291973,1449502292325,411,449,0,0,0,2,1,1,3,0003-00-0000-10.png,0004-00-0001-25.png
00000014,395,0,1449502295423,1449502295878,969,504,0,0,0,2,3,1,5,0003-00-0000-14.png,0002-00-0001-88.png
00000014,396,1,1449502298946,1449502299366,957,474,0,0,0,1,0,1,1,0004-00-0000-49.png,0005-00-0001-78.png
00000014,397,1,1449502300266,1449502300814,938,476,0,0,0,4,3,1,7,0001-00-0001-89.png,0002-00-0000-63.png
00000014,398,1,1449502301822,1449502302212,366,477,0,0,0,0,1,1,1,0005-00-0001-53.png,0004-00-0000-18.png
00000014,399,0,1449502303284,1449502303843,904,506,0,0,0,1,2,1,3,0004-00-0000-04.png,0003-00-0000-84.png
00000014,400,0,1449502306716,1449502307160,937,437,0,0,0,3,4,1,7,0002-00-0000-84.png,0001-00-0000-33.png
00000014,401,1,1449502310116,1449502310548,965,449,0,0,0,1,0,1,1,0004-00-0000-85.png,0005-00-0000-12.png
00000014,402,0,1449502311873,1449502312261,408,432,0,0,0,3,2,1,5,0002-00-0000-14.png,0003-00-0001-55.png
00000014,403,1,1449502315159,1449502315590,913,528,0,0,0,4,3,1,7,0001-00-0001-39.png,0002-00-0000-57.png
00000014,404,1,1449502316578,1449502317058,330,513,0,0,0,1,2,1,3,0004-00-0000-76.png,0003-00-0000-46.png
00000014,405,0,1449502318203,1449502318662,873,491,0,0,0,2,3,1,5,0003-00-0000-47.png,0002-00-0000-16.png
00000014,406,1,1449502321520,1449502322205,947,471,0,0,0,2,1,1,3,0003-00-0001-70.png,0004-00-0001-97.png
00000014,407,0,1449502323186,1449502323707,924,483,0,0,0,3,4,1,7,0002-00-0001-82.png,0001-00-0000-64.png
00000014,408,0,1449502326655,1449502327108,950,487,0,0,0,0,1,1,1,0005-00-0001-95.png,0004-00-0001-60.png
00000014,409,1,1449502330068,1449502330512,965,475,0,0,0,1,0,1,1,0004-00-0000-74.png,0005-00-0001-53.png
00000014,410,0,1449502331452,1449502332341,318,426,0,0,0,4,3,1,7,0001-00-0000-89.png,0002-00-0000-43.png
00000014,411,0,1449502335218,1449502335595,900,410,0,0,0,3,4,1,7,0002-00-0000-71.png,0001-00-0001-59.png
00000014,412,0,1449502338650,1449502339174,972,512,0,0,0,1,2,1,3,0004-00-0000-25.png,0003-00-0001-58.png
00000014,413,0,1449502342117,1449502342529,954,492,0,0,0,0,1,1,1,0005-00-0000-36.png,0004-00-0001-30.png
00000014,414,1,1449502345903,1449502346351,994,468,0,0,0,2,1,1,3,0003-00-0001-86.png,0004-00-0001-33.png
00000014,415,1,1449502347331,1449502347888,917,500,0,0,0,3,2,1,5,0002-00-0001-27.png,0003-00-0001-60.png
00000014,416,0,1449502349319,1449502349792,921,523,0,0,0,2,3,1,5,0003-00-0000-55.png,0002-00-0001-55.png
00000014,417,1,1449502352950,1449502353306,959,447,0,0,0,2,1,1,3,0003-00-0001-87.png,0004-00-0001-88.png
00000014,418,1,1449502354288,1449502354664,373,466,0,0,0,0,1,1,1,0005-00-0000-06.png,0004-00-0000-25.png
00000014,419,0,1449502355764,1449502356213,325,462,0,0,0,1,0,1,1,0004-00-0000-29.png,0005-00-0001-34.png
00000014,420,0,1449502359065,1449502359511,955,499,0,0,0,3,4,1,7,0002-00-0001-60.png,0001-00-0000-13.png
00000014,421,1,1449502362849,1449502363244,940,469,0,0,0,4,3,1,7,0001-00-0001-60.png,0002-00-0000-31.png
00000014,422,0,1449502364173,1449502364569,381,486,0,0,0,3,2,1,5,0002-00-0000-98.png,0003-00-0001-57.png
00000014,423,0,1449502367779,1449502368183,968,497,0,0,0,1,2,1,3,0004-00-0000-52.png,0003-00-0001-07.png
00000014,424,0,1449502371030,1449502371490,960,472,0,0,0,2,3,1,5,0003-00-0000-95.png,0002-00-0000-08.png
00000014,425,0,1449502374587,1449502375090,396,389,0,0,0,4,3,1,7,0001-00-0000-64.png,0002-00-0001-30.png
00000014,426,1,1449502377986,1449502378399,977,449,0,0,0,1,0,1,1,0004-00-0000-20.png,0005-00-0000-24.png
00000014,427,0,1449502379458,1449502380044,924,546,0,0,0,3,4,1,7,0002-00-0001-54.png,0001-00-0001-01.png
00000014,428,0,1449502382984,1449502383527,409,470,0,0,0,3,2,1,5,0002-00-0000-76.png,0003-00-0000-34.png
00000014,429,1,1449502386653,1449502387077,957,474,0,0,0,2,1,1,3,0003-00-0000-30.png,0004-00-0001-38.png
00000014,430,0,1449502388054,1449502388603,917,505,0,0,0,0,1,1,1,0005-00-0000-02.png,0004-00-0001-48.png
00000014,431,1,1449502391552,1449502392116,429,534,0,0,0,1,2,1,3,0004-00-0000-56.png,0003-00-0001-49.png
00000014,432,0,1449502393108,1449502393536,900,490,0,0,0,2,3,1,5,0003-00-0000-96.png,0002-00-0000-56.png
00000014,433,1,1449502396562,1449502397042,913,410,0,0,0,3,2,1,5,0002-00-0001-75.png,0003-00-0001-49.png
00000014,434,1,1449502397991,1449502398520,913,502,0,0,0,2,1,1,3,0003-00-0000-32.png,0004-00-0000-50.png
00000014,435,0,1449502399594,1449502399988,313,462,0,0,0,4,3,1,7,0001-00-0001-81.png,0002-00-0001-06.png
00000014,436,1,1449502402952,1449502403506,366,416,0,0,0,3,4,1,7,0002-00-0001-71.png,0001-00-0001-64.png
00000014,437,1,1449502404482,1449502405505,951,437,0,0,0,1,0,1,1,0004-00-0001-18.png,0005-00-0000-04.png
00000014,438,0,1449502407294,1449502407678,942,485,0,0,0,1,2,1,3,0004-00-0000-49.png,0003-00-0001-46.png
00000014,439,0,1449502410692,1449502411142,952,534,0,0,0,0,1,1,1,0005-00-0001-09.png,0004-00-0000-45.png
00000014,440,0,1449502414258,1449502414644,977,449,0,0,0,2,3,1,5,0003-00-0001-76.png,0002-00-0001-17.png
00000014,441,0,1449502417580,1449502418005,927,436,0,0,0,1,2,1,3,0004-00-0000-17.png,0003-00-0001-63.png
00000014,442,1,1449502420999,1449502421632,369,374,0,0,0,0,1,1,1,0005-00-0001-86.png,0004-00-0000-49.png
00000014,443,0,1449502422520,1449502422940,401,488,0,0,0,4,3,1,7,0001-00-0001-38.png,0002-00-0000-38.png
00000014,444,1,1449502425827,1449502426208,1000,388,0,0,0,3,2,1,5,0002-00-0001-03.png,0003-00-0000-57.png
00000014,445,0,1449502427147,1449502427675,925,475,0,0,0,3,4,1,7,0002-00-0001-79.png,0001-00-0000-07.png
00000014,446,1,1449502430598,1449502431053,960,492,0,0,0,1,0,1,1,0004-00-0001-79.png,0005-00-0001-39.png
00000014,447,0,1449502432417,1449502432826,899,483,0,0,0,2,3,1,5,0003-00-0001-59.png,0002-00-0000-39.png
00000014,448,1,1449502435746,1449502436207,951,463,0,0,0,2,1,1,3,0003-00-0001-37.png,0004-00-0000-01.png
00000014,449,0,1449502437168,1449502437582,376,449,0,0,0,3,2,1,5,0002-00-0001-85.png,0003-00-0000-90.png
00000014,450,0,1449502440952,1449502441347,953,495,0,0,0,2,3,1,5,0003-00-0001-45.png,0002-00-0001-16.png
00000014,451,0,1449502444365,1449502445243,488,432,0,0,0,2,1,1,3,0003-00-0000-66.png,0004-00-0000-42.png
00000014,452,0,1449502448336,1449502448697,932,500,0,0,0,0,1,1,1,0005-00-0001-22.png,0004-00-0001-80.png
00000014,453,1,1449502451874,1449502452282,969,508,0,0,0,4,3,1,7,0001-00-0000-32.png,0002-00-0001-07.png
00000014,454,1,1449502453246,1449502453633,420,505,0,0,0,1,2,1,3,0004-00-0000-37.png,0003-00-0000-33.png
00000014,455,0,1449502455105,1449502455548,925,501,0,0,0,3,4,1,7,0002-00-0001-61.png,0001-00-0000-71.png
00000014,456,1,1449502458596,1449502458966,960,448,0,0,0,1,0,1,1,0004-00-0001-85.png,0005-00-0000-08.png
00000014,457,1,1449502459866,1449502460370,939,476,0,0,0,1,0,1,1,0004-00-0000-34.png,0005-00-0001-56.png
00000014,458,0,1449502461904,1449502462459,357,453,0,0,0,4,3,1,7,0001-00-0000-84.png,0002-00-0000-15.png
00000014,459,0,1449502465470,1449502465930,953,487,0,0,0,2,3,1,5,0003-00-0001-61.png,0002-00-0000-15.png
00000014,460,0,1449502468970,1449502469415,965,475,0,0,0,1,2,1,3,0004-00-0001-50.png,0003-00-0001-05.png
00000014,461,0,1449502472297,1449502473274,462,407,0,0,0,3,2,1,5,0002-00-0000-03.png,0003-00-0000-88.png
00000014,462,0,1449502476295,1449502476719,908,388,0,0,0,3,4,1,7,0002-00-0000-30.png,0001-00-0000-95.png
00000014,463,1,1449502479693,1449502480156,997,503,0,0,0,2,1,1,3,0003-00-0001-15.png,0004-00-0001-50.png
00000014,464,1,1449502481588,1449502482020,363,424,0,0,0,0,1,1,1,0005-00-0001-24.png,0004-00-0000-72.png
00000014,465,0,1449502483053,1449502483455,363,474,0,0,0,3,2,1,5,0002-00-0001-85.png,0003-00-0001-32.png
00000014,466,1,1449502486372,1449502486973,427,384,0,0,0,0,1,1,1,0005-00-0001-24.png,0004-00-0000-09.png
00000014,467,0,1449502487915,1449502488438,892,503,0,0,0,2,3,1,5,0003-00-0001-10.png,0002-00-0001-74.png
00000014,468,0,1449502491572,1449502492010,953,493,0,0,0,3,4,1,7,0002-00-0001-72.png,0001-00-0001-79.png
00000014,469,1,1449502495079,1449502495544,966,475,0,0,0,2,1,1,3,0003-00-0000-34.png,0004-00-0000-45.png
00000014,470,0,1449502496502,1449502496950,401,449,0,0,0,4,3,1,7,0001-00-0001-68.png,0002-00-0001-06.png
00000014,471,1,1449502499860,1449502500282,952,453,0,0,0,1,0,1,1,0004-00-0001-59.png,0005-00-0001-56.png
00000014,472,1,1449502501222,1449502501585,376,451,0,0,0,1,2,1,3,0004-00-0001-40.png,0003-00-0001-75.png
00000014,473,1,1449502502640,1449502503175,869,446,0,0,0,2,1,1,3,0003-00-0001-47.png,0004-00-0000-60.png
00000014,474,0,1449502504606,1449502505065,903,492,0,0,0,2,3,1,5,0003-00-0000-71.png,0002-00-0001-15.png
00000014,475,1,1449502508228,1449502508668,968,495,0,0,0,4,3,1,7,0001-00-0000-45.png,0002-00-0000-63.png
00000014,476,1,1449502509659,1449502510190,877,475,0,0,0,3,2,1,5,0002-00-0001-55.png,0003-00-0000-70.png
00000014,477,0,1449502511398,1449502511888,901,516,0,0,0,3,4,1,7,0002-00-0001-92.png,0001-00-0000-06.png
00000014,478,1,1449502514904,1449502515331,976,486,0,0,0,1,0,1,1,0004-00-0001-65.png,0005-00-0000-72.png
00000014,479,0,1449502516298,1449502516808,905,522,0,0,0,0,1,1,1,0005-00-0000-89.png,0004-00-0000-75.png
00000014,480,0,1449502520423,1449502521067,950,482,0,0,0,1,2,1,3,0004-00-0000-68.png,0003-00-0001-65.png
00000014,481,0,1449502523968,1449502524342,935,387,0,0,0,0,1,1,1,0005-00-0001-96.png,0004-00-0001-51.png
00000014,482,0,1449502527569,1449502527998,995,486,0,0,0,3,4,1,7,0002-00-0000-75.png,0001-00-0000-84.png
00000014,483,1,1449502530903,1449502531307,965,475,0,0,0,2,1,1,3,0003-00-0001-33.png,0004-00-0000-04.png
00000014,484,1,1449502532300,1449502532807,925,501,0,0,0,1,0,1,1,0004-00-0000-62.png,0005-00-0000-55.png
00000014,485,0,1449502533897,1449502534404,951,501,0,0,0,2,3,1,5,0003-00-0001-90.png,0002-00-0000-29.png
00000014,486,0,1449502537378,1449502537402,499,455,0,0,0,3,2,1,5,0002-00-0001-73.png,0003-00-0001-86.png
00000014,487,0,1449502540461,1449502541007,401,424,0,0,0,4,3,1,7,0001-00-0001-41.png,0002-00-0001-01.png
00000014,488,1,1449502543953,1449502544582,374,487,0,0,0,1,2,1,3,0004-00-0001-39.png,0003-00-0001-39.png
00000014,489,1,1449502545563,1449502546091,880,454,0,0,0,1,0,1,1,0004-00-0000-08.png,0005-00-0000-47.png
00000014,490,1,1449502547119,1449502548141,920,512,0,0,0,3,2,1,5,0002-00-0000-68.png,0003-00-0000-17.png
00000014,491,1,1449502549174,1449502549562,432,517,0,0,0,2,3,1,5,0003-00-0000-61.png,0002-00-0001-61.png
00000014,492,0,1449502550675,1449502551188,896,498,0,0,0,1,2,1,3,0004-00-0001-09.png,0003-00-0001-93.png
00000014,493,0,1449502554029,1449502554434,969,452,0,0,0,0,1,1,1,0005-00-0000-36.png,0004-00-0000-09.png
00000014,494,0,1449502557512,1449502557917,965,449,0,0,0,3,4,1,7,0002-00-0001-20.png,0001-00-0000-18.png
00000014,495,1,1449502560862,1449502561294,965,492,0,0,0,4,3,1,7,0001-00-0000-81.png,0002-00-0000-85.png
00000014,496,1,1449502562192,1449502562664,890,492,0,0,0,2,1,1,3,0003-00-0001-22.png,0004-00-0001-73.png
00000014,497,0,1449502563695,1449502564082,337,501,0,0,0,2,1,1,3,0003-00-0000-92.png,0004-00-0001-27.png
00000014,498,1,1449502567134,1449502567763,435,420,0,0,0,0,1,1,1,0005-00-0000-70.png,0004-00-0000-36.png
00000014,499,1,1449502569221,1449502569674,378,419,0,0,0,2,3,1,5,0003-00-0001-83.png,0002-00-0001-01.png
00000014,500,1,1449502570871,1449502571794,952,475,0,0,0,3,2,1,5,0002-00-0000-05.png,0003-00-0001-31.png
00000014,501,1,1449502572899,1449502573328,860,502,0,0,0,1,0,1,1,0004-00-0000-14.png,0005-00-0001-98.png
00000014,502,0,1449502574510,1449502574840,317,480,0,0,0,4,3,1,7,0001-00-0001-88.png,0002-00-0001-63.png
00000014,503,0,1449502577967,1449502578409,952,483,0,0,0,1,2,1,3,0004-00-0000-50.png,0003-00-0001-89.png
00000014,504,0,1449502581336,1449502581742,876,449,0,0,0,3,4,1,7,0002-00-0000-65.png,0001-00-0000-07.png
00000014,505,1,1449502584613,1449502585079,350,386,0,0,0,0,1,1,1,0005-00-0000-27.png,0004-00-0000-42.png
00000014,506,0,1449502586533,1449502586957,342,455,0,0,0,4,3,1,7,0001-00-0000-75.png,0002-00-0000-14.png
00000014,507,0,1449502589934,1449502590408,912,554,0,0,0,3,4,1,7,0002-00-0000-32.png,0001-00-0001-33.png
00000014,508,1,1449502593530,1449502593997,977,492,0,0,0,1,0,1,1,0004-00-0000-71.png,0005-00-0001-70.png
00000014,509,0,1449502594944,1449502595469,889,526,0,0,0,2,3,1,5,0003-00-0001-22.png,0002-00-0001-07.png
00000014,510,1,1449502598691,1449502599079,977,501,0,0,0,2,1,1,3,0003-00-0001-67.png,0004-00-0001-17.png
00000014,511,1,1449502600079,1449502600552,921,496,0,0,0,3,2,1,5,0002-00-0000-43.png,0003-00-0000-59.png
00000014,512,1,1449502601683,1449502602038,339,446,0,0,0,1,2,1,3,0004-00-0000-20.png,0003-00-0000-37.png
00000014,513,1,1449502603557,1449502603992,362,410,0,0,0,0,1,1,1,0005-00-0000-37.png,0004-00-0000-19.png
00000014,514,1,1449502605120,1449502605661,871,470,0,0,0,1,0,1,1,0004-00-0000-70.png,0005-00-0001-69.png
00000014,515,1,1449502606699,1449502607163,406,432,0,0,0,1,2,1,3,0004-00-0001-24.png,0003-00-0000-36.png
00000014,516,1,1449502608141,1449502609033,915,527,0,0,0,2,1,1,3,0003-00-0000-40.png,0004-00-0000-78.png
00000014,517,0,1449502610163,1449502610622,900,502,0,0,0,3,4,1,7,0002-00-0001-12.png,0001-00-0000-19.png
00000014,518,1,1449502613588,1449502614045,952,488,0,0,0,3,2,1,5,0002-00-0000-48.png,0003-00-0000-46.png
00000014,519,0,1449502615056,1449502615470,401,462,0,0,0,4,3,1,7,0001-00-0001-55.png,0002-00-0000-22.png
00000014,520,0,1449502618631,1449502619097,971,486,0,0,0,2,3,1,5,0003-00-0000-47.png,0002-00-0001-26.png
00000014,521,0,1449502622186,1449502622579,943,531,0,0,0,2,3,1,5,0003-00-0001-76.png,0002-00-0000-78.png
00000014,522,0,1449502625709,1449502626110,975,457,0,0,0,1,2,1,3,0004-00-0000-41.png,0003-00-0001-83.png
00000014,523,0,1449502629143,1449502629179,497,401,0,0,0,2,1,1,3,0003-00-0001-15.png,0004-00-0001-21.png
00000014,524,0,1449502632121,1449502632540,1016,488,0,0,0,3,4,1,7,0002-00-0000-15.png,0001-00-0001-64.png
00000014,525,1,1449502635433,1449502635837,972,471,0,0,0,3,2,1,5,0002-00-0001-28.png,0003-00-0001-81.png
00000014,526,1,1449502636754,1449502637298,916,519,0,0,0,4,3,1,7,0001-00-0001-57.png,0002-00-0001-75.png
00000014,527,1,1449502638330,1449502638716,401,450,0,0,0,0,1,1,1,0005-00-0000-93.png,0004-00-0001-34.png
00000014,528,1,1449502639795,1449502640289,913,528,0,0,0,1,0,1,1,0004-00-0001-60.png,0005-00-0001-70.png
00000014,529,0,1449502641396,1449502641753,401,514,0,0,0,3,2,1,5,0002-00-0001-42.png,0003-00-0000-16.png
00000014,530,0,1449502647080,1449502647481,926,449,0,0,0,2,3,1,5,0003-00-0001-84.png,0002-00-0001-05.png
00000014,531,1,1449502650350,1449502650814,968,494,0,0,0,1,0,1,1,0004-00-0000-12.png,0005-00-0001-70.png
00000014,532,1,1449502651810,1449502652275,356,461,0,0,0,3,4,1,7,0002-00-0000-39.png,0001-00-0000-35.png
00000014,533,1,1449502653373,1449502653805,888,500,0,0,0,2,1,1,3,0003-00-0001-03.png,0004-00-0000-55.png
00000014,534,1,1449502655311,1449502655681,412,460,0,0,0,1,2,1,3,0004-00-0000-42.png,0003-00-0000-67.png
00000014,535,0,1449502656821,1449502657196,341,480,0,0,0,4,3,1,7,0001-00-0000-23.png,0002-00-0000-26.png
00000014,536,1,1449502660200,1449502660651,337,423,0,0,0,0,1,1,1,0005-00-0000-93.png,0004-00-0000-17.png
00000014,537,1,1449502661629,1449502662114,882,525,0,0,0,2,1,1,3,0003-00-0001-44.png,0004-00-0000-88.png
00000014,538,0,1449502663318,1449502663672,383,482,0,0,0,3,2,1,5,0002-00-0000-12.png,0003-00-0000-94.png
00000014,539,1,1449502666630,1449502667077,972,531,0,0,0,4,3,1,7,0001-00-0000-17.png,0002-00-0001-45.png
00000014,540,1,1449502668111,1449502668585,914,502,0,0,0,1,0,1,1,0004-00-0000-58.png,0005-00-0000-38.png
00000014,541,1,1449502669599,1449502669923,427,493,0,0,0,3,4,1,7,0002-00-0000-13.png,0001-00-0001-19.png
00000014,542,1,1449502671085,1449502671503,361,483,0,0,0,0,1,1,1,0005-00-0000-50.png,0004-00-0000-72.png
00000014,543,0,1449502672930,1449502673404,908,523,0,0,0,2,3,1,5,0003-00-0001-49.png,0002-00-0001-00.png
00000014,544,1,1449502677255,1449502678038,418,402,0,0,0,1,2,1,3,0004-00-0001-74.png,0003-00-0001-68.png
00000014,545,0,1449502679668,1449502680071,410,562,0,0,0,3,2,1,5,0002-00-0000-70.png,0003-00-0000-61.png
00000014,546,1,1449502683017,1449502683428,947,496,0,0,0,2,1,1,3,0003-00-0001-09.png,0004-00-0000-91.png
00000014,547,0,1449502684854,1449502685497,900,475,0,0,0,1,2,1,3,0004-00-0001-98.png,0003-00-0001-46.png
00000014,548,1,1449502688464,1449502689050,387,396,0,0,0,2,3,1,5,0003-00-0000-05.png,0002-00-0000-64.png
00000014,549,0,1449502689962,1449502690390,325,450,0,0,0,4,3,1,7,0001-00-0001-86.png,0002-00-0000-25.png
00000014,550,1,1449502693546,1449502693951,964,462,0,0,0,1,0,1,1,0004-00-0001-30.png,0005-00-0000-94.png
00000014,551,1,1449502694924,1449502695307,376,436,0,0,0,0,1,1,1,0005-00-0000-17.png,0004-00-0000-20.png
00000014,552,0,1449502696568,1449502697082,896,498,0,0,0,3,4,1,7,0002-00-0000-45.png,0001-00-0001-71.png
00000014,553,1,1449502700177,1449502700720,414,423,0,0,0,0,1,1,1,0005-00-0000-49.png,0004-00-0000-19.png
00000014,554,1,1449502701695,1449502702125,376,489,0,0,0,3,4,1,7,0002-00-0001-42.png,0001-00-0001-22.png
00000014,555,1,1449502703220,1449502703710,899,501,0,0,0,2,1,1,3,0003-00-0001-10.png,0004-00-0000-26.png
00000014,556,0,1449502704762,1449502705136,358,472,0,0,0,3,2,1,5,0002-00-0001-67.png,0003-00-0000-04.png
00000014,557,0,1449502708406,1449502708806,947,550,0,0,0,1,2,1,3,0004-00-0000-20.png,0003-00-0000-91.png
00000014,558,1,1449502711914,1449502712334,958,487,0,0,0,1,0,1,1,0004-00-0000-57.png,0005-00-0001-80.png
00000014,559,0,1449502713237,1449502713730,899,501,0,0,0,2,3,1,5,0003-00-0000-42.png,0002-00-0001-00.png
00000014,560,1,1449502717062,1449502717484,970,512,0,0,0,4,3,1,7,0001-00-0001-46.png,0002-00-0000-06.png
00000014,561,0,1449502718459,1449502718987,927,502,0,0,0,2,3,1,5,0003-00-0000-10.png,0002-00-0001-30.png
00000014,562,1,1449502722458,1449502722914,970,544,0,0,0,1,0,1,1,0004-00-0000-39.png,0005-00-0000-29.png
00000014,563,0,1449502723841,1449502724450,907,552,0,0,0,3,4,1,7,0002-00-0000-16.png,0001-00-0001-39.png
00000014,564,0,1449502727486,1449502727523,518,474,0,0,0,3,2,1,5,0002-00-0000-15.png,0003-00-0000-54.png
00000014,565,1,1449502730496,1449502730885,985,499,0,0,0,4,3,1,7,0001-00-0000-06.png,0002-00-0000-44.png
00000014,566,1,1449502731788,1449502732215,374,438,0,0,0,1,2,1,3,0004-00-0000-28.png,0003-00-0000-25.png
00000014,567,1,1449502733276,1449502734244,926,476,0,0,0,2,1,1,3,0003-00-0001-22.png,0004-00-0000-61.png
00000014,568,1,1449502735298,1449502735695,342,454,0,0,0,0,1,1,1,0005-00-0000-23.png,0004-00-0001-75.png
00000014,569,0,1449502736897,1449502737324,427,462,0,0,0,3,2,1,5,0002-00-0001-77.png,0003-00-0001-23.png
00000014,570,1,1449502740346,1449502740922,419,539,0,0,0,0,1,1,1,0005-00-0000-71.png,0004-00-0000-86.png
00000014,571,1,1449502743065,1449502743498,951,516,0,0,0,2,1,1,3,0003-00-0000-98.png,0004-00-0000-52.png
00000014,572,0,1449502744517,1449502744883,375,488,0,0,0,4,3,1,7,0001-00-0001-45.png,0002-00-0001-65.png
00000014,573,1,1449502747820,1449502748224,972,487,0,0,0,1,0,1,1,0004-00-0001-07.png,0005-00-0001-91.png
00000014,574,0,1449502749380,1449502749936,914,546,0,0,0,3,4,1,7,0002-00-0000-99.png,0001-00-0001-37.png
00000014,575,0,1449502753038,1449502753493,993,520,0,0,0,1,2,1,3,0004-00-0001-60.png,0003-00-0001-95.png
00000014,576,0,1449502756376,1449502756803,973,491,0,0,0,2,3,1,5,0003-00-0000-67.png,0002-00-0001-35.png
00000014,577,1,1449502759833,1449502760205,927,384,0,0,0,4,3,1,7,0001-00-0001-18.png,0002-00-0000-76.png
00000014,578,1,1449502761153,1449502761745,926,502,0,0,0,1,0,1,1,0004-00-0000-45.png,0005-00-0001-40.png
00000014,579,0,1449502762779,1449502763405,921,519,0,0,0,1,2,1,3,0004-00-0001-20.png,0003-00-0000-87.png
00000014,580,1,1449502766515,1449502767032,440,410,0,0,0,0,1,1,1,0005-00-0001-80.png,0004-00-0000-03.png
00000014,581,1,1449502767963,1449502768470,898,510,0,0,0,3,2,1,5,0002-00-0001-69.png,0003-00-0001-35.png
00000014,582,1,1449502770080,1449502770607,346,419,0,0,0,2,3,1,5,0003-00-0001-83.png,0002-00-0001-25.png
00000014,583,1,1449502771685,1449502772177,897,497,0,0,0,2,1,1,3,0003-00-0001-40.png,0004-00-0000-39.png
00000014,584,0,1449502773714,1449502774174,899,508,0,0,0,3,4,1,7,0002-00-0000-01.png,0001-00-0001-81.png
00000014,585,1,1449502777079,1449502777511,945,477,0,0,0,1,0,1,1,0004-00-0001-72.png,0005-00-0000-86.png
00000014,586,0,1449502778926,1449502779359,926,502,0,0,0,3,4,1,7,0002-00-0001-06.png,0001-00-0001-76.png
00000014,587,1,1449502782280,1449502782772,973,543,0,0,0,3,2,1,5,0002-00-0000-48.png,0003-00-0000-24.png
00000014,588,0,1449502783791,1449502784305,921,498,0,0,0,1,2,1,3,0004-00-0001-99.png,0003-00-0001-80.png
00000014,589,0,1449502787368,1449502787437,504,498,0,0,0,4,3,1,7,0001-00-0001-52.png,0002-00-0001-42.png
00000014,590,0,1449502790457,1449502790869,984,499,0,0,0,2,3,1,5,0003-00-0000-97.png,0002-00-0000-98.png
00000014,591,1,1449502794234,1449502794580,978,474,0,0,0,2,1,1,3,0003-00-0001-86.png,0004-00-0000-00.png
00000014,592,1,1449502795534,1449502795972,330,491,0,0,0,0,1,1,1,0005-00-0000-93.png,0004-00-0000-52.png
00000014,593,0,1449502797077,1449502797538,913,508,0,0,0,2,3,1,5,0003-00-0000-70.png,0002-00-0000-86.png
00000014,594,0,1449502800943,1449502801439,383,445,0,0,0,4,3,1,7,0001-00-0000-22.png,0002-00-0001-02.png
00000014,595,1,1449502804472,1449502804927,953,496,0,0,0,1,0,1,1,0004-00-0001-76.png,0005-00-0000-61.png
00000014,596,1,1449502805903,1449502806437,929,502,0,0,0,3,2,1,5,0002-00-0001-05.png,0003-00-0001-71.png
00000014,597,0,1449502807492,1449502808066,876,547,0,0,0,3,4,1,7,0002-00-0001-19.png,0001-00-0000-20.png
00000014,598,1,1449502810923,1449502811306,977,436,0,0,0,2,1,1,3,0003-00-0000-07.png,0004-00-0000-12.png
00000014,599,1,1449502812243,1449502812634,325,474,0,0,0,0,1,1,1,0005-00-0001-70.png,0004-00-0000-61.png
00000014,600,0,1449502813763,1449502814294,893,521,0,0,0,1,2,1,3,0004-00-0001-41.png,0003-00-0000-08.png
00000014,601,0,1449502817272,1449502817693,1000,485,0,0,0,3,4,1,7,0002-00-0000-70.png,0001-00-0001-45.png
00000014,602,1,1449502820568,1449502821117,444,428,0,0,0,0,1,1,1,0005-00-0000-26.png,0004-00-0001-38.png
00000014,603,0,1449502822102,1449502822534,337,474,0,0,0,3,2,1,5,0002-00-0001-43.png,0003-00-0001-86.png
00000014,604,0,1449502825420,1449502825836,924,410,0,0,0,2,3,1,5,0003-00-0000-14.png,0002-00-0000-88.png
00000014,605,0,1449502828677,1449502829201,444,391,0,0,0,4,3,1,7,0001-00-0000-40.png,0002-00-0000-70.png
00000014,606,0,1449502832069,1449502832495,904,533,0,0,0,1,2,1,3,0004-00-0000-32.png,0003-00-0000-49.png
00000014,607,1,1449502835728,1449502836115,912,554,0,0,0,2,1,1,3,0003-00-0000-15.png,0004-00-0001-84.png
00000014,608,1,1449502837029,1449502837531,918,491,0,0,0,1,0,1,1,0004-00-0000-62.png,0005-00-0000-83.png
00000014,609,0,1449502838642,1449502839043,343,479,0,0,0,4,3,1,7,0001-00-0001-34.png,0002-00-0000-35.png
00000014,610,0,1449502842028,1449502842494,985,496,0,0,0,2,3,1,5,0003-00-0001-32.png,0002-00-0000-50.png
00000014,611,1,1449502845356,1449502845735,939,475,0,0,0,1,0,1,1,0004-00-0000-31.png,0005-00-0000-27.png
00000014,612,1,1449502846786,1449502847330,931,520,0,0,0,2,1,1,3,0003-00-0000-54.png,0004-00-0000-38.png
00000014,613,1,1449502848350,1449502848713,414,488,0,0,0,0,1,1,1,0005-00-0001-92.png,0004-00-0000-66.png
00000014,614,1,1449502849862,1449502850499,926,517,0,0,0,3,2,1,5,0002-00-0000-54.png,0003-00-0001-51.png
00000014,615,0,1449502851587,1449502852102,909,526,0,0,0,3,4,1,7,0002-00-0000-68.png,0001-00-0001-05.png
00000014,616,0,1449502855079,1449502855526,971,507,0,0,0,1,2,1,3,0004-00-0000-49.png,0003-00-0000-68.png
00000014,617,0,1449502858394,1449502858741,995,425,0,0,0,0,1,1,1,0005-00-0000-69.png,0004-00-0001-74.png
00000014,618,0,1449502861679,1449502861703,516,451,0,0,0,3,2,1,5,0002-00-0001-12.png,0003-00-0001-13.png
00000014,619,0,1449502865045,1449502865587,357,419,0,0,0,4,3,1,7,0001-00-0001-34.png,0002-00-0000-94.png
00000014,620,1,1449502868685,1449502869047,930,402,0,0,0,1,0,1,1,0004-00-0000-17.png,0005-00-0000-34.png
00000014,621,1,1449502869962,1449502870361,350,476,0,0,0,1,2,1,3,0004-00-0001-78.png,0003-00-0000-28.png
00000014,622,1,1449502871436,1449502871983,900,501,0,0,0,2,1,1,3,0003-00-0001-58.png,0004-00-0000-72.png
00000014,623,0,1449502873044,1449502873531,917,508,0,0,0,2,3,1,5,0003-00-0000-07.png,0002-00-0001-41.png
00000014,624,0,1449502876612,1449502877049,947,472,0,0,0,3,4,1,7,0002-00-0001-28.png,0001-00-0000-86.png
00000014,625,1,1449502880133,1449502880659,441,390,0,0,0,0,1,1,1,0005-00-0001-23.png,0004-00-0001-56.png
00000014,626,0,1449502881586,1449502882002,392,482,0,0,0,4,3,1,7,0001-00-0000-35.png,0002-00-0001-77.png
00000014,627,0,1449502884985,1449502885425,961,491,0,0,0,1,2,1,3,0004-00-0001-25.png,0003-00-0001-72.png
00000014,628,0,1449502888422,1449502888438,515,497,0,0,0,2,1,1,3,0003-00-0000-05.png,0004-00-0001-75.png
00000014,629,1,1449502891279,1449502891687,958,468,0,0,0,3,2,1,5,0002-00-0001-75.png,0003-00-0000-74.png
00000014,630,0,1449502892667,1449502893127,924,508,0,0,0,2,3,1,5,0003-00-0000-18.png,0002-00-0000-15.png
00000014,631,1,1449502896143,1449502896549,976,493,0,0,0,1,0,1,1,0004-00-0001-85.png,0005-00-0000-59.png
00000014,632,1,1449502897547,1449502897940,427,501,0,0,0,3,4,1,7,0002-00-0000-00.png,0001-00-0000-57.png
00000014,633,0,1449502898939,1449502899502,915,519,0,0,0,3,4,1,7,0002-00-0001-85.png,0001-00-0000-08.png
00000014,634,1,1449502902595,1449502903031,951,496,0,0,0,4,3,1,7,0001-00-0001-46.png,0002-00-0000-18.png
00000014,635,1,1449502903953,1449502904357,364,468,0,0,0,0,1,1,1,0005-00-0001-07.png,0004-00-0001-09.png
00000014,636,1,1449502905401,1449502905935,913,502,0,0,0,3,2,1,5,0002-00-0001-74.png,0003-00-0001-55.png
00000014,637,1,1449502906984,1449502907423,336,475,0,0,0,1,2,1,3,0004-00-0000-32.png,0003-00-0000-69.png
00000014,638,1,1449502908494,1449502909018,916,526,0,0,0,1,0,1,1,0004-00-0001-92.png,0005-00-0000-87.png
00000014,639,1,1449502910131,1449502910598,867,481,0,0,0,2,1,1,3,0003-00-0001-16.png,0004-00-0000-07.png
00000014,640,1,1449502911701,1449502912037,376,505,0,0,0,2,3,1,5,0003-00-0000-07.png,0002-00-0001-26.png
00000014,641,1,1449502913201,1449502913681,907,514,0,0,0,1,0,1,1,0004-00-0001-94.png,0005-00-0000-30.png
00000014,642,0,1449502914757,1449502915153,427,489,0,0,0,2,1,1,3,0003-00-0001-14.png,0004-00-0001-31.png
00000014,643,0,1449502918329,1449502918988,919,451,0,0,0,3,4,1,7,0002-00-0001-02.png,0001-00-0001-54.png
00000014,644,0,1449502922017,1449502922481,934,446,0,0,0,0,1,1,1,0005-00-0000-71.png,0004-00-0000-31.png
00000014,645,0,1449502925549,1449502925979,926,518,0,0,0,2,3,1,5,0003-00-0001-87.png,0002-00-0000-43.png
00000014,646,1,1449502929182,1449502929655,952,502,0,0,0,3,2,1,5,0002-00-0000-56.png,0003-00-0001-69.png
00000014,647,0,1449502930616,1449502931003,401,488,0,0,0,4,3,1,7,0001-00-0001-42.png,0002-00-0001-03.png
00000014,648,1,1449502933890,1449502933938,503,518,0,0,0,1,2,1,3,0004-00-0000-40.png,0003-00-0000-59.png
00000014,649,0,1449502934886,1449502935278,367,479,0,0,0,4,3,1,7,0001-00-0000-13.png,0002-00-0000-64.png
00000014,650,0,1449502938362,1449502938820,926,488,0,0,0,1,2,1,3,0004-00-0001-71.png,0003-00-0001-15.png
00000014,651,0,1449502941872,1449502942280,939,469,0,0,0,3,4,1,7,0002-00-0001-69.png,0001-00-0000-04.png
00000014,652,1,1449502945241,1449502945796,365,389,0,0,0,0,1,1,1,0005-00-0000-57.png,0004-00-0001-93.png
00000014,653,1,1449502946788,1449502947337,919,522,0,0,0,3,2,1,5,0002-00-0000-18.png,0003-00-0000-27.png
00000014,654,1,1449502948332,1449502948714,355,484,0,0,0,2,3,1,5,0003-00-0000-05.png,0002-00-0000-18.png
00000014,655,1,1449502949821,1449502950796,928,472,0,0,0,1,0,1,1,0004-00-0000-16.png,0005-00-0000-88.png
00000014,656,0,1449502951814,1449502952200,337,501,0,0,0,2,1,1,3,0003-00-0000-68.png,0004-00-0001-24.png
00000014,657,0,1449502955159,1449502955602,934,499,0,0,0,1,2,1,3,0004-00-0001-51.png,0003-00-0001-60.png
00000014,658,0,1449502958653,1449502959108,975,487,0,0,0,3,4,1,7,0002-00-0001-36.png,0001-00-0001-56.png
00000014,659,0,1449502962214,1449502962625,953,467,0,0,0,2,3,1,5,0003-00-0001-71.png,0002-00-0000-08.png
00000014,660,1,1449502965684,1449502966160,979,538,0,0,0,3,2,1,5,0002-00-0001-14.png,0003-00-0000-11.png
00000014,661,1,1449502967510,1449502967964,356,463,0,0,0,0,1,1,1,0005-00-0001-13.png,0004-00-0000-24.png
00000014,662,1,1449502969140,1449502969601,872,520,0,0,0,4,3,1,7,0001-00-0001-95.png,0002-00-0001-17.png
00000014,663,1,1449502970631,1449502971112,897,498,0,0,0,2,1,1,3,0003-00-0000-96.png,0004-00-0000-59.png
00000014,664,0,1449502972225,1449502972564,416,487,0,0,0,1,0,1,1,0004-00-0001-82.png,0005-00-0000-07.png
00000014,665,0,1449502975595,1449502976173,888,447,0,0,0,3,4,1,7,0002-00-0001-14.png,0001-00-0000-52.png
00000014,666,1,1449502979122,1449502979559,988,490,0,0,0,3,2,1,5,0002-00-0000-50.png,0003-00-0000-65.png
00000014,667,1,1449502980454,1449502980876,399,562,0,0,0,0,1,1,1,0005-00-0000-49.png,0004-00-0000-07.png
00000014,668,1,1449502981841,1449502982367,889,486,0,0,0,1,0,1,1,0004-00-0000-98.png,0005-00-0001-70.png
00000014,669,1,1449502983501,1449502983808,427,462,0,0,0,2,3,1,5,0003-00-0001-76.png,0002-00-0000-80.png
00000014,670,1,1449502984814,1449502985321,903,473,0,0,0,2,1,1,3,0003-00-0001-13.png,0004-00-0000-68.png
00000014,671,1,1449502986390,1449502986682,407,498,0,0,0,1,2,1,3,0004-00-0000-47.png,0003-00-0001-10.png
00000014,672,0,1449502987678,1449502988033,398,471,0,0,0,4,3,1,7,0001-00-0000-25.png,0002-00-0001-03.png
00000014,673,1,1449502990888,1449502991304,951,474,0,0,0,3,2,1,5,0002-00-0001-95.png,0003-00-0000-29.png
00000014,674,1,1449502992304,1449502992775,317,498,0,0,0,0,1,1,1,0005-00-0000-42.png,0004-00-0001-25.png
00000014,675,0,1449502993852,1449502994324,903,502,0,0,0,2,3,1,5,0003-00-0001-20.png,0002-00-0000-05.png
00000014,676,1,1449502997209,1449502997625,977,489,0,0,0,2,1,1,3,0003-00-0001-43.png,0004-00-0001-41.png
00000014,677,0,1449502998610,1449502999037,408,490,0,0,0,4,3,1,7,0001-00-0000-94.png,0002-00-0001-10.png
00000014,678,0,1449503001897,1449503002343,950,484,0,0,0,1,2,1,3,0004-00-0000-47.png,0003-00-0001-33.png
00000014,679,1,1449503005508,1449503005908,951,490,0,0,0,1,0,1,1,0004-00-0000-57.png,0005-00-0001-17.png
00000014,680,0,1449503006941,1449503007417,899,501,0,0,0,3,4,1,7,0002-00-0000-61.png,0001-00-0001-49.png
00000014,681,1,1449503010719,1449503011123,966,510,0,0,0,1,0,1,1,0004-00-0000-03.png,0005-00-0001-09.png
00000014,682,1,1449503012068,1449503012533,373,467,0,0,0,1,2,1,3,0004-00-0001-22.png,0003-00-0001-14.png
00000014,683,1,1449503013759,1449503014131,348,480,0,0,0,0,1,1,1,0005-00-0000-16.png,0004-00-0000-31.png
00000014,684,0,1449503015201,1449503015828,376,553,0,0,0,2,1,1,3,0003-00-0001-01.png,0004-00-0000-46.png
00000014,685,0,1449503018919,1449503019284,978,462,0,0,0,2,3,1,5,0003-00-0001-17.png,0002-00-0001-42.png
00000014,686,0,1449503022246,1449503022766,495,428,0,0,0,3,2,1,5,0002-00-0001-43.png,0003-00-0000-54.png
00000014,687,1,1449503025901,1449503026345,995,477,0,0,0,4,3,1,7,0001-00-0001-92.png,0002-00-0000-12.png
00000014,688,0,1449503027322,1449503027813,949,509,0,0,0,3,4,1,7,0002-00-0000-97.png,0001-00-0001-09.png
00000014,689,1,1449503030759,1449503031234,427,462,0,0,0,0,1,1,1,0005-00-0000-82.png,0004-00-0000-00.png
00000014,690,1,1449503032235,1449503032728,898,484,0,0,0,2,1,1,3,0003-00-0001-21.png,0004-00-0000-90.png
00000014,691,1,1449503033798,1449503034191,390,502,0,0,0,2,3,1,5,0003-00-0001-82.png,0002-00-0001-79.png
00000014,692,0,1449503035323,1449503035883,889,527,0,0,0,1,2,1,3,0004-00-0001-18.png,0003-00-0001-81.png
00000014,693,1,1449503038992,1449503039399,947,444,0,0,0,3,2,1,5,0002-00-0001-36.png,0003-00-0000-78.png
00000014,694,0,1449503040337,1449503040726,440,463,0,0,0,4,3,1,7,0001-00-0000-93.png,0002-00-0001-93.png
00000014,695,0,1449503043801,1449503044216,875,554,0,0,0,3,4,1,7,0002-00-0001-59.png,0001-00-0001-58.png
00000014,696,1,1449503047090,1449503047507,942,484,0,0,0,1,0,1,1,0004-00-0001-59.png,0005-00-0000-54.png
00000014,697,0,1449503048464,1449503048988,388,445,0,0,0,3,2,1,5,0002-00-0000-08.png,0003-00-0001-61.png
00000014,698,1,1449503052126,1449503052637,940,515,0,0,0,4,3,1,7,0001-00-0000-81.png,0002-00-0000-10.png
00000014,699,0,1449503053549,1449503054051,901,503,0,0,0,3,4,1,7,0002-00-0001-09.png,0001-00-0000-06.png
00000014,700,0,1449503056883,1449503057314,940,475,0,0,0,0,1,1,1,0005-00-0001-67.png,0004-00-0001-27.png
00000014,701,0,1449503060147,1449503060576,951,490,0,0,0,2,3,1,5,0003-00-0000-52.png,0002-00-0001-35.png
00000014,702,1,1449503063711,1449503064134,976,527,0,0,0,1,0,1,1,0004-00-0001-16.png,0005-00-0000-72.png
00000014,703,0,1449503065031,1449503065470,339,449,0,0,0,2,1,1,3,0003-00-0001-47.png,0004-00-0001-28.png
00000014,704,0,1449503068592,1449503069074,966,520,0,0,0,1,2,1,3,0004-00-0001-73.png,0003-00-0000-45.png
00000014,705,1,1449503072047,1449503072465,977,462,0,0,0,4,3,1,7,0001-00-0000-89.png,0002-00-0000-12.png
00000014,706,1,1449503073383,1449503073857,913,478,0,0,0,2,1,1,3,0003-00-0000-26.png,0004-00-0001-65.png
00000014,707,1,1449503074896,1449503075243,393,480,0,0,0,0,1,1,1,0005-00-0001-44.png,0004-00-0001-47.png
00000014,708,0,1449503076301,1449503076733,904,521,0,0,0,1,2,1,3,0004-00-0000-74.png,0003-00-0001-03.png
00000014,709,1,1449503079647,1449503080588,942,547,0,0,0,3,2,1,5,0002-00-0001-39.png,0003-00-0001-52.png
00000014,710,0,1449503081508,1449503081959,898,508,0,0,0,2,3,1,5,0003-00-0001-95.png,0002-00-0001-94.png
00000014,711,1,1449503085125,1449503085585,951,490,0,0,0,1,0,1,1,0004-00-0000-04.png,0005-00-0001-95.png
00000014,712,0,1449503086982,1449503087826,925,475,0,0,0,3,4,1,7,0002-00-0001-28.png,0001-00-0000-27.png
00000014,713,1,1449503091260,1449503091703,905,479,0,0,0,4,3,1,7,0001-00-0000-51.png,0002-00-0001-63.png
00000014,714,1,1449503092689,1449503093255,925,491,0,0,0,3,2,1,5,0002-00-0000-42.png,0003-00-0001-39.png
00000014,715,0,1449503094420,1449503094873,895,523,0,0,0,1,2,1,3,0004-00-0001-56.png,0003-00-0001-37.png
00000014,716,1,1449503097899,1449503097915,488,484,0,0,0,3,4,1,7,0002-00-0000-25.png,0001-00-0001-07.png
00000014,717,1,1449503098903,1449503099290,350,455,0,0,0,0,1,1,1,0005-00-0001-90.png,0004-00-0000-34.png
00000014,718,1,1449503100701,1449503101115,898,484,0,0,0,1,0,1,1,0004-00-0001-67.png,0005-00-0000-82.png
00000014,719,1,1449503102173,1449503102662,936,495,0,0,0,2,1,1,3,0003-00-0001-17.png,0004-00-0000-67.png
00000014,720,0,1449503103818,1449503104306,870,497,0,0,0,2,3,1,5,0003-00-0000-61.png,0002-00-0001-57.png
00000014,721,1,1449503107231,1449503107978,943,504,0,0,0,2,1,1,3,0003-00-0001-07.png,0004-00-0001-32.png
00000014,722,1,1449503108911,1449503109343,350,450,0,0,0,0,1,1,1,0005-00-0001-20.png,0004-00-0001-65.png
00000014,723,0,1449503110328,1449503111297,902,519,0,0,0,3,4,1,7,0002-00-0001-52.png,0001-00-0000-38.png
00000014,724,0,1449503114288,1449503114674,939,475,0,0,0,1,2,1,3,0004-00-0001-67.png,0003-00-0000-96.png
00000014,725,1,1449503117705,1449503118199,968,493,0,0,0,1,0,1,1,0004-00-0000-95.png,0005-00-0001-40.png
00000014,726,0,1449503119860,1449503120294,900,527,0,0,0,2,3,1,5,0003-00-0001-27.png,0002-00-0001-92.png
00000014,727,0,1449503124324,1449503124767,410,393,0,0,0,4,3,1,7,0001-00-0001-31.png,0002-00-0000-42.png
00000014,728,1,1449503127844,1449503128305,949,516,0,0,0,3,2,1,5,0002-00-0001-43.png,0003-00-0001-23.png
00000014,729,0,1449503129619,1449503130307,921,512,0,0,0,1,2,1,3,0004-00-0000-93.png,0003-00-0000-97.png
00000014,730,0,1449503133209,1449503133652,973,523,0,0,0,0,1,1,1,0005-00-0001-54.png,0004-00-0000-67.png
00000014,731,1,1449503136537,1449503136967,950,482,0,0,0,1,0,1,1,0004-00-0001-76.png,0005-00-0000-95.png
00000014,732,0,1449503137886,1449503138297,422,470,0,0,0,3,2,1,5,0002-00-0001-62.png,0003-00-0000-35.png
00000014,733,0,1449503141410,1449503141864,972,492,0,0,0,2,3,1,5,0003-00-0001-96.png,0002-00-0000-52.png
00000014,734,0,1449503144718,1449503145158,963,504,0,0,0,3,4,1,7,0002-00-0000-20.png,0001-00-0000-17.png
00000014,735,1,1449503148217,1449503148652,913,410,0,0,0,2,1,1,3,0003-00-0000-11.png,0004-00-0000-42.png
00000014,736,0,1449503150001,1449503150422,345,460,0,0,0,4,3,1,7,0001-00-0001-09.png,0002-00-0001-72.png
00000014,737,0,1449503153592,1449503154088,950,510,0,0,0,0,1,1,1,0005-00-0001-50.png,0004-00-0001-17.png
00000014,738,1,1449503157210,1449503157617,898,405,0,0,0,1,0,1,1,0004-00-0000-64.png,0005-00-0000-96.png
00000014,739,0,1449503158648,1449503159105,919,507,0,0,0,2,3,1,5,0003-00-0000-54.png,0002-00-0001-78.png
00000014,740,1,1449503162299,1449503162691,973,474,0,0,0,2,1,1,3,0003-00-0001-04.png,0004-00-0000-78.png
00000014,741,1,1449503163631,1449503164211,905,522,0,0,0,4,3,1,7,0001-00-0000-14.png,0002-00-0001-58.png
00000014,742,1,1449503165187,1449503165694,862,478,0,0,0,3,2,1,5,0002-00-0000-54.png,0003-00-0001-48.png
00000014,743,0,1449503166720,1449503167196,905,506,0,0,0,1,2,1,3,0004-00-0001-59.png,0003-00-0000-38.png
00000014,744,0,1449503170158,1449503170575,973,491,0,0,0,3,4,1,7,0002-00-0000-41.png,0001-00-0001-07.png
00000014,745,0,1449503173708,1449503174142,978,484,0,0,0,3,4,1,7,0002-00-0001-17.png,0001-00-0001-29.png
00000014,746,0,1449503177505,1449503177947,338,371,0,0,0,4,3,1,7,0001-00-0000-69.png,0002-00-0000-59.png
00000014,747,1,1449503180901,1449503181419,441,462,0,0,0,2,3,1,5,0003-00-0001-89.png,0002-00-0000-65.png
00000014,748,1,1449503182751,1449503183445,931,427,0,0,0,3,2,1,5,0002-00-0001-14.png,0003-00-0001-47.png
00000014,749,1,1449503184490,1449503184892,415,462,0,0,0,1,2,1,3,0004-00-0001-27.png,0003-00-0000-37.png
00000014,750,0,1449503186011,1449503186568,934,525,0,0,0,0,1,1,1,0005-00-0001-97.png,0004-00-0000-19.png
00000014,751,1,1449503189601,1449503190044,965,488,0,0,0,2,1,1,3,0003-00-0001-83.png,0004-00-0001-72.png
00000014,752,0,1449503191445,1449503191872,401,457,0,0,0,1,0,1,1,0004-00-0001-13.png,0005-00-0000-40.png
00000014,753,1,1449503194765,1449503195316,382,453,0,0,0,0,1,1,1,0005-00-0000-86.png,0004-00-0001-36.png
00000014,754,0,1449503196360,1449503196759,375,498,0,0,0,1,0,1,1,0004-00-0000-03.png,0005-00-0001-08.png
00000014,755,1,1449503199908,1449503200299,990,449,0,0,0,2,1,1,3,0003-00-0001-82.png,0004-00-0001-97.png
00000014,756,0,1449503201734,1449503202179,920,507,0,0,0,2,3,1,5,0003-00-0001-96.png,0002-00-0000-62.png
00000014,757,0,1449503205106,1449503205661,355,454,0,0,0,4,3,1,7,0001-00-0001-20.png,0002-00-0001-26.png
00000014,758,0,1449503208574,1449503209025,998,497,0,0,0,3,4,1,7,0002-00-0001-22.png,0001-00-0001-19.png
00000014,759,0,1449503212051,1449503212465,980,454,0,0,0,1,2,1,3,0004-00-0000-21.png,0003-00-0000-78.png
00000014,760,1,1449503215392,1449503215913,951,500,0,0,0,3,2,1,5,0002-00-0000-41.png,0003-00-0001-03.png
00000014,761,0,1449503216895,1449503217293,401,501,0,0,0,3,2,1,5,0002-00-0001-06.png,0003-00-0001-33.png
00000014,762,0,1449503220300,1449503220731,913,555,0,0,0,2,3,1,5,0003-00-0001-82.png,0002-00-0001-67.png
00000014,763,0,1449503223640,1449503224077,983,474,0,0,0,0,1,1,1,0005-00-0000-91.png,0004-00-0001-35.png
00000014,764,1,1449503227240,1449503227656,995,507,0,0,0,2,1,1,3,0003-00-0001-92.png,0004-00-0001-02.png
00000014,765,0,1449503228611,1449503229001,401,488,0,0,0,4,3,1,7,0001-00-0001-31.png,0002-00-0001-46.png
00000014,766,0,1449503231951,1449503232429,950,509,0,0,0,1,2,1,3,0004-00-0001-21.png,0003-00-0001-11.png
00000014,767,1,1449503235417,1449503235866,980,517,0,0,0,1,0,1,1,0004-00-0001-27.png,0005-00-0000-75.png
00000014,768,1,1449503236835,1449503237245,398,497,0,0,0,3,4,1,7,0002-00-0000-22.png,0001-00-0000-87.png
00000014,769,0,1449503238366,1449503238885,889,475,0,0,0,1,2,1,3,0004-00-0000-82.png,0003-00-0001-76.png
00000014,770,1,1449503241920,1449503242381,948,444,0,0,0,3,2,1,5,0002-00-0001-84.png,0003-00-0000-86.png
00000014,771,0,1449503243361,1449503243795,901,483,0,0,0,2,3,1,5,0003-00-0001-67.png,0002-00-0000-88.png
00000014,772,1,1449503247095,1449503247709,363,433,0,0,0,0,1,1,1,0005-00-0000-32.png,0004-00-0000-18.png
00000014,773,0,1449503248667,1449503249084,453,475,0,0,0,1,0,1,1,0004-00-0000-66.png,0005-00-0001-11.png
00000014,774,0,1449503251934,1449503252345,897,418,0,0,0,3,4,1,7,0002-00-0001-62.png,0001-00-0001-64.png
00000014,775,1,1449503255780,1449503256205,993,503,0,0,0,4,3,1,7,0001-00-0000-37.png,0002-00-0001-59.png
00000014,776,1,1449503257235,1449503257724,922,503,0,0,0,2,1,1,3,0003-00-0000-97.png,0004-00-0000-15.png
00000014,777,1,1449503258856,1449503259196,393,480,0,0,0,0,1,1,1,0005-00-0000-86.png,0004-00-0001-54.png
00000014,778,0,1449503260322,1449503260697,419,505,0,0,0,3,2,1,5,0002-00-0000-21.png,0003-00-0001-93.png
00000014,779,1,1449503263784,1449503264206,955,483,0,0,0,1,0,1,1,0004-00-0001-81.png,0005-00-0001-82.png
00000014,780,1,1449503265181,1449503265677,903,493,0,0,0,4,3,1,7,0001-00-0001-33.png,0002-00-0001-34.png
00000014,781,1,1449503266765,1449503267242,874,501,0,0,0,2,1,1,3,0003-00-0001-50.png,0004-00-0001-88.png
00000014,782,1,1449503268432,1449503268838,344,435,0,0,0,1,2,1,3,0004-00-0000-60.png,0003-00-0000-40.png
00000014,783,0,1449503269996,1449503270512,906,516,0,0,0,3,4,1,7,0002-00-0001-34.png,0001-00-0001-72.png
00000014,784,0,1449503273641,1449503274042,953,494,0,0,0,2,3,1,5,0003-00-0001-21.png,0002-00-0001-47.png
00000014,785,1,1449503276910,1449503277335,938,476,0,0,0,1,0,1,1,0004-00-0001-42.png,0005-00-0000-48.png
00000014,786,0,1449503278322,1449503278870,895,497,0,0,0,3,4,1,7,0002-00-0001-24.png,0001-00-0001-85.png
00000014,787,0,1449503282044,1449503282444,927,528,0,0,0,0,1,1,1,0005-00-0001-54.png,0004-00-0001-61.png
00000014,788,0,1449503285460,1449503285913,957,455,0,0,0,1,2,1,3,0004-00-0001-61.png,0003-00-0001-00.png
00000014,789,0,1449503289175,1449503289731,476,413,0,0,0,2,1,1,3,0003-00-0001-76.png,0004-00-0000-74.png
00000014,790,1,1449503292776,1449503293218,984,542,0,0,0,4,3,1,7,0001-00-0001-72.png,0002-00-0001-54.png
00000014,791,0,1449503294193,1449503294635,888,502,0,0,0,2,3,1,5,0003-00-0001-67.png,0002-00-0001-14.png
00000014,792,1,1449503297503,1449503297972,977,466,0,0,0,3,2,1,5,0002-00-0000-26.png,0003-00-0000-38.png
00000014,793,0,1449503299038,1449503299550,899,491,0,0,0,1,2,1,3,0004-00-0001-34.png,0003-00-0000-63.png
00000014,794,1,1449503303107,1449503303568,947,499,0,0,0,1,0,1,1,0004-00-0000-08.png,0005-00-0000-82.png
00000014,795,0,1449503304625,1449503305079,401,566,0,0,0,4,3,1,7,0001-00-0000-63.png,0002-00-0001-77.png
00000014,796,1,1449503307965,1449503308400,979,464,0,0,0,2,1,1,3,0003-00-0000-49.png,0004-00-0001-51.png
00000014,797,1,1449503309365,1449503309765,401,490,0,0,0,2,3,1,5,0003-00-0001-70.png,0002-00-0000-86.png
00000014,798,1,1449503310945,1449503311342,376,476,0,0,0,0,1,1,1,0005-00-0000-44.png,0004-00-0001-36.png
00000014,799,0,1449503312453,1449503312891,362,514,0,0,0,3,2,1,5,0002-00-0000-15.png,0003-00-0001-49.png
00000014,800,0,1449503316321,1449503316745,977,518,0,0,0,3,4,1,7,0002-00-0001-73.png,0001-00-0000-62.png
00000014,801,1,1449503319669,1449503320049,951,476,0,0,0,2,1,1,3,0003-00-0000-22.png,0004-00-0000-01.png
00000014,802,0,1449503321111,1449503321613,926,515,0,0,0,3,4,1,7,0002-00-0001-26.png,0001-00-0000-62.png
00000014,803,0,1449503324897,1449503325364,976,533,0,0,0,1,2,1,3,0004-00-0001-47.png,0003-00-0001-80.png
00000014,804,1,1449503328366,1449503328821,951,501,0,0,0,3,2,1,5,0002-00-0000-30.png,0003-00-0000-56.png
00000014,805,1,1449503329870,1449503330322,375,455,0,0,0,0,1,1,1,0005-00-0001-60.png,0004-00-0000-01.png
00000014,806,1,1449503331441,1449503332310,889,448,0,0,0,1,0,1,1,0004-00-0000-41.png,0005-00-0000-75.png
00000014,807,0,1449503333528,1449503334022,892,525,0,0,0,2,3,1,5,0003-00-0001-15.png,0002-00-0001-14.png
00000014,808,0,1449503336983,1449503337825,422,488,0,0,0,4,3,1,7,0001-00-0000-13.png,0002-00-0001-53.png
00000014,809,1,1449503340742,1449503341160,970,512,0,0,0,2,1,1,3,0003-00-0000-99.png,0004-00-0001-30.png
00000014,810,1,1449503342214,1449503342586,369,461,0,0,0,0,1,1,1,0005-00-0000-34.png,0004-00-0001-51.png
00000014,811,1,1449503343706,1449503344116,388,488,0,0,0,1,2,1,3,0004-00-0001-76.png,0003-00-0001-82.png
00000014,812,0,1449503345472,1449503345932,862,501,0,0,0,3,4,1,7,0002-00-0001-92.png,0001-00-0000-18.png
00000014,813,1,1449503348823,1449503349269,948,470,0,0,0,1,0,1,1,0004-00-0000-99.png,0005-00-0001-47.png
00000014,814,0,1449503350282,1449503350664,378,477,0,0,0,4,3,1,7,0001-00-0000-80.png,0002-00-0001-35.png
00000014,815,0,1449503353692,1449503354111,945,503,0,0,0,2,3,1,5,0003-00-0000-57.png,0002-00-0000-96.png
00000014,816,1,1449503357143,1449503357607,959,500,0,0,0,3,2,1,5,0002-00-0000-89.png,0003-00-0000-48.png
00000014,817,0,1449503359059,1449503359577,900,501,0,0,0,2,3,1,5,0003-00-0000-18.png,0002-00-0000-88.png
00000014,818,1,1449503362633,1449503363061,958,469,0,0,0,2,1,1,3,0003-00-0000-64.png,0004-00-0000-96.png
00000014,819,1,1449503364227,1449503364662,363,462,0,0,0,1,2,1,3,0004-00-0000-05.png,0003-00-0000-49.png
00000014,820,1,1449503365882,1449503366448,919,503,0,0,0,1,0,1,1,0004-00-0001-85.png,0005-00-0001-80.png
00000014,821,1,1449503368342,1449503368863,924,484,0,0,0,3,2,1,5,0002-00-0001-41.png,0003-00-0000-49.png
00000014,822,0,1449503369986,1449503370435,927,495,0,0,0,3,4,1,7,0002-00-0000-17.png,0001-00-0001-20.png
00000014,823,1,1449503373483,1449503373941,985,473,0,0,0,4,3,1,7,0001-00-0001-51.png,0002-00-0001-82.png
00000014,824,0,1449503374915,1449503375436,919,503,0,0,0,0,1,1,1,0005-00-0000-29.png,0004-00-0000-05.png
00000014,825,1,1449503379764,1449503380158,965,475,0,0,0,3,2,1,5,0002-00-0001-27.png,0003-00-0001-14.png
00000014,826,1,1449503381578,1449503382045,350,487,0,0,0,0,1,1,1,0005-00-0001-87.png,0004-00-0001-61.png
00000014,827,1,1449503383067,1449503383608,880,506,0,0,0,1,0,1,1,0004-00-0000-81.png,0005-00-0000-98.png
00000014,828,1,1449503384658,1449503385161,888,501,0,0,0,2,1,1,3,0003-00-0000-52.png,0004-00-0001-59.png
00000014,829,1,1449503386168,1449503386550,395,488,0,0,0,1,2,1,3,0004-00-0000-31.png,0003-00-0000-25.png
00000014,830,0,1449503387570,1449503388081,918,497,0,0,0,3,4,1,7,0002-00-0000-02.png,0001-00-0000-64.png
00000014,831,0,1449503391221,1449503391688,943,548,0,0,0,2,3,1,5,0003-00-0001-43.png,0002-00-0000-97.png
00000014,832,1,1449503394569,1449503395013,931,453,0,0,0,4,3,1,7,0001-00-0000-04.png,0002-00-0000-70.png
00000014,833,0,1449503396050,1449503396547,893,486,0,0,0,2,3,1,5,0003-00-0001-50.png,0002-00-0000-34.png
00000014,834,0,1449503399928,1449503400654,977,411,0,0,0,3,4,1,7,0002-00-0000-54.png,0001-00-0000-46.png
00000014,835,1,1449503403739,1449503404123,960,489,0,0,0,4,3,1,7,0001-00-0001-43.png,0002-00-0000-30.png
00000014,836,1,1449503405077,1449503405625,922,514,0,0,0,2,1,1,3,0003-00-0001-90.png,0004-00-0001-90.png
00000014,837,1,1449503406746,1449503407114,348,492,0,0,0,1,2,1,3,0004-00-0000-71.png,0003-00-0000-94.png
00000014,838,1,1449503408207,1449503409193,919,492,0,0,0,1,0,1,1,0004-00-0000-92.png,0005-00-0001-61.png
00000014,839,0,1449503410402,1449503410774,410,497,0,0,0,3,2,1,5,0002-00-0001-69.png,0003-00-0001-20.png
00000014,840,1,1449503413952,1449503414506,364,422,0,0,0,0,1,1,1,0005-00-0000-42.png,0004-00-0000-46.png
00000014,841,0,1449503415471,1449503415952,892,503,0,0,0,3,4,1,7,0002-00-0001-74.png,0001-00-0000-55.png
00000014,842,1,1449503418803,1449503419246,977,475,0,0,0,4,3,1,7,0001-00-0000-30.png,0002-00-0001-32.png
00000014,843,1,1449503420706,1449503421164,900,476,0,0,0,2,1,1,3,0003-00-0001-90.png,0004-00-0000-53.png
00000014,844,1,1449503422252,1449503422678,364,451,0,0,0,0,1,1,1,0005-00-0000-79.png,0004-00-0000-46.png
00000014,845,1,1449503423825,1449503424739,940,462,0,0,0,3,2,1,5,0002-00-0000-42.png,0003-00-0001-23.png
00000014,846,0,1449503425806,1449503426186,357,498,0,0,0,1,0,1,1,0004-00-0001-23.png,0005-00-0000-06.png
00000014,847,1,1449503429827,1449503430293,390,412,0,0,0,1,2,1,3,0004-00-0001-27.png,0003-00-0000-88.png
00000014,848,0,1449503431272,1449503431760,884,507,0,0,0,2,3,1,5,0003-00-0000-34.png,0002-00-0000-25.png
00000014,849,1,1449503434902,1449503435300,986,491,0,0,0,2,1,1,3,0003-00-0001-71.png,0004-00-0001-09.png
00000014,850,1,1449503436741,1449503437225,331,462,0,0,0,0,1,1,1,0005-00-0001-53.png,0004-00-0000-55.png
00000014,851,0,1449503438284,1449503439211,908,499,0,0,0,2,3,1,5,0003-00-0001-05.png,0002-00-0001-14.png
00000014,852,0,1449503442250,1449503442764,394,443,0,0,0,4,3,1,7,0001-00-0000-49.png,0002-00-0000-40.png
00000014,853,0,1449503446002,1449503446472,952,518,0,0,0,1,2,1,3,0004-00-0000-37.png,0003-00-0001-71.png
00000014,854,1,1449503449950,1449503450366,974,467,0,0,0,3,2,1,5,0002-00-0000-13.png,0003-00-0001-19.png
00000014,855,0,1449503451462,1449503452053,922,523,0,0,0,3,4,1,7,0002-00-0001-30.png,0001-00-0000-82.png
00000014,856,1,1449503455089,1449503455491,968,463,0,0,0,1,0,1,1,0004-00-0000-00.png,0005-00-0000-86.png
00000014,857,0,1449503456424,1449503456822,335,458,0,0,0,2,1,1,3,0003-00-0001-47.png,0004-00-0001-50.png
00000014,858,1,1449503459961,1449503460375,951,490,0,0,0,1,0,1,1,0004-00-0000-14.png,0005-00-0000-95.png
00000014,859,0,1449503461336,1449503461828,900,515,0,0,0,2,3,1,5,0003-00-0000-62.png,0002-00-0001-13.png
00000014,860,1,1449503464737,1449503465187,885,441,0,0,0,4,3,1,7,0001-00-0000-75.png,0002-00-0000-36.png
00000014,861,0,1449503466195,1449503466583,350,501,0,0,0,3,2,1,5,0002-00-0000-49.png,0003-00-0001-95.png
00000014,862,0,1449503469726,1449503470171,944,477,0,0,0,1,2,1,3,0004-00-0001-53.png,0003-00-0000-00.png
00000014,863,1,1449503473951,1449503474460,427,544,0,0,0,0,1,1,1,0005-00-0001-54.png,0004-00-0001-87.png
00000014,864,1,1449503475862,1449503476270,415,449,0,0,0,3,4,1,7,0002-00-0001-02.png,0001-00-0000-92.png
00000014,865,0,1449503477387,1449503477888,901,494,0,0,0,3,4,1,7,0002-00-0001-15.png,0001-00-0001-71.png
00000014,866,0,1449503480822,1449503481201,964,462,0,0,0,1,2,1,3,0004-00-0000-96.png,0003-00-0000-00.png
00000014,867,0,1449503484300,1449503485158,447,389,0,0,0,1,0,1,1,0004-00-0001-82.png,0005-00-0000-90.png
00000014,868,1,1449503488640,1449503489043,950,464,0,0,0,2,1,1,3,0003-00-0000-83.png,0004-00-0000-72.png
00000014,869,1,1449503489960,1449503490374,341,468,0,0,0,2,3,1,5,0003-00-0000-44.png,0002-00-0000-39.png
00000014,870,0,1449503491508,1449503492326,451,411,0,0,0,4,3,1,7,0001-00-0001-85.png,0002-00-0000-55.png
00000014,871,1,1449503495513,1449503496088,899,542,0,0,0,3,2,1,5,0002-00-0001-22.png,0003-00-0001-58.png
00000014,872,1,1449503497455,1449503497893,350,474,0,0,0,0,1,1,1,0005-00-0001-59.png,0004-00-0000-61.png
00000014,873,1,1449503499002,1449503499484,875,514,0,0,0,3,2,1,5,0002-00-0000-89.png,0003-00-0001-01.png
00000014,874,1,1449503500628,1449503501077,414,436,0,0,0,2,3,1,5,0003-00-0001-97.png,0002-00-0000-03.png
00000014,875,1,1449503502160,1449503502533,344,478,0,0,0,1,2,1,3,0004-00-0000-57.png,0003-00-0000-16.png
00000014,876,0,1449503503737,1449503504100,372,497,0,0,0,1,0,1,1,0004-00-0001-90.png,0005-00-0001-21.png
00000014,877,1,1449503507059,1449503507513,950,516,0,0,0,2,1,1,3,0003-00-0001-70.png,0004-00-0000-60.png
00000014,878,0,1449503508464,1449503508871,363,475,0,0,0,4,3,1,7,0001-00-0001-42.png,0002-00-0001-55.png
00000014,879,0,1449503511963,1449503512424,951,491,0,0,0,3,4,1,7,0002-00-0000-89.png,0001-00-0001-66.png
00000014,880,0,1449503515514,1449503515931,969,477,0,0,0,0,1,1,1,0005-00-0001-25.png,0004-00-0000-42.png
00000014,881,1,1449503518782,1449503519224,970,487,0,0,0,4,3,1,7,0001-00-0001-02.png,0002-00-0001-52.png
00000014,882,1,1449503520654,1449503521090,364,450,0,0,0,3,4,1,7,0002-00-0001-50.png,0001-00-0000-13.png
00000014,883,1,1449503522238,1449503523078,340,414,0,0,0,0,1,1,1,0005-00-0000-90.png,0004-00-0001-21.png
00000014,884,1,1449503524241,1449503524635,435,485,0,0,0,1,2,1,3,0004-00-0001-68.png,0003-00-0001-99.png
00000014,885,0,1449503525794,1449503526164,376,501,0,0,0,1,0,1,1,0004-00-0001-43.png,0005-00-0001-67.png
00000014,886,1,1449503529397,1449503529863,874,514,0,0,0,3,2,1,5,0002-00-0001-36.png,0003-00-0000-83.png
00000014,887,1,1449503530807,1449503531304,875,515,0,0,0,2,1,1,3,0003-00-0001-50.png,0004-00-0000-35.png
00000014,888,1,1449503532377,1449503532773,344,512,0,0,0,2,3,1,5,0003-00-0001-97.png,0002-00-0001-80.png
00000014,889,0,1449503533904,1449503534244,384,497,0,0,0,2,1,1,3,0003-00-0000-99.png,0004-00-0001-41.png
00000014,890,0,1449503537721,1449503538154,896,470,0,0,0,2,3,1,5,0003-00-0000-69.png,0002-00-0001-58.png
00000014,891,0,1449503541276,1449503541655,952,475,0,0,0,3,4,1,7,0002-00-0000-41.png,0001-00-0000-10.png
00000014,892,0,1449503544628,1449503545105,971,487,0,0,0,1,2,1,3,0004-00-0001-87.png,0003-00-0001-54.png
00000014,893,1,1449503548017,1449503548429,951,501,0,0,0,3,2,1,5,0002-00-0001-68.png,0003-00-0001-80.png
00000014,894,1,1449503549376,1449503549965,896,523,0,0,0,4,3,1,7,0001-00-0001-93.png,0002-00-0001-48.png
00000014,895,0,1449503550991,1449503551309,351,490,0,0,0,1,0,1,1,0004-00-0001-39.png,0005-00-0000-27.png
00000014,896,1,1449503554305,1449503554831,440,456,0,0,0,0,1,1,1,0005-00-0000-93.png,0004-00-0000-58.png
00000014,897,0,1449503556085,1449503556497,373,485,0,0,0,3,2,1,5,0002-00-0001-88.png,0003-00-0000-56.png
00000014,898,0,1449503559374,1449503559843,950,534,0,0,0,2,3,1,5,0003-00-0001-06.png,0002-00-0000-01.png
00000014,899,1,1449503562795,1449503563282,969,491,0,0,0,2,1,1,3,0003-00-0001-49.png,0004-00-0001-37.png
00000014,900,0,1449503564334,1449503564744,360,483,0,0,0,4,3,1,7,0001-00-0001-42.png,0002-00-0001-02.png
00000014,901,0,1449503567821,1449503568291,960,473,0,0,0,3,4,1,7,0002-00-0000-93.png,0001-00-0000-77.png
00000014,902,1,1449503571353,1449503571756,952,476,0,0,0,1,0,1,1,0004-00-0000-46.png,0005-00-0000-04.png
00000014,903,1,1449503572765,1449503573208,351,496,0,0,0,0,1,1,1,0005-00-0000-88.png,0004-00-0000-93.png
00000014,904,1,1449503574722,1449503575176,331,446,0,0,0,1,2,1,3,0004-00-0000-84.png,0003-00-0000-93.png
00000014,905,1,1449503576292,1449503577194,907,474,0,0,0,2,1,1,3,0003-00-0000-72.png,0004-00-0000-57.png
00000014,906,1,1449503578688,1449503579067,362,449,0,0,0,1,2,1,3,0004-00-0001-25.png,0003-00-0000-92.png
00000014,907,1,1449503580192,1449503580534,362,501,0,0,0,3,4,1,7,0002-00-0000-26.png,0001-00-0000-75.png
00000014,908,1,1449503581590,1449503582098,893,494,0,0,0,4,3,1,7,0001-00-0001-14.png,0002-00-0000-32.png
00000014,909,0,1449503583272,1449503583647,360,483,0,0,0,3,2,1,5,0002-00-0000-72.png,0003-00-0000-68.png
00000014,910,0,1449503587511,1449503587926,895,550,0,0,0,0,1,1,1,0005-00-0001-26.png,0004-00-0001-45.png
00000014,911,1,1449503591551,1449503592011,978,554,0,0,0,1,0,1,1,0004-00-0000-65.png,0005-00-0000-60.png
00000014,912,0,1449503593023,1449503593498,898,508,0,0,0,2,3,1,5,0003-00-0001-14.png,0002-00-0000-38.png
00000014,913,1,1449503596501,1449503596977,959,525,0,0,0,4,3,1,7,0001-00-0001-94.png,0002-00-0001-45.png
00000014,914,0,1449503597971,1449503598529,867,504,0,0,0,2,3,1,5,0003-00-0001-59.png,0002-00-0000-98.png
00000014,915,0,1449503601567,1449503602005,958,506,0,0,0,0,1,1,1,0005-00-0001-53.png,0004-00-0001-06.png
00000014,916,1,1449503604937,1449503605403,958,474,0,0,0,2,1,1,3,0003-00-0001-86.png,0004-00-0001-00.png
00000014,917,0,1449503606437,1449503606918,901,488,0,0,0,1,2,1,3,0004-00-0000-14.png,0003-00-0000-56.png
00000014,918,1,1449503609890,1449503610331,945,503,0,0,0,3,2,1,5,0002-00-0000-60.png,0003-00-0000-23.png
00000014,919,1,1449503611322,1449503611708,387,501,0,0,0,3,4,1,7,0002-00-0001-65.png,0001-00-0001-73.png
00000014,920,1,1449503612865,1449503613422,889,501,0,0,0,1,0,1,1,0004-00-0000-71.png,0005-00-0001-38.png
00000014,921,1,1449503614509,1449503614870,437,470,0,0,0,3,4,1,7,0002-00-0000-19.png,0001-00-0000-07.png
00000014,922,0,1449503616453,1449503616884,410,469,0,0,0,1,0,1,1,0004-00-0000-59.png,0005-00-0000-40.png
00000014,923,1,1449503619832,1449503620407,397,416,0,0,0,1,2,1,3,0004-00-0000-95.png,0003-00-0001-02.png
00000014,924,0,1449503621908,1449503622325,412,458,0,0,0,3,2,1,5,0002-00-0000-52.png,0003-00-0000-80.png
00000014,925,0,1449503625420,1449503625832,946,489,0,0,0,2,3,1,5,0003-00-0001-96.png,0002-00-0000-20.png
00000014,926,1,1449503629185,1449503629653,325,423,0,0,0,0,1,1,1,0005-00-0000-20.png,0004-00-0001-38.png
00000014,927,0,1449503630757,1449503631140,361,465,0,0,0,4,3,1,7,0001-00-0001-14.png,0002-00-0000-63.png
00000014,928,1,1449503634185,1449503634600,909,553,0,0,0,2,1,1,3,0003-00-0000-87.png,0004-00-0001-67.png
00000014,929,0,1449503636095,1449503636507,453,462,0,0,0,1,0,1,1,0004-00-0001-63.png,0005-00-0001-18.png
00000014,930,1,1449503639704,1449503640168,952,488,0,0,0,2,1,1,3,0003-00-0001-29.png,0004-00-0001-92.png
00000014,931,0,1449503641180,1449503641706,913,516,0,0,0,1,2,1,3,0004-00-0001-28.png,0003-00-0000-78.png
00000014,932,0,1449503645587,1449503645979,934,500,0,0,0,3,4,1,7,0002-00-0001-19.png,0001-00-0000-00.png
00000014,933,1,1449503649667,1449503650139,946,513,0,0,0,3,2,1,5,0002-00-0000-49.png,0003-00-0000-24.png
00000014,934,1,1449503651109,1449503651735,920,505,0,0,0,4,3,1,7,0001-00-0001-02.png,0002-00-0001-00.png
00000014,935,1,1449503652836,1449503653257,359,479,0,0,0,0,1,1,1,0005-00-0000-90.png,0004-00-0000-35.png
00000014,936,1,1449503654424,1449503654838,394,494,0,0,0,2,3,1,5,0003-00-0001-03.png,0002-00-0000-29.png
00000014,937,0,1449503656010,1449503656466,880,500,0,0,0,2,3,1,5,0003-00-0001-93.png,0002-00-0000-01.png
00000014,938,0,1449503659409,1449503659826,916,547,0,0,0,0,1,1,1,0005-00-0000-02.png,0004-00-0000-11.png
00000014,939,1,1449503662832,1449503663278,947,471,0,0,0,2,1,1,3,0003-00-0001-98.png,0004-00-0001-66.png
00000014,940,0,1449503664234,1449503664745,870,472,0,0,0,3,4,1,7,0002-00-0000-16.png,0001-00-0001-35.png
00000014,941,1,1449503667770,1449503668253,953,471,0,0,0,4,3,1,7,0001-00-0000-91.png,0002-00-0001-22.png
00000014,942,0,1449503669279,1449503669654,403,495,0,0,0,3,2,1,5,0002-00-0001-55.png,0003-00-0001-28.png
00000014,943,0,1449503672529,1449503672997,949,482,0,0,0,1,2,1,3,0004-00-0000-38.png,0003-00-0000-54.png
00000014,944,1,1449503675870,1449503676305,945,451,0,0,0,1,0,1,1,0004-00-0000-84.png,0005-00-0001-06.png
00000014,945,0,1449503677324,1449503677791,915,501,0,0,0,2,3,1,5,0003-00-0000-53.png,0002-00-0000-31.png
00000014,946,0,1449503681907,1449503682377,925,464,0,0,0,1,2,1,3,0004-00-0001-17.png,0003-00-0001-41.png
00000014,947,1,1449503685227,1449503685651,916,534,0,0,0,2,1,1,3,0003-00-0001-50.png,0004-00-0001-65.png
00000014,948,0,1449503686632,1449503687081,401,462,0,0,0,4,3,1,7,0001-00-0000-11.png,0002-00-0000-23.png
00000014,949,1,1449503690619,1449503691044,939,475,0,0,0,1,0,1,1,0004-00-0001-98.png,0005-00-0000-94.png
00000014,950,0,1449503691983,1449503692484,895,498,0,0,0,3,4,1,7,0002-00-0000-32.png,0001-00-0000-75.png
00000014,951,0,1449503695460,1449503695976,413,511,0,0,0,3,2,1,5,0002-00-0000-25.png,0003-00-0001-66.png
