subject_id,trial,correct_response,stim_time,response_time,x_coord,y_coord,trial_timeout,timeout_time,interTrial_timeout,left_rank,right_rank,distance,joint_rank,left_image,right_image
00000009,1,0,1449154756754,1449154757367,936,387,0,0,0,2,3,1,5,0003-00-0000-14.png,0002-00-0000-55.png
00000009,2,1,1449154760229,1449154760766,966,324,0,0,0,3,2,1,5,0002-00-0001-03.png,0003-00-0000-25.png
00000009,3,1,1449154762198,1449154763098,1067,279,0,0,0,2,1,1,3,0003-00-0000-38.png,0004-00-0001-47.png
00000009,4,1,1449154764365,1449154765232,935,312,0,0,0,1,0,1,1,0004-00-0001-70.png,0005-00-0001-15.png
00000009,5,0,1449154766384,1449154767586,516,285,0,0,0,4,3,1,7,0001-00-0001-80.png,0002-00-0001-97.png
00000009,6,1,1449154770615,1449154771359,398,359,0,0,0,3,4,1,7,0002-00-0000-50.png,0001-00-0000-06.png
00000009,7,0,1449154772534,1449154773993,916,354,0,0,0,1,2,1,3,0004-00-0000-82.png,0003-00-0001-62.png
00000009,8,1,1449154776935,1449154777499,495,253,0,0,0,0,1,1,1,0005-00-0001-90.png,0004-00-0001-26.png
00000009,9,0,1449154778521,1449154780314,372,340,0,0,0,2,1,1,3,0003-00-0000-72.png,0004-00-0001-85.png
00000009,10,0,1449154783181,1449154783229,867,403,0,0,0,0,1,1,1,0005-00-0001-72.png,0004-00-0000-97.png
00000009,11,1,1449154786173,1449154787168,459,247,0,0,0,2,3,1,5,0003-00-0000-05.png,0002-00-0001-81.png
00000009,12,1,1449154788157,1449154788974,943,335,0,0,0,1,0,1,1,0004-00-0000-77.png,0005-00-0001-11.png
00000009,13,1,1449154790010,1449154790126,883,445,0,0,0,4,3,1,7,0001-00-0000-14.png,0002-00-0000-52.png
00000009,14,0,1449154791251,1449154791351,862,446,0,0,0,3,4,1,7,0002-00-0001-59.png,0001-00-0000-18.png
00000009,15,0,1449154794292,1449154795097,400,323,0,0,0,3,2,1,5,0002-00-0000-64.png,0003-00-0000-13.png
00000009,16,0,1449154798288,1449154798876,1067,332,0,0,0,1,2,1,3,0004-00-0000-25.png,0003-00-0000-39.png
00000009,17,0,1449154802004,1449154802555,937,342,0,0,0,1,2,1,3,0004-00-0001-41.png,0003-00-0001-89.png
00000009,18,1,1449154806111,1449154806876,1016,266,0,0,0,2,1,1,3,0003-00-0000-01.png,0004-00-0001-96.png
00000009,19,0,1449154807889,1449154807995,909,492,0,0,0,2,3,1,5,0003-00-0000-38.png,0002-00-0000-01.png
00000009,20,1,1449154811269,1449154811811,990,399,0,0,0,1,0,1,1,0004-00-0000-09.png,0005-00-0001-50.png
00000009,21,1,1449154812719,1449154813407,484,241,0,0,0,0,1,1,1,0005-00-0001-76.png,0004-00-0000-80.png
00000009,22,1,1449154814346,1449154815281,961,337,0,0,0,3,2,1,5,0002-00-0001-47.png,0003-00-0001-14.png
00000009,23,1,1449154816255,1449154816354,884,415,0,0,0,4,3,1,7,0001-00-0001-57.png,0002-00-0000-17.png
00000009,24,0,1449154817496,1449154817669,865,477,0,0,0,3,4,1,7,0002-00-0000-55.png,0001-00-0001-26.png
00000009,25,0,1449154821132,1449154821407,945,246,0,0,0,3,4,1,7,0002-00-0001-44.png,0001-00-0001-99.png
00000009,26,1,1449154827527,1449154828118,1024,298,0,0,0,3,2,1,5,0002-00-0000-73.png,0003-00-0000-85.png
00000009,27,1,1449154829026,1449154829912,454,249,0,0,0,0,1,1,1,0005-00-0000-54.png,0004-00-0000-26.png
00000009,28,0,1449154830917,1449154831997,1018,279,0,0,0,2,3,1,5,0003-00-0001-56.png,0002-00-0000-91.png
00000009,29,0,1449154835018,1449154835647,491,268,0,0,0,4,3,1,7,0001-00-0000-61.png,0002-00-0000-92.png
00000009,30,0,1449154838756,1449154839684,937,326,0,0,0,1,2,1,3,0004-00-0001-92.png,0003-00-0001-42.png
00000009,31,1,1449154842799,1449154843326,1045,262,0,0,0,1,0,1,1,0004-00-0001-07.png,0005-00-0000-58.png
00000009,32,1,1449154844202,1449154844328,862,449,0,0,0,2,1,1,3,0003-00-0000-25.png,0004-00-0001-41.png
00000009,33,1,1449154845404,1449154845509,862,449,0,0,0,1,0,1,1,0004-00-0000-86.png,0005-00-0000-48.png
00000009,34,0,1449154846585,1449154846673,862,452,0,0,0,1,2,1,3,0004-00-0001-93.png,0003-00-0000-43.png
00000009,35,1,1449154849904,1449154850133,924,311,0,0,0,4,3,1,7,0001-00-0000-12.png,0002-00-0000-99.png
00000009,36,1,1449154851138,1449154852020,490,243,0,0,0,0,1,1,1,0005-00-0001-32.png,0004-00-0001-25.png
00000009,37,0,1449154852934,1449154853971,939,319,0,0,0,3,4,1,7,0002-00-0001-52.png,0001-00-0000-99.png
00000009,38,1,1449154856883,1449154856887,888,332,0,0,0,2,1,1,3,0003-00-0000-86.png,0004-00-0000-07.png
00000009,39,0,1449154857866,1449154859020,470,235,0,0,0,3,2,1,5,0002-00-0000-97.png,0003-00-0001-40.png
00000009,40,0,1449154862100,1449154862250,857,426,0,0,0,2,3,1,5,0003-00-0001-64.png,0002-00-0001-88.png
00000009,41,1,1449154865280,1449154865915,430,418,0,0,0,0,1,1,1,0005-00-0000-57.png,0004-00-0001-26.png
00000009,42,0,1449154866873,1449154868031,939,366,0,0,0,3,4,1,7,0002-00-0001-12.png,0001-00-0001-14.png
00000009,43,1,1449154871052,1449154871170,862,345,0,0,0,4,3,1,7,0001-00-0000-00.png,0002-00-0000-21.png
00000009,44,0,1449154872136,1449154873528,426,389,0,0,0,2,1,1,3,0003-00-0001-11.png,0004-00-0001-08.png
00000009,45,1,1449154876648,1449154876680,877,340,0,0,0,3,2,1,5,0002-00-0001-91.png,0003-00-0000-04.png
00000009,46,0,1449154877702,1449154878616,949,332,0,0,0,1,2,1,3,0004-00-0000-38.png,0003-00-0000-86.png
00000009,47,1,1449154881447,1449154882727,403,270,0,0,0,2,3,1,5,0003-00-0000-60.png,0002-00-0000-59.png
00000009,48,1,1449154883684,1449154884681,971,428,0,0,0,1,0,1,1,0004-00-0001-85.png,0005-00-0001-23.png
00000009,49,1,1449154885624,1449154885704,864,397,0,0,0,2,1,1,3,0003-00-0001-72.png,0004-00-0000-38.png
00000009,50,0,1449154886748,1449154886863,868,425,0,0,0,1,2,1,3,0004-00-0000-49.png,0003-00-0000-10.png
00000009,51,1,1449154889886,1449154890041,888,422,0,0,0,4,3,1,7,0001-00-0000-93.png,0002-00-0001-49.png
00000009,52,1,1449154891038,1449154891907,498,238,0,0,0,0,1,1,1,0005-00-0001-35.png,0004-00-0000-99.png
00000009,53,1,1449154892927,1449154893749,912,331,0,0,0,1,0,1,1,0004-00-0000-60.png,0005-00-0000-84.png
00000009,54,0,1449154894624,1449154894696,867,401,0,0,0,3,4,1,7,0002-00-0000-24.png,0001-00-0000-24.png
00000009,55,1,1449154897645,1449154897689,929,360,0,0,0,3,2,1,5,0002-00-0000-78.png,0003-00-0001-84.png
00000009,56,1,1449154898661,1449154899772,464,257,0,0,0,2,3,1,5,0003-00-0001-97.png,0002-00-0001-79.png
00000009,57,0,1449154900750,1449154901687,1019,277,0,0,0,3,4,1,7,0002-00-0001-66.png,0001-00-0000-18.png
00000009,58,1,1449154904890,1449154905537,1026,279,0,0,0,1,0,1,1,0004-00-0001-20.png,0005-00-0000-35.png
00000009,59,0,1449154906410,1449154907103,485,237,0,0,0,4,3,1,7,0001-00-0000-00.png,0002-00-0000-30.png
00000009,60,0,1449154910119,1449154911463,942,327,0,0,0,1,2,1,3,0004-00-0001-34.png,0003-00-0001-71.png
00000009,61,0,1449154914477,1449154915047,963,279,0,0,0,2,3,1,5,0003-00-0001-93.png,0002-00-0000-15.png
00000009,62,1,1449154918186,1449154919009,963,407,0,0,0,2,1,1,3,0003-00-0000-24.png,0004-00-0001-44.png
00000009,63,1,1449154919934,1449154920829,944,329,0,0,0,3,2,1,5,0002-00-0000-11.png,0003-00-0000-06.png
00000009,64,0,1449154921844,1449154921914,921,400,0,0,0,0,1,1,1,0005-00-0000-54.png,0004-00-0001-71.png
00000009,65,1,1449154924935,1449154924967,860,347,0,0,0,3,2,1,5,0002-00-0001-78.png,0003-00-0000-60.png
00000009,66,1,1449154925970,1449154926687,492,238,0,0,0,0,1,1,1,0005-00-0000-45.png,0004-00-0000-59.png
00000009,67,0,1449154927700,1449154928727,942,384,0,0,0,1,2,1,3,0004-00-0000-34.png,0003-00-0001-64.png
00000009,68,1,1449154931932,1449154932916,475,266,0,0,0,2,3,1,5,0003-00-0000-87.png,0002-00-0001-52.png
00000009,69,1,1449154933818,1449154934812,984,455,0,0,0,1,0,1,1,0004-00-0000-75.png,0005-00-0000-12.png
00000009,70,0,1449154935718,1449154935801,887,417,0,0,0,3,4,1,7,0002-00-0001-79.png,0001-00-0001-36.png
00000009,71,0,1449154938966,1449154939546,396,381,0,0,0,4,3,1,7,0001-00-0001-68.png,0002-00-0000-82.png
00000009,72,0,1449154942692,1449154943529,478,263,0,0,0,2,1,1,3,0003-00-0001-28.png,0004-00-0001-55.png
00000009,73,0,1449154946520,1449154947353,419,248,0,0,0,2,1,1,3,0003-00-0001-67.png,0004-00-0000-89.png
00000009,74,1,1449154950417,1449154951111,959,348,0,0,0,1,0,1,1,0004-00-0000-19.png,0005-00-0001-40.png
00000009,75,0,1449154952034,1449154952103,888,410,0,0,0,3,4,1,7,0002-00-0001-13.png,0001-00-0000-81.png
00000009,76,1,1449154955245,1449154955967,445,257,0,0,0,0,1,1,1,0005-00-0000-93.png,0004-00-0000-42.png
00000009,77,0,1449154956894,1449154957757,386,360,0,0,0,4,3,1,7,0001-00-0000-09.png,0002-00-0000-79.png
00000009,78,0,1449154960889,1449154961501,1063,281,0,0,0,1,2,1,3,0004-00-0001-19.png,0003-00-0001-47.png
00000009,79,1,1449154964754,1449154965702,394,368,0,0,0,2,3,1,5,0003-00-0000-50.png,0002-00-0000-48.png
00000009,80,1,1449154966702,1449154966785,874,464,0,0,0,3,2,1,5,0002-00-0000-59.png,0003-00-0001-32.png
00000009,81,1,1449154967904,1449154968826,944,282,0,0,0,1,0,1,1,0004-00-0000-54.png,0005-00-0000-13.png
00000009,82,0,1449154969863,1449154969879,870,403,0,0,0,2,3,1,5,0003-00-0001-56.png,0002-00-0001-80.png
00000009,83,1,1449154973035,1449154973989,435,260,0,0,0,3,4,1,7,0002-00-0001-39.png,0001-00-0000-67.png
00000009,84,0,1449154974981,1449154975967,954,333,0,0,0,1,2,1,3,0004-00-0000-31.png,0003-00-0000-95.png
00000009,85,1,1449154979044,1449154979616,470,267,0,0,0,0,1,1,1,0005-00-0001-09.png,0004-00-0000-67.png
00000009,86,0,1449154980484,1449154981187,472,246,0,0,0,3,2,1,5,0002-00-0001-97.png,0003-00-0000-95.png
00000009,87,1,1449154984192,1449154984208,862,332,0,0,0,4,3,1,7,0001-00-0001-00.png,0002-00-0001-99.png
00000009,88,1,1449154985236,1449154985347,862,462,0,0,0,2,1,1,3,0003-00-0001-90.png,0004-00-0000-32.png
00000009,89,0,1449154986506,1449154986637,862,462,0,0,0,1,2,1,3,0004-00-0001-58.png,0003-00-0001-59.png
00000009,90,1,1449154989626,1449154990199,447,262,0,0,0,0,1,1,1,0005-00-0000-26.png,0004-00-0001-88.png
00000009,91,0,1449154991149,1449154992182,1041,293,0,0,0,3,4,1,7,0002-00-0001-61.png,0001-00-0000-39.png
00000009,92,0,1449154995342,1449154995928,457,261,0,0,0,4,3,1,7,0001-00-0001-19.png,0002-00-0000-42.png
00000009,93,0,1449154998802,1449154999779,960,403,0,0,0,2,3,1,5,0003-00-0001-51.png,0002-00-0000-41.png
00000009,94,1,1449155002647,1449155003308,1041,279,0,0,0,1,0,1,1,0004-00-0000-26.png,0005-00-0001-04.png
00000009,95,1,1449155004256,1449155004296,868,414,0,0,0,3,2,1,5,0002-00-0001-62.png,0003-00-0001-03.png
00000009,96,1,1449155005459,1449155005639,888,488,0,0,0,2,1,1,3,0003-00-0001-57.png,0004-00-0000-72.png
00000009,97,1,1449155006760,1449155006828,873,384,0,0,0,3,2,1,5,0002-00-0000-26.png,0003-00-0000-62.png
00000009,98,1,1449155007985,1449155008033,866,471,0,0,0,2,1,1,3,0003-00-0001-02.png,0004-00-0001-41.png
00000009,99,1,1449155009245,1449155009331,862,451,0,0,0,4,3,1,7,0001-00-0001-98.png,0002-00-0001-78.png
00000009,100,0,1449155010614,1449155010686,888,454,0,0,0,3,4,1,7,0002-00-0001-37.png,0001-00-0000-75.png
00000009,101,0,1449155013864,1449155013884,871,294,0,0,0,1,2,1,3,0004-00-0001-29.png,0003-00-0001-63.png
00000009,102,1,1449155017036,1449155017757,964,401,0,0,0,1,0,1,1,0004-00-0000-29.png,0005-00-0001-13.png
00000009,103,1,1449155018725,1449155019618,420,345,0,0,0,0,1,1,1,0005-00-0000-13.png,0004-00-0001-47.png
00000009,104,1,1449155020617,1449155021992,453,238,0,0,0,2,3,1,5,0003-00-0000-28.png,0002-00-0001-69.png
00000009,105,1,1449155023007,1449155023971,1044,311,0,0,0,4,3,1,7,0001-00-0000-27.png,0002-00-0001-22.png
00000009,106,0,1449155024964,1449155025027,898,410,0,0,0,0,1,1,1,0005-00-0000-29.png,0004-00-0001-72.png
00000009,107,0,1449155027855,1449155028610,1016,294,0,0,0,3,4,1,7,0002-00-0001-36.png,0001-00-0001-72.png
00000009,108,1,1449155031622,1449155031686,935,352,0,0,0,2,1,1,3,0003-00-0001-84.png,0004-00-0001-88.png
00000009,109,1,1449155032657,1449155032831,913,514,0,0,0,1,0,1,1,0004-00-0001-28.png,0005-00-0000-68.png
00000009,110,0,1449155033978,1449155034058,868,483,0,0,0,2,3,1,5,0003-00-0001-88.png,0002-00-0001-38.png
00000009,111,1,1449155037246,1449155037785,1071,276,0,0,0,3,2,1,5,0002-00-0000-84.png,0003-00-0000-28.png
00000009,112,0,1449155038699,1449155038798,888,436,0,0,0,1,2,1,3,0004-00-0000-68.png,0003-00-0001-93.png
00000009,113,1,1449155041832,1449155042618,1041,288,0,0,0,2,1,1,3,0003-00-0001-31.png,0004-00-0001-32.png
00000009,114,1,1449155043667,1449155043845,949,477,0,0,0,3,2,1,5,0002-00-0001-45.png,0003-00-0001-85.png
00000009,115,0,1449155044967,1449155045999,942,330,0,0,0,1,2,1,3,0004-00-0000-54.png,0003-00-0000-83.png
00000009,116,1,1449155049105,1449155049749,1066,330,0,0,0,1,0,1,1,0004-00-0001-32.png,0005-00-0000-44.png
00000009,117,0,1449155050674,1449155050754,897,452,0,0,0,3,4,1,7,0002-00-0000-14.png,0001-00-0001-62.png
00000009,118,1,1449155053960,1449155054479,467,268,0,0,0,0,1,1,1,0005-00-0001-11.png,0004-00-0000-81.png
00000009,119,1,1449155055351,1449155055443,862,462,0,0,0,4,3,1,7,0001-00-0001-17.png,0002-00-0001-70.png
00000009,120,0,1449155056595,1449155056667,871,462,0,0,0,2,3,1,5,0003-00-0000-29.png,0002-00-0000-69.png
00000009,121,1,1449155059757,1449155060522,964,375,0,0,0,3,2,1,5,0002-00-0000-05.png,0003-00-0001-11.png
00000009,122,0,1449155061435,1449155061499,890,441,0,0,0,0,1,1,1,0005-00-0000-24.png,0004-00-0001-42.png
00000009,123,0,1449155064348,1449155065636,393,390,0,0,0,4,3,1,7,0001-00-0000-07.png,0002-00-0001-65.png
00000009,124,0,1449155068503,1449155069068,1038,305,0,0,0,3,4,1,7,0002-00-0001-94.png,0001-00-0000-01.png
00000009,125,1,1449155072229,1449155073359,458,275,0,0,0,1,2,1,3,0004-00-0000-37.png,0003-00-0001-24.png
00000009,126,1,1449155074415,1449155074475,866,467,0,0,0,1,0,1,1,0004-00-0001-68.png,0005-00-0000-63.png
00000009,127,1,1449155075567,1449155075627,862,462,0,0,0,2,1,1,3,0003-00-0001-47.png,0004-00-0001-10.png
00000009,128,0,1449155076888,1449155076995,881,491,0,0,0,2,3,1,5,0003-00-0000-53.png,0002-00-0000-14.png
00000009,129,1,1449155080038,1449155080915,478,290,0,0,0,0,1,1,1,0005-00-0000-70.png,0004-00-0000-16.png
00000009,130,0,1449155081798,1449155083049,998,282,0,0,0,1,2,1,3,0004-00-0000-33.png,0003-00-0001-21.png
00000009,131,1,1449155086070,1449155086251,862,423,0,0,0,1,0,1,1,0004-00-0000-60.png,0005-00-0001-94.png
00000009,132,1,1449155087353,1449155087493,939,498,0,0,0,3,2,1,5,0002-00-0001-13.png,0003-00-0001-26.png
00000009,133,0,1449155088624,1449155088688,873,436,0,0,0,3,4,1,7,0002-00-0000-35.png,0001-00-0001-20.png
00000009,134,0,1449155091615,1449155091631,503,438,0,0,0,2,1,1,3,0003-00-0001-43.png,0004-00-0001-79.png
00000009,135,0,1449155094757,1449155095351,476,270,0,0,0,4,3,1,7,0001-00-0000-97.png,0002-00-0000-70.png
00000009,136,0,1449155098351,1449155099297,964,345,0,0,0,2,3,1,5,0003-00-0001-87.png,0002-00-0001-76.png
00000009,137,1,1449155102506,1449155103134,458,277,0,0,0,0,1,1,1,0005-00-0001-79.png,0004-00-0000-85.png
00000009,138,0,1449155104067,1449155105126,936,289,0,0,0,2,3,1,5,0003-00-0000-25.png,0002-00-0001-40.png
00000009,139,1,1449155108074,1449155108775,510,272,0,0,0,1,2,1,3,0004-00-0000-55.png,0003-00-0001-70.png
00000009,140,0,1449155109702,1449155111389,427,239,0,0,0,2,1,1,3,0003-00-0001-14.png,0004-00-0001-05.png
00000009,141,1,1449155114582,1449155114614,919,333,0,0,0,3,2,1,5,0002-00-0000-45.png,0003-00-0000-47.png
00000009,142,0,1449155115596,1449155116678,465,279,0,0,0,4,3,1,7,0001-00-0001-66.png,0002-00-0001-61.png
00000009,143,0,1449155119829,1449155119841,908,333,0,0,0,3,4,1,7,0002-00-0001-87.png,0001-00-0000-71.png
00000009,144,1,1449155122721,1449155123475,1041,279,0,0,0,1,0,1,1,0004-00-0001-21.png,0005-00-0000-59.png
00000009,145,0,1449155124409,1449155124469,888,429,0,0,0,2,3,1,5,0003-00-0001-56.png,0002-00-0001-29.png
00000009,146,0,1449155127579,1449155128518,463,261,0,0,0,4,3,1,7,0001-00-0000-17.png,0002-00-0000-81.png
00000009,147,1,1449155131594,1449155131626,871,349,0,0,0,1,0,1,1,0004-00-0001-81.png,0005-00-0000-84.png
00000009,148,0,1449155132596,1449155132696,910,458,0,0,0,0,1,1,1,0005-00-0000-30.png,0004-00-0000-90.png
00000009,149,0,1449155135818,1449155135850,900,332,0,0,0,3,4,1,7,0002-00-0000-12.png,0001-00-0000-01.png
00000009,150,1,1449155139556,1449155140342,1058,297,0,0,0,3,2,1,5,0002-00-0000-91.png,0003-00-0001-39.png
00000009,151,0,1449155141253,1449155141373,862,452,0,0,0,1,2,1,3,0004-00-0001-80.png,0003-00-0000-16.png
00000009,152,0,1449155144928,1449155145913,456,312,0,0,0,2,1,1,3,0003-00-0000-60.png,0004-00-0001-88.png
00000009,153,1,1449155148985,1449155149706,939,306,0,0,0,2,1,1,3,0003-00-0001-10.png,0004-00-0001-96.png
00000009,154,0,1449155150675,1449155150755,894,440,0,0,0,3,4,1,7,0002-00-0001-89.png,0001-00-0000-40.png
00000009,155,0,1449155154012,1449155154032,926,238,0,0,0,1,2,1,3,0004-00-0001-69.png,0003-00-0001-04.png
00000009,156,1,1449155157102,1449155157126,915,365,0,0,0,1,0,1,1,0004-00-0000-33.png,0005-00-0001-67.png
00000009,157,0,1449155158189,1449155159288,461,250,0,0,0,4,3,1,7,0001-00-0000-55.png,0002-00-0000-65.png
00000009,158,0,1449155162421,1449155162465,908,327,0,0,0,2,3,1,5,0003-00-0001-91.png,0002-00-0000-62.png
00000009,159,0,1449155165430,1449155165466,904,393,0,0,0,0,1,1,1,0005-00-0000-45.png,0004-00-0000-91.png
00000009,160,1,1449155168633,1449155169422,964,381,0,0,0,3,2,1,5,0002-00-0000-51.png,0003-00-0001-89.png
00000009,161,1,1449155170432,1449155170663,891,489,0,0,0,4,3,1,7,0001-00-0001-61.png,0002-00-0000-86.png
00000009,162,1,1449155171892,1449155172714,960,286,0,0,0,1,0,1,1,0004-00-0001-29.png,0005-00-0000-83.png
00000009,163,0,1449155173860,1449155173908,887,417,0,0,0,0,1,1,1,0005-00-0000-69.png,0004-00-0001-17.png
00000009,164,0,1449155176826,1449155177852,1067,344,0,0,0,2,3,1,5,0003-00-0001-74.png,0002-00-0000-05.png
00000009,165,0,1449155181003,1449155181043,938,299,0,0,0,1,2,1,3,0004-00-0001-87.png,0003-00-0001-82.png
00000009,166,1,1449155184236,1449155184816,1045,260,0,0,0,2,1,1,3,0003-00-0000-61.png,0004-00-0001-42.png
00000009,167,0,1449155185744,1449155185941,909,515,0,0,0,3,4,1,7,0002-00-0001-96.png,0001-00-0001-36.png
00000009,168,1,1449155189014,1449155189074,887,343,0,0,0,3,2,1,5,0002-00-0001-54.png,0003-00-0001-21.png
00000009,169,1,1449155190069,1449155190154,877,455,0,0,0,1,0,1,1,0004-00-0001-72.png,0005-00-0001-05.png
00000009,170,0,1449155191299,1449155191343,870,452,0,0,0,1,2,1,3,0004-00-0001-75.png,0003-00-0001-79.png
00000009,171,0,1449155194438,1449155195420,1067,319,0,0,0,3,4,1,7,0002-00-0000-59.png,0001-00-0001-69.png
00000009,172,0,1449155198261,1449155199125,469,283,0,0,0,2,1,1,3,0003-00-0001-42.png,0004-00-0000-79.png
00000009,173,1,1449155202248,1449155202825,478,262,0,0,0,0,1,1,1,0005-00-0001-89.png,0004-00-0001-09.png
00000009,174,0,1449155203741,1449155204574,478,235,0,0,0,4,3,1,7,0001-00-0001-70.png,0002-00-0000-99.png
00000009,175,0,1449155207696,1449155208466,1072,280,0,0,0,2,3,1,5,0003-00-0001-15.png,0002-00-0001-83.png
00000009,176,1,1449155211611,1449155212276,1067,279,0,0,0,3,2,1,5,0002-00-0001-37.png,0003-00-0001-92.png
00000009,177,1,1449155213250,1449155213294,869,429,0,0,0,4,3,1,7,0001-00-0001-65.png,0002-00-0000-64.png
00000009,178,1,1449155214414,1449155214493,876,462,0,0,0,1,0,1,1,0004-00-0000-82.png,0005-00-0000-09.png
00000009,179,1,1449155215654,1449155215722,862,425,0,0,0,3,2,1,5,0002-00-0000-04.png,0003-00-0001-05.png
00000009,180,0,1449155217177,1449155217347,877,488,0,0,0,2,3,1,5,0003-00-0000-49.png,0002-00-0000-95.png
00000009,181,1,1449155220294,1449155221176,1036,275,0,0,0,2,1,1,3,0003-00-0001-50.png,0004-00-0000-75.png
00000009,182,0,1449155222075,1449155222127,862,410,0,0,0,1,2,1,3,0004-00-0000-84.png,0003-00-0001-77.png
00000009,183,1,1449155225293,1449155225889,470,284,0,0,0,0,1,1,1,0005-00-0001-38.png,0004-00-0000-36.png
00000009,184,1,1449155226733,1449155227828,485,244,0,0,0,3,4,1,7,0002-00-0001-51.png,0001-00-0001-21.png
00000009,185,0,1449155228823,1449155228913,879,464,0,0,0,0,1,1,1,0005-00-0000-07.png,0004-00-0001-84.png
00000009,186,1,1449155231930,1449155232621,1041,279,0,0,0,3,2,1,5,0002-00-0001-30.png,0003-00-0001-39.png
00000009,187,1,1449155233500,1449155233544,888,384,0,0,0,1,0,1,1,0004-00-0000-40.png,0005-00-0001-30.png
00000009,188,1,1449155234665,1449155235986,415,350,0,0,0,2,3,1,5,0003-00-0000-77.png,0002-00-0000-03.png
00000009,189,1,1449155237170,1449155237298,920,453,0,0,0,4,3,1,7,0001-00-0001-84.png,0002-00-0001-57.png
00000009,190,0,1449155238392,1449155238449,882,415,0,0,0,3,4,1,7,0002-00-0001-70.png,0001-00-0000-12.png
00000009,191,0,1449155241572,1449155242525,1084,314,0,0,0,1,2,1,3,0004-00-0000-94.png,0003-00-0001-29.png
00000009,192,1,1449155245436,1449155246361,938,330,0,0,0,2,1,1,3,0003-00-0001-40.png,0004-00-0000-97.png
00000009,193,1,1449155247386,1449155247475,945,489,0,0,0,1,0,1,1,0004-00-0001-09.png,0005-00-0000-31.png
00000009,194,0,1449155248585,1449155248668,913,474,0,0,0,1,2,1,3,0004-00-0000-72.png,0003-00-0001-91.png
00000009,195,1,1449155251608,1449155252429,458,266,0,0,0,0,1,1,1,0005-00-0001-99.png,0004-00-0000-20.png
00000009,196,1,1449155253366,1449155253457,893,491,0,0,0,3,2,1,5,0002-00-0000-39.png,0003-00-0001-25.png
00000009,197,0,1449155254538,1449155254590,888,422,0,0,0,3,4,1,7,0002-00-0000-39.png,0001-00-0001-19.png
00000009,198,1,1449155257788,1449155258670,1041,279,0,0,0,2,1,1,3,0003-00-0001-81.png,0004-00-0000-01.png
00000009,199,0,1449155259636,1449155259750,913,462,0,0,0,2,3,1,5,0003-00-0000-46.png,0002-00-0000-13.png
00000009,200,0,1449155262945,1449155263568,494,287,0,0,0,4,3,1,7,0001-00-0001-64.png,0002-00-0000-77.png
00000009,201,0,1449155266392,1449155267307,1064,308,0,0,0,1,2,1,3,0004-00-0000-45.png,0003-00-0001-51.png
00000009,202,1,1449155270221,1449155271537,404,386,0,0,0,0,1,1,1,0005-00-0000-89.png,0004-00-0001-99.png
00000009,203,1,1449155272517,1449155272589,861,477,0,0,0,4,3,1,7,0001-00-0001-23.png,0002-00-0001-14.png
00000009,204,1,1449155273621,1449155273701,858,475,0,0,0,3,2,1,5,0002-00-0001-88.png,0003-00-0001-01.png
00000009,205,0,1449155274962,1449155274982,860,452,0,0,0,3,4,1,7,0002-00-0001-07.png,0001-00-0001-56.png
00000009,206,1,1449155278031,1449155278624,1081,309,0,0,0,1,0,1,1,0004-00-0000-98.png,0005-00-0001-83.png
00000009,207,0,1449155279540,1449155279686,919,469,0,0,0,2,3,1,5,0003-00-0001-23.png,0002-00-0001-71.png
00000009,208,1,1449155282862,1449155283534,950,332,0,0,0,2,1,1,3,0003-00-0001-11.png,0004-00-0001-72.png
00000009,209,0,1449155284492,1449155284552,888,435,0,0,0,3,4,1,7,0002-00-0001-87.png,0001-00-0000-38.png
00000009,210,1,1449155290584,1449155291327,476,276,0,0,0,2,3,1,5,0003-00-0000-70.png,0002-00-0000-17.png
00000009,211,0,1449155292251,1449155293292,929,306,0,0,0,1,2,1,3,0004-00-0000-78.png,0003-00-0000-99.png
00000009,212,1,1449155296447,1449155296471,862,342,0,0,0,1,0,1,1,0004-00-0001-30.png,0005-00-0001-76.png
00000009,213,1,1449155297516,1449155297653,908,480,0,0,0,4,3,1,7,0001-00-0000-38.png,0002-00-0000-64.png
00000009,214,0,1449155298701,1449155299726,477,265,0,0,0,2,1,1,3,0003-00-0001-01.png,0004-00-0000-23.png
00000009,215,1,1449155302586,1449155303216,498,261,0,0,0,0,1,1,1,0005-00-0000-06.png,0004-00-0000-65.png
00000009,216,1,1449155304115,1449155304185,869,443,0,0,0,3,2,1,5,0002-00-0001-08.png,0003-00-0000-95.png
00000009,217,1,1449155305150,1449155305253,875,463,0,0,0,1,0,1,1,0004-00-0000-72.png,0005-00-0000-52.png
00000009,218,1,1449155306303,1449155306359,867,450,0,0,0,2,1,1,3,0003-00-0001-81.png,0004-00-0001-04.png
00000009,219,0,1449155307517,1449155308248,504,241,0,0,0,4,3,1,7,0001-00-0001-36.png,0002-00-0000-42.png
00000009,220,1,1449155311111,1449155311696,476,294,0,0,0,0,1,1,1,0005-00-0001-47.png,0004-00-0000-70.png
00000009,221,0,1449155312594,1449155313800,1045,290,0,0,0,2,3,1,5,0003-00-0000-14.png,0002-00-0000-42.png
00000009,222,0,1449155316936,1449155317747,968,327,0,0,0,3,4,1,7,0002-00-0000-53.png,0001-00-0001-54.png
00000009,223,1,1449155320676,1449155321563,939,344,0,0,0,3,2,1,5,0002-00-0000-11.png,0003-00-0001-30.png
00000009,224,0,1449155322543,1449155322597,862,423,0,0,0,1,2,1,3,0004-00-0001-65.png,0003-00-0001-86.png
00000009,225,1,1449155325462,1449155326473,491,243,0,0,0,0,1,1,1,0005-00-0000-50.png,0004-00-0000-71.png
00000009,226,1,1449155327421,1449155328455,964,395,0,0,0,3,2,1,5,0002-00-0000-45.png,0003-00-0000-72.png
00000009,227,0,1449155329426,1449155329481,924,391,0,0,0,3,4,1,7,0002-00-0001-20.png,0001-00-0000-79.png
00000009,228,0,1449155332578,1449155332602,889,371,0,0,0,2,3,1,5,0003-00-0001-77.png,0002-00-0000-37.png
00000009,229,1,1449155335819,1449155336522,937,301,0,0,0,2,1,1,3,0003-00-0000-39.png,0004-00-0000-61.png
00000009,230,1,1449155337432,1449155337484,862,436,0,0,0,4,3,1,7,0001-00-0001-13.png,0002-00-0000-51.png
00000009,231,1,1449155338540,1449155338623,898,436,0,0,0,1,0,1,1,0004-00-0000-53.png,0005-00-0000-69.png
00000009,232,0,1449155339667,1449155339746,898,436,0,0,0,1,2,1,3,0004-00-0000-17.png,0003-00-0000-10.png
00000009,233,1,1449155342734,1449155342907,1005,306,0,0,0,1,0,1,1,0004-00-0001-99.png,0005-00-0000-06.png
00000009,234,1,1449155343923,1449155344085,937,491,0,0,0,3,2,1,5,0002-00-0001-20.png,0003-00-0000-58.png
00000009,235,0,1449155345146,1449155346226,937,333,0,0,0,2,3,1,5,0003-00-0001-90.png,0002-00-0000-93.png
00000009,236,0,1449155349329,1449155349884,944,301,0,0,0,1,2,1,3,0004-00-0000-40.png,0003-00-0000-73.png
00000009,237,1,1449155353047,1449155353804,942,325,0,0,0,4,3,1,7,0001-00-0000-37.png,0002-00-0001-92.png
00000009,238,0,1449155354806,1449155354896,903,471,0,0,0,0,1,1,1,0005-00-0000-90.png,0004-00-0001-94.png
00000009,239,1,1449155358116,1449155358671,478,268,0,0,0,3,4,1,7,0002-00-0000-15.png,0001-00-0000-92.png
00000009,240,1,1449155359652,1449155359752,916,480,0,0,0,2,1,1,3,0003-00-0001-75.png,0004-00-0001-60.png
00000009,241,1,1449155360710,1449155360797,909,452,0,0,0,3,2,1,5,0002-00-0001-69.png,0003-00-0000-61.png
00000009,242,0,1449155361904,1449155361979,896,460,0,0,0,2,3,1,5,0003-00-0000-60.png,0002-00-0000-34.png
00000009,243,1,1449155365039,1449155365616,1050,279,0,0,0,1,0,1,1,0004-00-0001-82.png,0005-00-0001-65.png
00000009,244,1,1449155366510,1449155366606,913,462,0,0,0,4,3,1,7,0001-00-0001-56.png,0002-00-0001-94.png
00000009,245,0,1449155367679,1449155369027,964,329,0,0,0,3,4,1,7,0002-00-0001-62.png,0001-00-0001-20.png
00000009,246,0,1449155372208,1449155372331,890,280,0,0,0,0,1,1,1,0005-00-0000-27.png,0004-00-0001-96.png
00000009,247,0,1449155375431,1449155376400,1041,306,0,0,0,1,2,1,3,0004-00-0000-34.png,0003-00-0001-69.png
00000009,248,1,1449155379383,1449155380008,1067,279,0,0,0,2,1,1,3,0003-00-0001-50.png,0004-00-0000-18.png
00000009,249,1,1449155380993,1449155381088,915,413,0,0,0,1,0,1,1,0004-00-0000-61.png,0005-00-0000-90.png
00000009,250,0,1449155382101,1449155382184,897,440,0,0,0,1,2,1,3,0004-00-0000-42.png,0003-00-0000-91.png
00000009,251,1,1449155385198,1449155385907,462,279,0,0,0,2,3,1,5,0003-00-0001-75.png,0002-00-0000-77.png
00000009,252,1,1449155386922,1449155388031,1072,307,0,0,0,3,2,1,5,0002-00-0001-35.png,0003-00-0000-98.png
00000009,253,0,1449155389799,1449155390553,396,352,0,0,0,4,3,1,7,0001-00-0000-92.png,0002-00-0001-32.png
00000009,254,0,1449155393512,1449155393555,888,410,0,0,0,0,1,1,1,0005-00-0001-73.png,0004-00-0001-11.png
00000009,255,1,1449155396590,1449155396638,892,325,0,0,0,2,1,1,3,0003-00-0000-35.png,0004-00-0001-91.png
00000009,256,0,1449155397623,1449155397766,888,462,0,0,0,3,4,1,7,0002-00-0000-08.png,0001-00-0000-10.png
00000009,257,0,1449155401018,1449155402138,469,294,0,0,0,2,1,1,3,0003-00-0000-95.png,0004-00-0001-64.png
00000009,258,1,1449155405082,1449155405139,913,423,0,0,0,1,0,1,1,0004-00-0001-39.png,0005-00-0001-16.png
00000009,259,0,1449155406181,1449155406264,904,483,0,0,0,0,1,1,1,0005-00-0000-24.png,0004-00-0001-21.png
00000009,260,0,1449155409499,1449155410107,507,277,0,0,0,4,3,1,7,0001-00-0000-60.png,0002-00-0000-59.png
00000009,261,0,1449155412973,1449155413785,955,335,0,0,0,2,3,1,5,0003-00-0001-41.png,0002-00-0001-42.png
00000009,262,0,1449155416921,1449155417517,1067,279,0,0,0,3,4,1,7,0002-00-0001-40.png,0001-00-0001-05.png
00000009,263,1,1449155429899,1449155430666,470,249,0,0,0,1,2,1,3,0004-00-0000-01.png,0003-00-0001-30.png
00000009,264,1,1449155431731,1449155431743,867,409,0,0,0,3,2,1,5,0002-00-0000-93.png,0003-00-0000-91.png
00000009,265,1,1449155432743,1449155432862,888,488,0,0,0,3,2,1,5,0002-00-0001-61.png,0003-00-0000-48.png
00000009,266,0,1449155434065,1449155434358,920,540,0,0,0,1,2,1,3,0004-00-0001-22.png,0003-00-0001-55.png
00000009,267,1,1449155437369,1449155437413,946,455,0,0,0,2,1,1,3,0003-00-0000-41.png,0004-00-0001-68.png
00000009,268,0,1449155438508,1449155438635,868,489,0,0,0,2,3,1,5,0003-00-0001-88.png,0002-00-0000-83.png
00000009,269,1,1449155441963,1449155442591,920,338,0,0,0,1,0,1,1,0004-00-0000-01.png,0005-00-0000-71.png
00000009,270,0,1449155443545,1449155443625,867,435,0,0,0,3,4,1,7,0002-00-0000-72.png,0001-00-0000-33.png
00000009,271,0,1449155446585,1449155446655,888,397,0,0,0,0,1,1,1,0005-00-0000-44.png,0004-00-0000-21.png
00000009,272,1,1449155449737,1449155450361,939,318,0,0,0,4,3,1,7,0001-00-0001-95.png,0002-00-0001-94.png
00000009,273,1,1449155451414,1449155451466,892,390,0,0,0,2,1,1,3,0003-00-0001-22.png,0004-00-0001-04.png
00000009,274,1,1449155452460,1449155452524,873,436,0,0,0,1,0,1,1,0004-00-0000-04.png,0005-00-0001-45.png
00000009,275,0,1449155453662,1449155453722,862,462,0,0,0,3,4,1,7,0002-00-0000-11.png,0001-00-0001-42.png
00000009,276,0,1449155456956,1449155457782,939,358,0,0,0,2,3,1,5,0003-00-0001-31.png,0002-00-0001-66.png
00000009,277,0,1449155460757,1449155461375,1027,279,0,0,0,1,2,1,3,0004-00-0000-31.png,0003-00-0000-20.png
00000009,278,1,1449155464415,1449155465192,963,331,0,0,0,3,2,1,5,0002-00-0000-50.png,0003-00-0000-98.png
00000009,279,1,1449155466134,1449155466158,889,376,0,0,0,4,3,1,7,0001-00-0000-84.png,0002-00-0000-15.png
00000009,280,0,1449155467189,1449155467229,864,417,0,0,0,0,1,1,1,0005-00-0000-95.png,0004-00-0000-62.png
00000009,281,1,1449155470435,1449155470523,876,282,0,0,0,4,3,1,7,0001-00-0001-56.png,0002-00-0000-07.png
00000009,282,1,1449155471500,1449155471588,888,421,0,0,0,2,1,1,3,0003-00-0000-81.png,0004-00-0001-23.png
00000009,283,0,1449155472543,1449155473489,954,400,0,0,0,3,4,1,7,0002-00-0000-41.png,0001-00-0001-62.png
00000009,284,0,1449155476619,1449155477171,940,307,0,0,0,1,2,1,3,0004-00-0000-80.png,0003-00-0001-39.png
00000009,285,1,1449155480344,1449155480936,964,321,0,0,0,1,0,1,1,0004-00-0001-86.png,0005-00-0000-38.png
00000009,286,0,1449155481956,1449155482007,924,453,0,0,0,0,1,1,1,0005-00-0000-09.png,0004-00-0000-71.png
00000009,287,1,1449155485076,1449155485095,862,296,0,0,0,3,2,1,5,0002-00-0001-70.png,0003-00-0000-29.png
00000009,288,0,1449155486218,1449155486314,868,442,0,0,0,2,3,1,5,0003-00-0000-09.png,0002-00-0001-14.png
00000009,289,1,1449155489619,1449155490251,1016,268,0,0,0,1,0,1,1,0004-00-0000-54.png,0005-00-0000-55.png
00000009,290,0,1449155491245,1449155491289,862,452,0,0,0,1,2,1,3,0004-00-0001-83.png,0003-00-0001-02.png
00000009,291,0,1449155494508,1449155494520,862,332,0,0,0,2,3,1,5,0003-00-0001-73.png,0002-00-0000-78.png
00000009,292,1,1449155497783,1449155497813,862,375,0,0,0,3,2,1,5,0002-00-0000-68.png,0003-00-0000-50.png
00000009,293,0,1449155498849,1449155499846,1063,302,0,0,0,3,4,1,7,0002-00-0001-53.png,0001-00-0001-22.png
00000009,294,0,1449155502962,1449155503870,489,283,0,0,0,2,1,1,3,0003-00-0001-39.png,0004-00-0001-67.png
00000009,295,1,1449155506739,1449155507311,459,274,0,0,0,0,1,1,1,0005-00-0001-75.png,0004-00-0001-13.png
00000009,296,1,1449155508220,1449155508276,863,464,0,0,0,4,3,1,7,0001-00-0001-75.png,0002-00-0000-85.png
00000009,297,1,1449155509304,1449155509411,862,488,0,0,0,1,0,1,1,0004-00-0001-23.png,0005-00-0001-05.png
00000009,298,0,1449155510564,1449155510640,862,436,0,0,0,0,1,1,1,0005-00-0000-27.png,0004-00-0000-92.png
00000009,299,1,1449155514501,1449155515129,453,292,0,0,0,3,4,1,7,0002-00-0000-71.png,0001-00-0000-08.png
00000009,300,1,1449155516090,1449155517154,925,354,0,0,0,3,2,1,5,0002-00-0001-47.png,0003-00-0000-19.png
00000009,301,0,1449155518165,1449155518268,878,462,0,0,0,1,2,1,3,0004-00-0000-90.png,0003-00-0000-59.png
00000009,302,0,1449155521307,1449155521935,485,261,0,0,0,4,3,1,7,0001-00-0000-99.png,0002-00-0000-93.png
00000009,303,0,1449155524837,1449155525801,464,255,0,0,0,2,1,1,3,0003-00-0000-10.png,0004-00-0001-13.png
00000009,304,0,1449155528970,1449155529585,1041,265,0,0,0,2,3,1,5,0003-00-0000-38.png,0002-00-0001-54.png
00000009,305,0,1449155533432,1449155533567,857,409,0,0,0,2,3,1,5,0003-00-0000-81.png,0002-00-0001-58.png
00000009,306,0,1449155536750,1449155537278,1046,270,0,0,0,3,4,1,7,0002-00-0000-03.png,0001-00-0001-19.png
00000009,307,1,1449155540348,1449155540380,898,358,0,0,0,3,2,1,5,0002-00-0001-09.png,0003-00-0001-46.png
00000009,308,0,1449155541389,1449155542290,490,250,0,0,0,2,1,1,3,0003-00-0000-76.png,0004-00-0000-64.png
00000009,309,0,1449155545727,1449155546301,502,290,0,0,0,4,3,1,7,0001-00-0001-16.png,0002-00-0000-92.png
00000009,310,0,1449155549604,1449155550124,912,347,0,0,0,1,2,1,3,0004-00-0001-94.png,0003-00-0000-32.png
00000009,311,1,1449155553238,1449155553258,868,330,0,0,0,1,0,1,1,0004-00-0001-42.png,0005-00-0001-50.png
00000009,312,0,1449155554233,1449155554285,884,413,0,0,0,0,1,1,1,0005-00-0000-00.png,0004-00-0000-35.png
00000009,313,1,1449155557254,1449155557856,939,292,0,0,0,1,0,1,1,0004-00-0000-02.png,0005-00-0001-11.png
00000009,314,0,1449155558786,1449155558794,908,408,0,0,0,0,1,1,1,0005-00-0000-85.png,0004-00-0000-95.png
00000009,315,0,1449155561763,1449155562422,1063,281,0,0,0,3,4,1,7,0002-00-0001-21.png,0001-00-0000-31.png
00000009,316,0,1449155565559,1449155565603,913,328,0,0,0,2,3,1,5,0003-00-0000-61.png,0002-00-0001-93.png
00000009,317,0,1449155570691,1449155571149,478,253,0,0,0,4,3,1,7,0001-00-0001-16.png,0002-00-0001-76.png
00000009,318,1,1449155574348,1449155574416,1013,301,0,0,0,3,2,1,5,0002-00-0000-04.png,0003-00-0000-88.png
00000009,319,1,1449155575322,1449155576241,1016,237,0,0,0,2,1,1,3,0003-00-0001-80.png,0004-00-0001-58.png
00000009,320,0,1449155577160,1449155577192,861,413,0,0,0,1,2,1,3,0004-00-0000-19.png,0003-00-0000-15.png
00000009,321,1,1449155580110,1449155580198,924,351,0,0,0,3,2,1,5,0002-00-0001-74.png,0003-00-0001-66.png
00000009,322,0,1449155581216,1449155581238,859,426,0,0,0,3,4,1,7,0002-00-0000-18.png,0001-00-0001-91.png
00000009,323,1,1449155584304,1449155584340,872,384,0,0,0,1,0,1,1,0004-00-0001-54.png,0005-00-0000-17.png
00000009,324,0,1449155585310,1449155585330,867,412,0,0,0,0,1,1,1,0005-00-0000-12.png,0004-00-0000-49.png
00000009,325,1,1449155588289,1449155589439,1018,282,0,0,0,4,3,1,7,0001-00-0001-63.png,0002-00-0001-70.png
00000009,326,1,1449155590320,1449155591482,490,254,0,0,0,1,2,1,3,0004-00-0000-37.png,0003-00-0001-26.png
00000009,327,0,1449155592476,1449155592559,894,455,0,0,0,2,3,1,5,0003-00-0001-46.png,0002-00-0001-08.png
00000009,328,1,1449155595702,1449155596300,1012,303,0,0,0,2,1,1,3,0003-00-0001-13.png,0004-00-0001-91.png
00000009,329,0,1449155597233,1449155597314,888,462,0,0,0,0,1,1,1,0005-00-0000-11.png,0004-00-0000-38.png
00000009,330,0,1449155600297,1449155600898,913,323,0,0,0,3,4,1,7,0002-00-0001-40.png,0001-00-0000-59.png
00000009,331,1,1449155603926,1449155604446,1036,261,0,0,0,1,0,1,1,0004-00-0000-84.png,0005-00-0000-64.png
00000009,332,0,1449155605312,1449155607213,414,253,0,0,0,4,3,1,7,0001-00-0000-41.png,0002-00-0001-04.png
00000009,333,1,1449155610092,1449155610780,383,385,0,0,0,2,3,1,5,0003-00-0001-19.png,0002-00-0000-78.png
00000009,334,0,1449155611772,1449155611832,899,436,0,0,0,1,2,1,3,0004-00-0000-85.png,0003-00-0001-26.png
00000009,335,0,1449155614783,1449155615660,454,264,0,0,0,2,1,1,3,0003-00-0000-86.png,0004-00-0001-33.png
00000009,336,0,1449155619219,1449155620247,441,270,0,0,0,3,2,1,5,0002-00-0001-51.png,0003-00-0000-58.png
00000009,337,1,1449155623381,1449155624003,1022,278,0,0,0,3,2,1,5,0002-00-0001-25.png,0003-00-0000-55.png
00000009,338,1,1449155624979,1449155625762,962,402,0,0,0,1,0,1,1,0004-00-0000-42.png,0005-00-0001-46.png
00000009,339,0,1449155626711,1449155626818,948,477,0,0,0,1,2,1,3,0004-00-0000-84.png,0003-00-0001-37.png
00000009,340,1,1449155629749,1449155630314,939,307,0,0,0,2,1,1,3,0003-00-0001-42.png,0004-00-0000-56.png
00000009,341,0,1449155631261,1449155631285,885,436,0,0,0,0,1,1,1,0005-00-0000-34.png,0004-00-0000-08.png
00000009,342,0,1449155634262,1449155635239,915,330,0,0,0,2,3,1,5,0003-00-0001-73.png,0002-00-0000-20.png
00000009,343,0,1449155638169,1449155638735,964,400,0,0,0,3,4,1,7,0002-00-0001-21.png,0001-00-0001-67.png
00000009,344,0,1449155641975,1449155642771,506,271,0,0,0,4,3,1,7,0001-00-0000-59.png,0002-00-0001-73.png
00000009,345,1,1449155645709,1449155646368,483,273,0,0,0,2,3,1,5,0003-00-0000-81.png,0002-00-0001-25.png
00000009,346,1,1449155647369,1449155647461,921,455,0,0,0,1,0,1,1,0004-00-0001-19.png,0005-00-0000-85.png
00000009,347,1,1449155648422,1449155648455,894,425,0,0,0,3,2,1,5,0002-00-0000-64.png,0003-00-0001-19.png
00000009,348,1,1449155649636,1449155649704,883,410,0,0,0,2,1,1,3,0003-00-0001-34.png,0004-00-0001-18.png
00000009,349,0,1449155650887,1449155650963,880,447,0,0,0,3,4,1,7,0002-00-0001-28.png,0001-00-0000-91.png
00000009,350,1,1449155654035,1449155654614,460,267,0,0,0,0,1,1,1,0005-00-0001-78.png,0004-00-0001-95.png
00000009,351,1,1449155655488,1449155656616,414,331,0,0,0,1,2,1,3,0004-00-0000-53.png,0003-00-0001-58.png
00000009,352,1,1449155657634,1449155657686,862,477,0,0,0,4,3,1,7,0001-00-0001-63.png,0002-00-0000-48.png
00000009,353,0,1449155658766,1449155659976,954,336,0,0,0,3,4,1,7,0002-00-0001-00.png,0001-00-0001-05.png
00000009,354,1,1449155662950,1449155663471,1067,298,0,0,0,1,0,1,1,0004-00-0001-18.png,0005-00-0000-13.png
00000009,355,1,1449155664403,1449155664475,903,477,0,0,0,2,1,1,3,0003-00-0000-19.png,0004-00-0001-43.png
00000009,356,1,1449155665506,1449155665588,862,478,0,0,0,3,2,1,5,0002-00-0000-58.png,0003-00-0000-86.png
00000009,357,1,1449155666649,1449155666717,857,472,0,0,0,4,3,1,7,0001-00-0000-84.png,0002-00-0001-33.png
00000009,358,0,1449155667810,1449155667878,886,487,0,0,0,2,3,1,5,0003-00-0001-59.png,0002-00-0001-15.png
00000009,359,1,1449155670962,1449155671532,430,404,0,0,0,0,1,1,1,0005-00-0001-86.png,0004-00-0000-12.png
00000009,360,0,1449155672400,1449155673430,1041,294,0,0,0,1,2,1,3,0004-00-0001-75.png,0003-00-0001-08.png
00000009,361,0,1449155676597,1449155676601,893,326,0,0,0,0,1,1,1,0005-00-0001-01.png,0004-00-0000-44.png
00000009,362,1,1449155682540,1449155682560,908,341,0,0,0,3,2,1,5,0002-00-0000-08.png,0003-00-0001-91.png
00000009,363,0,1449155683553,1449155684407,1044,308,0,0,0,2,3,1,5,0003-00-0000-95.png,0002-00-0001-75.png
00000009,364,0,1449155687519,1449155687605,878,306,0,0,0,1,2,1,3,0004-00-0000-76.png,0003-00-0001-46.png
00000009,365,1,1449155690697,1449155691291,1066,276,0,0,0,2,1,1,3,0003-00-0000-74.png,0004-00-0000-63.png
00000009,366,1,1449155692207,1449155692291,890,469,0,0,0,4,3,1,7,0001-00-0001-59.png,0002-00-0000-90.png
00000009,367,0,1449155693272,1449155693445,892,517,0,0,0,3,4,1,7,0002-00-0001-08.png,0001-00-0000-01.png
00000009,368,1,1449155696280,1449155696805,947,376,0,0,0,1,0,1,1,0004-00-0000-12.png,0005-00-0001-88.png
00000009,369,1,1449155697672,1449155697716,866,450,0,0,0,4,3,1,7,0001-00-0000-91.png,0002-00-0001-38.png
00000009,370,0,1449155698758,1449155698879,872,492,0,0,0,3,4,1,7,0002-00-0001-37.png,0001-00-0001-58.png
00000009,371,1,1449155701817,1449155702624,1067,291,0,0,0,3,2,1,5,0002-00-0000-92.png,0003-00-0001-05.png
00000009,372,1,1449155703575,1449155703653,909,466,0,0,0,2,1,1,3,0003-00-0001-62.png,0004-00-0000-61.png
00000009,373,1,1449155704591,1449155704718,890,468,0,0,0,1,0,1,1,0004-00-0000-06.png,0005-00-0000-98.png
00000009,374,0,1449155705763,1449155705863,882,493,0,0,0,1,2,1,3,0004-00-0000-76.png,0003-00-0001-16.png
00000009,375,1,1449155709013,1449155709739,508,282,0,0,0,2,3,1,5,0003-00-0001-10.png,0002-00-0001-73.png
00000009,376,0,1449155710692,1449155710759,876,434,0,0,0,0,1,1,1,0005-00-0000-85.png,0004-00-0001-76.png
00000009,377,1,1449155713771,1449155714248,964,293,0,0,0,1,0,1,1,0004-00-0001-79.png,0005-00-0001-23.png
00000009,378,1,1449155715122,1449155715170,887,410,0,0,0,2,1,1,3,0003-00-0001-10.png,0004-00-0001-05.png
00000009,379,1,1449155716100,1449155716964,436,299,0,0,0,1,2,1,3,0004-00-0000-29.png,0003-00-0000-50.png
00000009,380,0,1449155717946,1449155718982,920,401,0,0,0,3,4,1,7,0002-00-0001-60.png,0001-00-0001-26.png
00000009,381,0,1449155721821,1449155722404,488,275,0,0,0,4,3,1,7,0001-00-0000-28.png,0002-00-0001-28.png
00000009,382,1,1449155725556,1449155726339,488,284,0,0,0,2,3,1,5,0003-00-0001-78.png,0002-00-0000-17.png
00000009,383,1,1449155727318,1449155727471,888,502,0,0,0,3,2,1,5,0002-00-0001-89.png,0003-00-0001-04.png
00000009,384,1,1449155728537,1449155729232,484,247,0,0,0,0,1,1,1,0005-00-0000-87.png,0004-00-0000-30.png
00000009,385,1,1449155730307,1449155730990,907,335,0,0,0,2,1,1,3,0003-00-0000-02.png,0004-00-0001-06.png
00000009,386,0,1449155732118,1449155732182,894,428,0,0,0,3,4,1,7,0002-00-0001-11.png,0001-00-0000-87.png
00000009,387,1,1449155735297,1449155735957,489,279,0,0,0,1,2,1,3,0004-00-0001-53.png,0003-00-0001-98.png
00000009,388,1,1449155736886,1449155737025,880,469,0,0,0,1,0,1,1,0004-00-0000-90.png,0005-00-0001-82.png
00000009,389,0,1449155738010,1449155738090,888,436,0,0,0,2,3,1,5,0003-00-0001-64.png,0002-00-0000-87.png
00000009,390,1,1449155741230,1449155741793,492,277,0,0,0,0,1,1,1,0005-00-0001-18.png,0004-00-0001-15.png
00000009,391,0,1449155742700,1449155743901,496,244,0,0,0,3,2,1,5,0002-00-0001-57.png,0003-00-0000-45.png
00000009,392,1,1449155746750,1449155746802,909,435,0,0,0,4,3,1,7,0001-00-0001-08.png,0002-00-0001-71.png
00000009,393,0,1449155747817,1449155748869,1041,291,0,0,0,3,4,1,7,0002-00-0001-22.png,0001-00-0000-62.png
00000009,394,1,1449155751811,1449155752384,1051,282,0,0,0,1,0,1,1,0004-00-0000-88.png,0005-00-0000-08.png
00000009,395,1,1449155753282,1449155753346,888,448,0,0,0,4,3,1,7,0001-00-0000-11.png,0002-00-0000-51.png
00000009,396,1,1449155754349,1449155754417,862,425,0,0,0,3,2,1,5,0002-00-0000-36.png,0003-00-0001-39.png
00000009,397,0,1449155755428,1449155755526,862,477,0,0,0,2,3,1,5,0003-00-0001-27.png,0002-00-0000-69.png
00000009,398,0,1449155758482,1449155759134,939,393,0,0,0,1,2,1,3,0004-00-0001-14.png,0003-00-0000-10.png
00000009,399,1,1449155762062,1449155762763,1036,281,0,0,0,2,1,1,3,0003-00-0000-10.png,0004-00-0001-69.png
00000009,400,0,1449155763699,1449155763798,879,462,0,0,0,0,1,1,1,0005-00-0001-07.png,0004-00-0000-79.png
00000009,401,1,1449155767000,1449155767541,502,279,0,0,0,0,1,1,1,0005-00-0000-20.png,0004-00-0000-61.png
00000009,402,0,1449155768377,1449155769947,911,318,0,0,0,1,2,1,3,0004-00-0000-70.png,0003-00-0001-86.png
00000009,403,0,1449155772943,1449155773496,500,282,0,0,0,2,1,1,3,0003-00-0001-55.png,0004-00-0001-90.png
00000009,404,1,1449155776578,1449155777383,480,257,0,0,0,3,4,1,7,0002-00-0000-30.png,0001-00-0000-50.png
00000009,405,1,1449155778276,1449155778315,865,392,0,0,0,3,2,1,5,0002-00-0001-14.png,0003-00-0000-60.png
00000009,406,0,1449155779311,1449155779395,871,436,0,0,0,2,3,1,5,0003-00-0001-43.png,0002-00-0000-99.png
00000009,407,1,1449155782376,1449155782995,934,404,0,0,0,1,0,1,1,0004-00-0000-79.png,0005-00-0001-73.png
00000009,408,0,1449155783841,1449155784904,434,374,0,0,0,4,3,1,7,0001-00-0001-99.png,0002-00-0001-70.png
00000009,409,0,1449155787928,1449155788773,918,337,0,0,0,1,2,1,3,0004-00-0001-49.png,0003-00-0001-65.png
00000009,410,0,1449155791824,1449155792398,1072,284,0,0,0,3,4,1,7,0002-00-0000-70.png,0001-00-0001-92.png
00000009,411,1,1449155795531,1449155795587,902,339,0,0,0,4,3,1,7,0001-00-0001-04.png,0002-00-0000-44.png
00000009,412,1,1449155796573,1449155796640,864,440,0,0,0,1,0,1,1,0004-00-0000-53.png,0005-00-0000-26.png
00000009,413,1,1449155797547,1449155797591,862,410,0,0,0,2,1,1,3,0003-00-0000-91.png,0004-00-0000-26.png
00000009,414,0,1449155798699,1449155798812,879,443,0,0,0,0,1,1,1,0005-00-0000-16.png,0004-00-0000-80.png
00000009,415,1,1449155801767,1449155802342,943,325,0,0,0,3,2,1,5,0002-00-0001-41.png,0003-00-0001-03.png
00000009,416,0,1449155803252,1449155803347,888,451,0,0,0,2,3,1,5,0003-00-0000-74.png,0002-00-0000-41.png
00000009,417,0,1449155806302,1449155807120,935,321,0,0,0,2,3,1,5,0003-00-0000-78.png,0002-00-0001-03.png
00000009,418,1,1449155810090,1449155810826,962,302,0,0,0,4,3,1,7,0001-00-0000-29.png,0002-00-0000-97.png
00000009,419,0,1449155811801,1449155811892,910,465,0,0,0,0,1,1,1,0005-00-0001-83.png,0004-00-0001-71.png
00000009,420,1,1449155815088,1449155815131,895,323,0,0,0,2,1,1,3,0003-00-0000-54.png,0004-00-0000-46.png
00000009,421,0,1449155816152,1449155817084,513,239,0,0,0,3,2,1,5,0002-00-0000-72.png,0003-00-0000-21.png
00000009,422,1,1449155819943,1449155820018,909,408,0,0,0,1,0,1,1,0004-00-0000-83.png,0005-00-0001-93.png
00000009,423,0,1449155821055,1449155821139,862,488,0,0,0,3,4,1,7,0002-00-0000-90.png,0001-00-0001-34.png
00000009,424,0,1449155824180,1449155824251,910,357,0,0,0,1,2,1,3,0004-00-0000-64.png,0003-00-0001-05.png
00000009,425,1,1449155827132,1449155827718,939,372,0,0,0,3,2,1,5,0002-00-0001-21.png,0003-00-0000-71.png
00000009,426,0,1449155828644,1449155828746,883,421,0,0,0,3,4,1,7,0002-00-0000-13.png,0001-00-0001-67.png
00000009,427,1,1449155831872,1449155832648,965,399,0,0,0,1,0,1,1,0004-00-0001-35.png,0005-00-0000-89.png
00000009,428,0,1449155833499,1449155833634,888,462,0,0,0,0,1,1,1,0005-00-0000-47.png,0004-00-0001-71.png
00000009,429,1,1449155836812,1449155837524,1048,261,0,0,0,4,3,1,7,0001-00-0001-45.png,0002-00-0000-87.png
00000009,430,0,1449155838460,1449155838555,884,463,0,0,0,2,3,1,5,0003-00-0001-19.png,0002-00-0001-03.png
00000009,431,0,1449155841603,1449155842221,1016,279,0,0,0,1,2,1,3,0004-00-0000-14.png,0003-00-0001-70.png
00000009,432,1,1449155845056,1449155845664,964,410,0,0,0,2,1,1,3,0003-00-0000-02.png,0004-00-0000-55.png
00000009,433,1,1449155846587,1449155847754,483,248,0,0,0,2,3,1,5,0003-00-0000-51.png,0002-00-0001-12.png
00000009,434,1,1449155848708,1449155848829,867,469,0,0,0,1,0,1,1,0004-00-0000-09.png,0005-00-0000-77.png
00000009,435,1,1449155849779,1449155849941,888,488,0,0,0,2,1,1,3,0003-00-0000-38.png,0004-00-0000-05.png
00000009,436,1,1449155851032,1449155851104,913,451,0,0,0,3,2,1,5,0002-00-0001-53.png,0003-00-0000-85.png
00000009,437,0,1449155852183,1449155852517,903,541,0,0,0,0,1,1,1,0005-00-0000-39.png,0004-00-0000-16.png
00000009,438,1,1449155856301,1449155856916,455,283,0,0,0,3,4,1,7,0002-00-0001-35.png,0001-00-0001-45.png
00000009,439,1,1449155857808,1449155858777,1041,270,0,0,0,4,3,1,7,0001-00-0001-17.png,0002-00-0001-68.png
00000009,440,0,1449155859746,1449155859829,893,442,0,0,0,1,2,1,3,0004-00-0001-18.png,0003-00-0001-25.png
00000009,441,0,1449155862707,1449155863419,1065,304,0,0,0,1,2,1,3,0004-00-0001-06.png,0003-00-0001-32.png
00000009,442,0,1449155866570,1449155867377,486,257,0,0,0,4,3,1,7,0001-00-0000-81.png,0002-00-0001-10.png
00000009,443,0,1449155870390,1449155870667,934,369,0,0,0,2,3,1,5,0003-00-0000-45.png,0002-00-0000-06.png
00000009,444,0,1449155873859,1449155874523,479,288,0,0,0,2,1,1,3,0003-00-0000-32.png,0004-00-0000-87.png
00000009,445,0,1449155877404,1449155877448,862,410,0,0,0,3,4,1,7,0002-00-0000-00.png,0001-00-0001-91.png
00000009,446,0,1449155880625,1449155880748,884,282,0,0,0,0,1,1,1,0005-00-0000-34.png,0004-00-0000-73.png
00000009,447,1,1449155883748,1449155884288,1082,282,0,0,0,1,0,1,1,0004-00-0001-43.png,0005-00-0000-22.png
00000009,448,1,1449155885228,1449155885315,888,462,0,0,0,3,2,1,5,0002-00-0001-22.png,0003-00-0000-16.png
00000009,449,0,1449155886281,1449155887471,934,356,0,0,0,3,4,1,7,0002-00-0000-44.png,0001-00-0000-30.png
00000009,450,1,1449155890634,1449155890672,862,347,0,0,0,4,3,1,7,0001-00-0000-10.png,0002-00-0000-92.png
00000009,451,0,1449155891598,1449155892566,1016,269,0,0,0,1,2,1,3,0004-00-0000-89.png,0003-00-0001-94.png
00000009,452,1,1449155895435,1449155895970,912,328,0,0,0,1,0,1,1,0004-00-0001-34.png,0005-00-0000-34.png
00000009,453,1,1449155896926,1449155896954,869,429,0,0,0,2,1,1,3,0003-00-0000-37.png,0004-00-0001-55.png
00000009,454,1,1449155897947,1449155898059,870,473,0,0,0,3,2,1,5,0002-00-0000-28.png,0003-00-0001-71.png
00000009,455,0,1449155899113,1449155899216,901,479,0,0,0,2,3,1,5,0003-00-0000-91.png,0002-00-0001-21.png
00000009,456,1,1449155902110,1449155902605,480,275,0,0,0,0,1,1,1,0005-00-0000-41.png,0004-00-0000-51.png
00000009,457,1,1449155903504,1449155903572,867,443,0,0,0,3,2,1,5,0002-00-0000-28.png,0003-00-0000-60.png
00000009,458,1,1449155904474,1449155904526,862,436,0,0,0,1,0,1,1,0004-00-0000-14.png,0005-00-0000-74.png
00000009,459,1,1449155905670,1449155905756,888,462,0,0,0,2,1,1,3,0003-00-0001-97.png,0004-00-0000-87.png
00000009,460,0,1449155906921,1449155908130,1044,281,0,0,0,1,2,1,3,0004-00-0001-79.png,0003-00-0000-15.png
00000009,461,0,1449155911144,1449155912266,385,358,0,0,0,4,3,1,7,0001-00-0001-67.png,0002-00-0000-68.png
00000009,462,1,1449155915470,1449155916121,494,279,0,0,0,0,1,1,1,0005-00-0000-81.png,0004-00-0000-40.png
00000009,463,0,1449155917027,1449155918008,1025,279,0,0,0,3,4,1,7,0002-00-0001-11.png,0001-00-0001-72.png
00000009,464,1,1449155921150,1449155921996,507,250,0,0,0,2,3,1,5,0003-00-0001-95.png,0002-00-0000-35.png
00000009,465,0,1449155923000,1449155923134,859,449,0,0,0,2,3,1,5,0003-00-0000-85.png,0002-00-0000-05.png
00000009,466,0,1449155926279,1449155926907,1084,344,0,0,0,3,4,1,7,0002-00-0000-21.png,0001-00-0001-64.png
00000009,467,0,1449155930126,1449155930138,910,354,0,0,0,1,2,1,3,0004-00-0001-80.png,0003-00-0001-68.png
00000009,468,1,1449155933273,1449155933309,888,358,0,0,0,4,3,1,7,0001-00-0000-72.png,0002-00-0000-83.png
00000009,469,0,1449155934346,1449155934425,873,442,0,0,0,0,1,1,1,0005-00-0000-22.png,0004-00-0000-02.png
00000009,470,1,1449155937567,1449155938133,961,376,0,0,0,1,0,1,1,0004-00-0000-45.png,0005-00-0001-78.png
00000009,471,1,1449155939007,1449155939039,862,410,0,0,0,2,1,1,3,0003-00-0001-88.png,0004-00-0001-83.png
00000009,472,1,1449155940063,1449155941086,1015,282,0,0,0,3,2,1,5,0002-00-0001-70.png,0003-00-0000-40.png
00000009,473,0,1449155942028,1449155942088,909,442,0,0,0,0,1,1,1,0005-00-0000-77.png,0004-00-0000-19.png
00000009,474,0,1449155945260,1449155945280,872,350,0,0,0,2,3,1,5,0003-00-0000-47.png,0002-00-0001-24.png
00000009,475,1,1449155948201,1449155948698,1064,270,0,0,0,1,0,1,1,0004-00-0001-44.png,0005-00-0000-20.png
00000009,476,1,1449155949611,1449155949653,862,410,0,0,0,2,1,1,3,0003-00-0001-92.png,0004-00-0001-65.png
00000009,477,0,1449155950685,1449155950809,875,446,0,0,0,3,4,1,7,0002-00-0001-19.png,0001-00-0000-20.png
00000009,478,0,1449155953943,1449155953986,894,347,0,0,0,1,2,1,3,0004-00-0001-76.png,0003-00-0000-74.png
00000009,479,1,1449155956915,1449155957469,1067,279,0,0,0,3,2,1,5,0002-00-0000-92.png,0003-00-0000-30.png
00000009,480,1,1449155958408,1449155958468,892,457,0,0,0,4,3,1,7,0001-00-0001-43.png,0002-00-0001-90.png
00000009,481,0,1449155959372,1449155959491,862,452,0,0,0,3,4,1,7,0002-00-0001-73.png,0001-00-0001-76.png
00000009,482,1,1449155962651,1449155963334,964,347,0,0,0,2,1,1,3,0003-00-0001-71.png,0004-00-0000-01.png
00000009,483,0,1449155964298,1449155964457,892,503,0,0,0,0,1,1,1,0005-00-0001-06.png,0004-00-0001-24.png
00000009,484,1,1449155967599,1449155968173,478,254,0,0,0,1,2,1,3,0004-00-0000-01.png,0003-00-0000-12.png
00000009,485,1,1449155969127,1449155969199,878,480,0,0,0,4,3,1,7,0001-00-0001-65.png,0002-00-0001-08.png
00000009,486,1,1449155970103,1449155970199,865,466,0,0,0,3,2,1,5,0002-00-0000-94.png,0003-00-0000-88.png
00000009,487,0,1449155971304,1449155971412,868,491,0,0,0,2,3,1,5,0003-00-0000-66.png,0002-00-0001-52.png
00000009,488,1,1449155975211,1449155975291,939,316,0,0,0,1,0,1,1,0004-00-0000-29.png,0005-00-0000-40.png
00000009,489,1,1449155976302,1449155976355,862,488,0,0,0,1,0,1,1,0004-00-0000-02.png,0005-00-0000-99.png
00000009,490,1,1449155977396,1449155978280,505,262,0,0,0,0,1,1,1,0005-00-0001-67.png,0004-00-0000-84.png
00000009,491,0,1449155979205,1449155979292,869,449,0,0,0,1,2,1,3,0004-00-0000-54.png,0003-00-0000-07.png
00000009,492,0,1449155982314,1449155983131,928,360,0,0,0,2,3,1,5,0003-00-0000-58.png,0002-00-0001-27.png
00000009,493,1,1449155986193,1449155986891,501,281,0,0,0,3,4,1,7,0002-00-0001-08.png,0001-00-0001-53.png
00000009,494,1,1449155987822,1449155987902,862,462,0,0,0,2,1,1,3,0003-00-0001-07.png,0004-00-0000-48.png
00000009,495,1,1449155988817,1449155988878,862,441,0,0,0,3,2,1,5,0002-00-0000-57.png,0003-00-0001-70.png
00000009,496,0,1449155989929,1449155990989,490,230,0,0,0,4,3,1,7,0001-00-0000-41.png,0002-00-0001-01.png
00000009,497,0,1449155994202,1449155994238,904,358,0,0,0,2,3,1,5,0003-00-0001-01.png,0002-00-0000-63.png
00000009,498,0,1449155997371,1449155997908,1062,284,0,0,0,1,2,1,3,0004-00-0000-51.png,0003-00-0001-91.png
00000009,499,0,1449156002870,1449156003435,1095,302,0,0,0,3,4,1,7,0002-00-0001-43.png,0001-00-0000-56.png
00000009,500,1,1449156006716,1449156006760,892,308,0,0,0,2,1,1,3,0003-00-0000-92.png,0004-00-0001-68.png
00000009,501,0,1449156007897,1449156008024,861,437,0,0,0,0,1,1,1,0005-00-0001-27.png,0004-00-0001-77.png
00000009,502,1,1449156010906,1449156011673,939,410,0,0,0,3,2,1,5,0002-00-0000-72.png,0003-00-0001-11.png
00000009,503,0,1449156012741,1449156013869,461,279,0,0,0,4,3,1,7,0001-00-0001-15.png,0002-00-0000-52.png
00000009,504,0,1449156016960,1449156017492,469,294,0,0,0,1,0,1,1,0004-00-0001-82.png,0005-00-0001-81.png
00000009,505,0,1449156020548,1449156021119,462,267,0,0,0,4,3,1,7,0001-00-0001-27.png,0002-00-0001-74.png
00000009,506,1,1449156043886,1449156044655,1043,256,0,0,0,2,1,1,3,0003-00-0001-82.png,0004-00-0001-83.png
00000009,507,0,1449156045628,1449156045716,861,517,0,0,0,1,2,1,3,0004-00-0001-60.png,0003-00-0000-26.png
00000009,508,1,1449156048875,1449156049613,385,407,0,0,0,0,1,1,1,0005-00-0000-21.png,0004-00-0001-52.png
00000009,509,0,1449156050719,1449156051533,942,394,0,0,0,2,3,1,5,0003-00-0000-80.png,0002-00-0000-25.png
00000009,510,1,1449156054406,1449156054975,934,306,0,0,0,3,2,1,5,0002-00-0000-16.png,0003-00-0000-44.png
00000009,511,1,1449156055945,1449156055989,895,450,0,0,0,1,0,1,1,0004-00-0001-40.png,0005-00-0000-90.png
00000009,512,0,1449156056894,1449156057878,899,369,0,0,0,3,4,1,7,0002-00-0000-11.png,0001-00-0001-87.png
00000009,513,1,1449156060735,1449156060751,517,503,0,0,0,1,2,1,3,0004-00-0000-91.png,0003-00-0001-05.png
00000009,514,1,1449156061811,1449156062836,489,280,0,0,0,2,3,1,5,0003-00-0000-96.png,0002-00-0000-02.png
00000009,515,1,1449156063832,1449156064960,890,317,0,0,0,1,0,1,1,0004-00-0001-37.png,0005-00-0000-48.png
00000009,516,1,1449156065910,1449156066924,476,263,0,0,0,0,1,1,1,0005-00-0001-63.png,0004-00-0000-96.png
00000009,517,1,1449156067926,1449156069018,1010,288,0,0,0,2,1,1,3,0003-00-0001-52.png,0004-00-0000-18.png
00000009,518,1,1449156069962,1449156071206,491,240,0,0,0,3,4,1,7,0002-00-0000-32.png,0001-00-0001-38.png
00000009,519,1,1449156072219,1449156073299,908,320,0,0,0,4,3,1,7,0001-00-0000-50.png,0002-00-0001-49.png
00000009,520,1,1449156074279,1449156074299,865,436,0,0,0,3,2,1,5,0002-00-0000-53.png,0003-00-0000-13.png
00000009,521,1,1449156075293,1449156075360,861,466,0,0,0,2,1,1,3,0003-00-0001-10.png,0004-00-0001-19.png
00000009,522,1,1449156076383,1449156076466,872,488,0,0,0,4,3,1,7,0001-00-0000-37.png,0002-00-0000-02.png
00000009,523,0,1449156077645,1449156078728,901,323,0,0,0,1,2,1,3,0004-00-0000-87.png,0003-00-0000-77.png
00000009,524,1,1449156081968,1449156082492,1063,278,0,0,0,1,0,1,1,0004-00-0000-67.png,0005-00-0000-99.png
00000009,525,1,1449156083413,1449156084335,417,378,0,0,0,3,4,1,7,0002-00-0000-39.png,0001-00-0001-51.png
00000009,526,1,1449156085286,1449156086118,504,238,0,0,0,0,1,1,1,0005-00-0000-03.png,0004-00-0000-93.png
00000009,527,0,1449156087065,1449156088104,410,367,0,0,0,3,2,1,5,0002-00-0001-67.png,0003-00-0001-68.png
00000009,528,0,1449156091280,1449156091304,886,352,0,0,0,2,3,1,5,0003-00-0001-90.png,0002-00-0000-84.png
00000009,529,0,1449156094371,1449156094399,894,327,0,0,0,1,2,1,3,0004-00-0000-39.png,0003-00-0001-57.png
00000009,530,1,1449156097342,1449156097928,960,408,0,0,0,1,0,1,1,0004-00-0001-48.png,0005-00-0000-06.png
00000009,531,1,1449156098790,1449156098830,858,476,0,0,0,3,2,1,5,0002-00-0001-12.png,0003-00-0001-47.png
00000009,532,0,1449156099794,1449156099878,877,448,0,0,0,0,1,1,1,0005-00-0001-24.png,0004-00-0001-04.png
00000009,533,0,1449156103047,1449156104072,476,280,0,0,0,2,1,1,3,0003-00-0000-41.png,0004-00-0001-11.png
00000009,534,0,1449156107119,1449156107981,1044,302,0,0,0,2,3,1,5,0003-00-0001-50.png,0002-00-0000-38.png
00000009,535,1,1449156111009,1449156111975,1037,254,0,0,0,4,3,1,7,0001-00-0000-54.png,0002-00-0001-78.png
00000009,536,0,1449156112902,1449156112958,866,459,0,0,0,3,4,1,7,0002-00-0001-09.png,0001-00-0000-31.png
00000009,537,1,1449156115975,1449156116688,1071,313,0,0,0,3,2,1,5,0002-00-0001-49.png,0003-00-0000-88.png
00000009,538,1,1449156117717,1449156118982,490,267,0,0,0,2,3,1,5,0003-00-0001-55.png,0002-00-0000-01.png
00000009,539,1,1449156119980,1449156120842,496,261,0,0,0,0,1,1,1,0005-00-0000-89.png,0004-00-0001-09.png
00000009,540,0,1449156121908,1449156122796,409,355,0,0,0,4,3,1,7,0001-00-0001-98.png,0002-00-0000-16.png
00000009,541,1,1449156125990,1449156126465,961,300,0,0,0,1,0,1,1,0004-00-0000-51.png,0005-00-0001-30.png
00000009,542,0,1449156127331,1449156127399,894,463,0,0,0,1,2,1,3,0004-00-0000-87.png,0003-00-0000-42.png
00000009,543,0,1449156130581,1449156131176,939,395,0,0,0,3,4,1,7,0002-00-0001-79.png,0001-00-0000-85.png
00000009,544,1,1449156134088,1449156135179,945,398,0,0,0,2,1,1,3,0003-00-0000-12.png,0004-00-0000-81.png
00000009,545,0,1449156136179,1449156136989,425,323,0,0,0,4,3,1,7,0001-00-0001-98.png,0002-00-0000-73.png
00000009,546,0,1449156140137,1449156140897,462,307,0,0,0,3,2,1,5,0002-00-0000-88.png,0003-00-0000-61.png
00000009,547,1,1449156144229,1449156144261,917,357,0,0,0,1,0,1,1,0004-00-0001-63.png,0005-00-0000-61.png
00000009,548,1,1449156145301,1449156146181,472,252,0,0,0,2,3,1,5,0003-00-0001-04.png,0002-00-0000-42.png
00000009,549,1,1449156147149,1449156147967,937,382,0,0,0,2,1,1,3,0003-00-0000-65.png,0004-00-0001-12.png
00000009,550,0,1449156148927,1449156149007,884,476,0,0,0,1,2,1,3,0004-00-0001-54.png,0003-00-0000-94.png
00000009,551,1,1449156151857,1449156152490,482,279,0,0,0,0,1,1,1,0005-00-0000-53.png,0004-00-0001-80.png
00000009,552,0,1449156153436,1449156154447,1041,287,0,0,0,3,4,1,7,0002-00-0001-82.png,0001-00-0000-66.png
00000009,553,1,1449156157672,1449156158443,964,375,0,0,0,4,3,1,7,0001-00-0001-64.png,0002-00-0000-64.png
00000009,554,0,1449156159380,1449156159416,865,423,0,0,0,3,4,1,7,0002-00-0000-12.png,0001-00-0001-30.png
00000009,555,0,1449156162601,1449156163167,1041,266,0,0,0,2,3,1,5,0003-00-0000-91.png,0002-00-0000-85.png
00000009,556,1,1449156166597,1449156166609,904,356,0,0,0,2,1,1,3,0003-00-0000-65.png,0004-00-0001-25.png
00000009,557,1,1449156167621,1449156168706,1044,330,0,0,0,3,2,1,5,0002-00-0000-25.png,0003-00-0000-98.png
00000009,558,1,1449156169667,1449156169727,869,398,0,0,0,1,0,1,1,0004-00-0001-14.png,0005-00-0001-62.png
00000009,559,0,1449156170731,1449156172051,911,308,0,0,0,1,2,1,3,0004-00-0000-53.png,0003-00-0000-33.png
00000009,560,1,1449156174981,1449156175526,514,256,0,0,0,0,1,1,1,0005-00-0000-49.png,0004-00-0000-82.png
00000009,561,1,1449156176404,1449156177648,508,254,0,0,0,2,3,1,5,0003-00-0001-30.png,0002-00-0000-21.png
00000009,562,1,1449156178579,1449156179713,379,364,0,0,0,3,4,1,7,0002-00-0001-83.png,0001-00-0000-05.png
00000009,563,0,1449156180791,1449156181895,518,270,0,0,0,4,3,1,7,0001-00-0000-23.png,0002-00-0001-14.png
00000009,564,1,1449156184960,1449156185025,900,384,0,0,0,1,0,1,1,0004-00-0000-17.png,0005-00-0000-51.png
00000009,565,0,1449156186037,1449156187034,1041,279,0,0,0,1,2,1,3,0004-00-0001-58.png,0003-00-0001-95.png
00000009,566,0,1449156190128,1449156190962,508,276,0,0,0,3,2,1,5,0002-00-0000-87.png,0003-00-0000-87.png
00000009,567,0,1449156193865,1449156194729,476,289,0,0,0,2,1,1,3,0003-00-0000-47.png,0004-00-0000-24.png
00000009,568,1,1449156197682,1449156198293,505,286,0,0,0,0,1,1,1,0005-00-0000-48.png,0004-00-0001-70.png
00000009,569,0,1449156199231,1449156200546,956,316,0,0,0,3,4,1,7,0002-00-0001-15.png,0001-00-0001-88.png
00000009,570,1,1449156203595,1449156204329,960,306,0,0,0,2,1,1,3,0003-00-0001-84.png,0004-00-0001-51.png
00000009,571,1,1449156205283,1449156206763,478,244,0,0,0,2,3,1,5,0003-00-0000-23.png,0002-00-0000-05.png
00000009,572,1,1449156207757,1449156208795,946,402,0,0,0,1,0,1,1,0004-00-0001-39.png,0005-00-0001-15.png
00000009,573,0,1449156209685,1449156210611,513,283,0,0,0,3,2,1,5,0002-00-0000-23.png,0003-00-0001-57.png
00000009,574,1,1449156213710,1449156214264,508,289,0,0,0,0,1,1,1,0005-00-0000-12.png,0004-00-0001-17.png
00000009,575,1,1449156215154,1449156216120,495,239,0,0,0,1,2,1,3,0004-00-0001-35.png,0003-00-0001-59.png
00000009,576,1,1449156217190,1449156217246,862,500,0,0,0,4,3,1,7,0001-00-0000-52.png,0002-00-0000-44.png
00000009,577,0,1449156218212,1449156219708,411,351,0,0,0,2,1,1,3,0003-00-0000-98.png,0004-00-0000-08.png
00000009,578,1,1449156222871,1449156222891,862,358,0,0,0,4,3,1,7,0001-00-0000-15.png,0002-00-0001-65.png
00000009,579,0,1449156223816,1449156224744,1041,279,0,0,0,1,2,1,3,0004-00-0000-46.png,0003-00-0001-37.png
00000009,580,0,1449156227799,1449156227831,913,358,0,0,0,2,3,1,5,0003-00-0001-19.png,0002-00-0001-99.png
00000009,581,0,1449156233496,1449156233976,1042,249,0,0,0,3,4,1,7,0002-00-0000-17.png,0001-00-0000-66.png
00000009,582,0,1449156240895,1449156240930,890,309,0,0,0,0,1,1,1,0005-00-0001-43.png,0004-00-0001-10.png
00000009,583,1,1449156243896,1449156243928,900,382,0,0,0,1,0,1,1,0004-00-0000-25.png,0005-00-0001-31.png
00000009,584,0,1449156244969,1449156246040,477,228,0,0,0,3,2,1,5,0002-00-0000-67.png,0003-00-0001-56.png
00000009,585,1,1449156249199,1449156249267,960,327,0,0,0,1,0,1,1,0004-00-0001-63.png,0005-00-0000-95.png
00000009,586,1,1449156250225,1449156251287,1023,260,0,0,0,2,1,1,3,0003-00-0000-12.png,0004-00-0000-10.png
00000009,587,0,1449156252292,1449156252399,857,412,0,0,0,3,4,1,7,0002-00-0001-16.png,0001-00-0000-21.png
00000009,588,1,1449156255321,1449156255906,445,416,0,0,0,0,1,1,1,0005-00-0000-63.png,0004-00-0000-36.png
00000009,589,1,1449156256800,1449156257970,506,237,0,0,0,1,2,1,3,0004-00-0001-22.png,0003-00-0001-34.png
00000009,590,0,1449156258917,1449156259009,862,436,0,0,0,2,3,1,5,0003-00-0001-56.png,0002-00-0001-55.png
00000009,591,1,1449156262129,1449156262725,964,400,0,0,0,4,3,1,7,0001-00-0001-17.png,0002-00-0000-01.png
00000009,592,0,1449156263730,1449156264747,510,233,0,0,0,3,2,1,5,0002-00-0001-35.png,0003-00-0000-26.png
00000009,593,0,1449156267732,1449156267744,888,358,0,0,0,1,2,1,3,0004-00-0001-73.png,0003-00-0001-26.png
00000009,594,0,1449156270954,1449156271581,979,359,0,0,0,2,3,1,5,0003-00-0000-99.png,0002-00-0001-22.png
00000009,595,0,1449156274523,1449156274555,954,414,0,0,0,0,1,1,1,0005-00-0000-37.png,0004-00-0001-10.png
00000009,596,0,1449156277603,1449156277659,873,332,0,0,0,3,4,1,7,0002-00-0001-28.png,0001-00-0000-57.png
00000009,597,1,1449156280828,1449156281427,1036,288,0,0,0,1,0,1,1,0004-00-0000-48.png,0005-00-0001-23.png
00000009,598,0,1449156282309,1449156283607,504,237,0,0,0,2,1,1,3,0003-00-0000-82.png,0004-00-0000-73.png
00000009,599,1,1449156286784,1449156287464,1070,304,0,0,0,3,2,1,5,0002-00-0000-65.png,0003-00-0000-91.png
00000009,600,1,1449156288456,1449156288525,862,450,0,0,0,4,3,1,7,0001-00-0000-86.png,0002-00-0000-71.png
00000009,601,1,1449156289596,1449156291240,967,298,0,0,0,2,1,1,3,0003-00-0000-15.png,0004-00-0001-89.png
00000009,602,0,1449156292301,1449156292351,889,447,0,0,0,2,3,1,5,0003-00-0000-77.png,0002-00-0001-30.png
00000009,603,1,1449156295394,1449156296518,964,344,0,0,0,3,2,1,5,0002-00-0001-25.png,0003-00-0000-23.png
00000009,604,1,1449156297496,1449156297589,887,473,0,0,0,4,3,1,7,0001-00-0000-53.png,0002-00-0001-57.png
00000009,605,0,1449156298551,1449156298682,862,488,0,0,0,0,1,1,1,0005-00-0000-33.png,0004-00-0001-92.png
00000009,606,0,1449156301907,1449156301958,954,358,0,0,0,3,4,1,7,0002-00-0001-28.png,0001-00-0000-09.png
00000009,607,1,1449156304828,1449156304911,905,267,0,0,0,1,0,1,1,0004-00-0001-42.png,0005-00-0001-92.png
00000009,608,0,1449156305902,1449156307264,957,304,0,0,0,1,2,1,3,0004-00-0000-89.png,0003-00-0000-45.png
00000009,609,1,1449156310118,1449156311133,465,266,0,0,0,3,4,1,7,0002-00-0001-57.png,0001-00-0000-06.png
00000009,610,1,1449156312085,1449156313022,419,366,0,0,0,0,1,1,1,0005-00-0001-69.png,0004-00-0000-58.png
00000009,611,1,1449156314008,1449156315160,484,235,0,0,0,2,3,1,5,0003-00-0001-11.png,0002-00-0001-41.png
00000009,612,0,1449156316160,1449156317099,514,262,0,0,0,4,3,1,7,0001-00-0000-02.png,0002-00-0001-06.png
00000009,613,0,1449156320008,1449156320038,964,384,0,0,0,1,2,1,3,0004-00-0000-82.png,0003-00-0000-53.png
00000009,614,1,1449156323174,1449156323186,862,368,0,0,0,3,2,1,5,0002-00-0001-79.png,0003-00-0000-21.png
00000009,615,1,1449156324101,1449156325107,1040,267,0,0,0,1,0,1,1,0004-00-0000-86.png,0005-00-0001-99.png
00000009,616,1,1449156326058,1449156326078,883,391,0,0,0,2,1,1,3,0003-00-0001-94.png,0004-00-0000-01.png
00000009,617,1,1449156327109,1449156327171,861,440,0,0,0,2,1,1,3,0003-00-0001-04.png,0004-00-0000-52.png
00000009,618,1,1449156328224,1449156329729,461,275,0,0,0,0,1,1,1,0005-00-0001-16.png,0004-00-0000-19.png
00000009,619,0,1449156330728,1449156331617,925,329,0,0,0,1,2,1,3,0004-00-0000-39.png,0003-00-0001-07.png
00000009,620,1,1449156334461,1449156335221,946,369,0,0,0,3,2,1,5,0002-00-0000-30.png,0003-00-0000-37.png
00000009,621,1,1449156336144,1449156336200,862,451,0,0,0,1,0,1,1,0004-00-0000-95.png,0005-00-0001-76.png
00000009,622,1,1449156337308,1449156337407,885,481,0,0,0,4,3,1,7,0001-00-0000-92.png,0002-00-0001-89.png
00000009,623,0,1449156338428,1449156338484,862,446,0,0,0,2,3,1,5,0003-00-0001-11.png,0002-00-0001-18.png
00000009,624,0,1449156341650,1449156341683,939,345,0,0,0,3,4,1,7,0002-00-0001-28.png,0001-00-0001-37.png
00000009,625,1,1449156345100,1449156345692,1068,300,0,0,0,1,0,1,1,0004-00-0001-20.png,0005-00-0001-01.png
00000009,626,1,1449156346545,1449156347819,513,258,0,0,0,2,3,1,5,0003-00-0001-64.png,0002-00-0000-46.png
00000009,627,0,1449156348823,1449156350523,477,270,0,0,0,4,3,1,7,0001-00-0001-80.png,0002-00-0001-90.png
00000009,628,0,1449156353602,1449156353716,972,356,0,0,0,1,2,1,3,0004-00-0000-77.png,0003-00-0001-11.png
00000009,629,1,1449156356576,1449156357175,1060,296,0,0,0,3,2,1,5,0002-00-0000-74.png,0003-00-0000-07.png
00000009,630,1,1449156358135,1449156358272,858,520,0,0,0,2,1,1,3,0003-00-0000-86.png,0004-00-0000-62.png
00000009,631,1,1449156359309,1449156360284,510,228,0,0,0,0,1,1,1,0005-00-0001-02.png,0004-00-0001-38.png
00000009,632,0,1449156361193,1449156362069,914,399,0,0,0,3,4,1,7,0002-00-0000-90.png,0001-00-0000-57.png
00000009,633,0,1449156364959,1449156365115,887,399,0,0,0,1,2,1,3,0004-00-0000-54.png,0003-00-0000-87.png
00000009,634,0,1449156368042,1449156368062,867,406,0,0,0,0,1,1,1,0005-00-0000-83.png,0004-00-0000-52.png
00000009,635,1,1449156371155,1449156371734,946,400,0,0,0,2,1,1,3,0003-00-0001-96.png,0004-00-0000-25.png
00000009,636,0,1449156372643,1449156373677,939,411,0,0,0,2,3,1,5,0003-00-0000-29.png,0002-00-0000-79.png
00000009,637,1,1449156376855,1449156376917,888,343,0,0,0,1,0,1,1,0004-00-0001-45.png,0005-00-0001-55.png
00000009,638,0,1449156377891,1449156379091,381,350,0,0,0,4,3,1,7,0001-00-0001-63.png,0002-00-0001-16.png
00000009,639,1,1449156382144,1449156382749,956,308,0,0,0,3,2,1,5,0002-00-0001-31.png,0003-00-0000-85.png
00000009,640,0,1449156383740,1449156384697,1067,274,0,0,0,3,4,1,7,0002-00-0000-93.png,0001-00-0001-08.png
00000009,641,1,1449156387924,1449156388794,475,264,0,0,0,2,3,1,5,0003-00-0001-39.png,0002-00-0001-19.png
00000009,642,1,1449156389748,1449156390508,491,246,0,0,0,0,1,1,1,0005-00-0000-39.png,0004-00-0001-87.png
00000009,643,0,1449156391488,1449156392521,1031,279,0,0,0,1,2,1,3,0004-00-0001-59.png,0003-00-0000-04.png
00000009,644,1,1449156395668,1449156396241,1036,277,0,0,0,2,1,1,3,0003-00-0000-02.png,0004-00-0001-70.png
00000009,645,1,1449156397150,1449156398133,922,313,0,0,0,3,2,1,5,0002-00-0001-52.png,0003-00-0000-19.png
00000009,646,1,1449156399078,1449156399130,892,425,0,0,0,1,0,1,1,0004-00-0001-94.png,0005-00-0001-65.png
00000009,647,0,1449156400331,1449156400457,878,488,0,0,0,3,4,1,7,0002-00-0000-64.png,0001-00-0000-11.png
00000009,648,1,1449156403430,1449156404084,934,325,0,0,0,4,3,1,7,0001-00-0001-88.png,0002-00-0001-77.png
00000009,649,1,1449156404978,1449156406054,486,245,0,0,0,1,2,1,3,0004-00-0000-15.png,0003-00-0001-58.png
00000009,650,0,1449156407015,1449156408564,964,332,0,0,0,3,4,1,7,0002-00-0000-15.png,0001-00-0000-44.png
00000009,651,1,1449156411746,1449156412293,934,281,0,0,0,4,3,1,7,0001-00-0000-31.png,0002-00-0001-09.png
00000009,652,1,1449156413199,1449156414382,518,250,0,0,0,2,3,1,5,0003-00-0000-77.png,0002-00-0000-03.png
00000009,653,0,1449156415345,1449156416608,504,253,0,0,0,2,1,1,3,0003-00-0001-62.png,0004-00-0000-16.png
00000009,654,1,1449156419707,1449156420322,964,372,0,0,0,3,2,1,5,0002-00-0000-79.png,0003-00-0000-72.png
00000009,655,1,1449156421289,1449156421408,883,441,0,0,0,1,0,1,1,0004-00-0000-74.png,0005-00-0000-61.png
00000009,656,0,1449156422411,1449156422506,872,462,0,0,0,0,1,1,1,0005-00-0000-51.png,0004-00-0000-01.png
00000009,657,1,1449156425628,1449156425696,969,354,0,0,0,4,3,1,7,0001-00-0001-11.png,0002-00-0000-22.png
00000009,658,0,1449156426721,1449156427856,1036,281,0,0,0,2,3,1,5,0003-00-0001-48.png,0002-00-0001-99.png
00000009,659,1,1449156430826,1449156431311,939,410,0,0,0,1,0,1,1,0004-00-0001-20.png,0005-00-0000-41.png
00000009,660,0,1449156432228,1449156433225,1067,289,0,0,0,3,4,1,7,0002-00-0000-48.png,0001-00-0001-46.png
00000009,661,1,1449156436273,1449156437645,1016,279,0,0,0,2,1,1,3,0003-00-0000-31.png,0004-00-0000-17.png
00000009,662,1,1449156438698,1449156438780,862,431,0,0,0,3,2,1,5,0002-00-0000-20.png,0003-00-0000-80.png
00000009,663,0,1449156439811,1449156439877,862,410,0,0,0,0,1,1,1,0005-00-0000-42.png,0004-00-0001-63.png
00000009,664,0,1449156442824,1449156442852,921,401,0,0,0,1,2,1,3,0004-00-0000-08.png,0003-00-0000-68.png
00000009,665,0,1449156445794,1449156445822,870,411,0,0,0,2,3,1,5,0003-00-0001-76.png,0002-00-0000-64.png
00000009,666,1,1449156448893,1449156449425,1074,271,0,0,0,2,1,1,3,0003-00-0001-53.png,0004-00-0001-07.png
00000009,667,0,1449156450365,1449156451295,400,341,0,0,0,3,2,1,5,0002-00-0000-79.png,0003-00-0000-99.png
00000009,668,1,1449156454488,1449156455317,516,272,0,0,0,1,2,1,3,0004-00-0000-16.png,0003-00-0001-85.png
00000009,669,1,1449156456341,1449156456381,860,436,0,0,0,4,3,1,7,0001-00-0001-14.png,0002-00-0000-53.png
00000009,670,0,1449156457419,1449156457487,911,392,0,0,0,0,1,1,1,0005-00-0000-52.png,0004-00-0000-68.png
00000009,671,1,1449156460355,1449156460403,930,394,0,0,0,1,0,1,1,0004-00-0000-67.png,0005-00-0001-54.png
00000009,672,0,1449156461432,1449156462492,921,316,0,0,0,3,4,1,7,0002-00-0000-24.png,0001-00-0000-79.png
00000009,673,1,1449156465536,1449156466161,913,306,0,0,0,2,1,1,3,0003-00-0000-24.png,0004-00-0001-48.png
00000009,674,0,1449156467157,1449156467189,892,398,0,0,0,1,2,1,3,0004-00-0001-25.png,0003-00-0000-15.png
00000009,675,0,1449156470308,1449156470881,1067,270,0,0,0,3,4,1,7,0002-00-0000-03.png,0001-00-0001-07.png
00000009,676,1,1449156474051,1449156474290,880,418,0,0,0,3,2,1,5,0002-00-0000-05.png,0003-00-0000-78.png
00000009,677,0,1449156475273,1449156476247,509,241,0,0,0,4,3,1,7,0001-00-0001-74.png,0002-00-0001-74.png
00000009,678,1,1449156479299,1449156479335,943,362,0,0,0,1,0,1,1,0004-00-0000-33.png,0005-00-0001-49.png
00000009,679,0,1449156480447,1449156481339,943,280,0,0,0,2,3,1,5,0003-00-0001-56.png,0002-00-0001-35.png
00000009,680,0,1449156484555,1449156484619,888,341,0,0,0,0,1,1,1,0005-00-0001-41.png,0004-00-0001-27.png
00000009,681,1,1449156487716,1449156487748,904,354,0,0,0,2,1,1,3,0003-00-0000-65.png,0004-00-0000-88.png
00000009,682,1,1449156488821,1449156489680,434,297,0,0,0,0,1,1,1,0005-00-0001-17.png,0004-00-0000-96.png
00000009,683,0,1449156490689,1449156492291,919,395,0,0,0,1,2,1,3,0004-00-0001-07.png,0003-00-0000-75.png
00000009,684,0,1449156495223,1449156495858,936,299,0,0,0,3,4,1,7,0002-00-0000-56.png,0001-00-0001-03.png
00000009,685,1,1449156498996,1449156499725,1067,322,0,0,0,4,3,1,7,0001-00-0001-46.png,0002-00-0001-47.png
00000009,686,0,1449156500705,1449156501778,941,385,0,0,0,2,3,1,5,0003-00-0000-94.png,0002-00-0001-55.png
00000009,687,1,1449156504707,1449156505413,978,410,0,0,0,3,2,1,5,0002-00-0001-18.png,0003-00-0000-35.png
00000009,688,1,1449156506299,1449156506379,866,413,0,0,0,1,0,1,1,0004-00-0001-56.png,0005-00-0000-78.png
00000009,689,0,1449156507390,1449156508623,394,366,0,0,0,2,1,1,3,0003-00-0000-03.png,0004-00-0000-79.png
00000009,690,1,1449156511646,1449156511730,1010,333,0,0,0,1,0,1,1,0004-00-0000-08.png,0005-00-0000-20.png
00000009,691,0,1449156512693,1449156513496,403,352,0,0,0,4,3,1,7,0001-00-0000-59.png,0002-00-0001-53.png
00000009,692,0,1449156516647,1449156517210,942,303,0,0,0,3,4,1,7,0002-00-0000-56.png,0001-00-0000-31.png
00000009,693,0,1449156520328,1449156520344,862,358,0,0,0,2,3,1,5,0003-00-0001-23.png,0002-00-0001-34.png
00000009,694,1,1449156523442,1449156523941,501,252,0,0,0,0,1,1,1,0005-00-0000-64.png,0004-00-0000-86.png
00000009,695,1,1449156524882,1449156525826,1022,285,0,0,0,3,2,1,5,0002-00-0001-88.png,0003-00-0001-98.png
00000009,696,0,1449156526798,1449156526909,884,494,0,0,0,1,2,1,3,0004-00-0000-63.png,0003-00-0001-91.png
00000009,697,1,1449156529762,1449156529802,939,376,0,0,0,4,3,1,7,0001-00-0000-80.png,0002-00-0001-26.png
00000009,698,1,1449156530794,1449156532182,511,232,0,0,0,1,2,1,3,0004-00-0000-60.png,0003-00-0000-77.png
00000009,699,0,1449156533189,1449156533205,878,374,0,0,0,2,3,1,5,0003-00-0000-57.png,0002-00-0001-58.png
00000009,700,1,1449156536191,1449156536745,1053,279,0,0,0,3,2,1,5,0002-00-0001-20.png,0003-00-0001-42.png
00000009,701,0,1449156537619,1449156537643,861,387,0,0,0,0,1,1,1,0005-00-0000-12.png,0004-00-0001-46.png
00000009,702,0,1449156540831,1449156541505,990,346,0,0,0,3,4,1,7,0002-00-0000-68.png,0001-00-0000-49.png
00000009,703,0,1449156545044,1449156545789,488,275,0,0,0,2,1,1,3,0003-00-0000-98.png,0004-00-0000-40.png
00000009,704,1,1449156548672,1449156549335,1067,296,0,0,0,1,0,1,1,0004-00-0001-66.png,0005-00-0001-96.png
00000009,705,0,1449156550312,1449156551501,937,333,0,0,0,2,3,1,5,0003-00-0000-66.png,0002-00-0001-72.png
00000009,706,0,1449156554642,1449156555243,478,410,0,0,0,4,3,1,7,0001-00-0001-88.png,0002-00-0001-58.png
00000009,707,1,1449156558490,1449156558502,860,353,0,0,0,1,0,1,1,0004-00-0000-68.png,0005-00-0001-99.png
00000009,708,0,1449156559422,1449156560440,497,248,0,0,0,2,1,1,3,0003-00-0000-33.png,0004-00-0000-72.png
00000009,709,0,1449156563300,1449156563316,885,339,0,0,0,3,4,1,7,0002-00-0001-53.png,0001-00-0001-83.png
00000009,710,0,1449156566498,1449156566542,917,311,0,0,0,1,2,1,3,0004-00-0001-74.png,0003-00-0000-38.png
00000009,711,1,1449156569730,1449156570499,512,227,0,0,0,0,1,1,1,0005-00-0001-43.png,0004-00-0001-95.png
00000009,712,1,1449156571557,1449156572510,914,304,0,0,0,3,2,1,5,0002-00-0000-86.png,0003-00-0000-86.png
00000009,713,1,1449156573505,1449156574311,1041,244,0,0,0,1,0,1,1,0004-00-0001-84.png,0005-00-0001-21.png
00000009,714,1,1449156575274,1449156575314,876,417,0,0,0,3,2,1,5,0002-00-0000-34.png,0003-00-0000-04.png
00000009,715,0,1449156576318,1449156576364,869,449,0,0,0,2,3,1,5,0003-00-0000-38.png,0002-00-0001-35.png
00000009,716,1,1449156579243,1449156579814,964,307,0,0,0,4,3,1,7,0001-00-0000-65.png,0002-00-0001-36.png
00000009,717,1,1449156580819,1449156581732,508,245,0,0,0,0,1,1,1,0005-00-0001-77.png,0004-00-0000-20.png
00000009,718,0,1449156582748,1449156583657,401,344,0,0,0,2,1,1,3,0003-00-0001-19.png,0004-00-0000-57.png
00000009,719,0,1449156586789,1449156586829,908,352,0,0,0,3,4,1,7,0002-00-0000-70.png,0001-00-0001-26.png
00000009,720,0,1449156589961,1449156590599,964,295,0,0,0,1,2,1,3,0004-00-0001-46.png,0003-00-0000-86.png
00000009,721,1,1449156593626,1449156594150,959,380,0,0,0,4,3,1,7,0001-00-0001-19.png,0002-00-0001-83.png
00000009,722,0,1449156595189,1449156595213,872,426,0,0,0,1,2,1,3,0004-00-0000-91.png,0003-00-0000-86.png
00000009,723,1,1449156598336,1449156598352,888,342,0,0,0,2,1,1,3,0003-00-0000-76.png,0004-00-0001-71.png
00000009,724,1,1449156599410,1449156599489,859,455,0,0,0,3,2,1,5,0002-00-0001-61.png,0003-00-0000-07.png
00000009,725,0,1449156600563,1449156600635,888,401,0,0,0,3,4,1,7,0002-00-0000-95.png,0001-00-0000-78.png
00000009,726,0,1449156603509,1449156604212,939,385,0,0,0,2,3,1,5,0003-00-0000-28.png,0002-00-0001-64.png
00000009,727,1,1449156607170,1449156607712,1047,284,0,0,0,1,0,1,1,0004-00-0001-90.png,0005-00-0001-73.png
00000009,728,0,1449156608641,1449156608715,873,454,0,0,0,0,1,1,1,0005-00-0000-20.png,0004-00-0001-18.png
00000009,729,1,1449156611850,1449156611894,892,329,0,0,0,2,1,1,3,0003-00-0000-96.png,0004-00-0000-69.png
00000009,730,0,1449156612846,1449156613940,471,391,0,0,0,4,3,1,7,0001-00-0000-01.png,0002-00-0000-60.png
00000009,731,0,1449156616819,1449156616863,862,342,0,0,0,0,1,1,1,0005-00-0000-01.png,0004-00-0000-95.png
00000009,732,0,1449156620059,1449156620602,1050,279,0,0,0,1,2,1,3,0004-00-0001-80.png,0003-00-0000-16.png
00000009,733,0,1449156623568,1449156623619,898,358,0,0,0,2,3,1,5,0003-00-0001-82.png,0002-00-0000-17.png
00000009,734,1,1449156626786,1449156627308,1067,270,0,0,0,1,0,1,1,0004-00-0000-82.png,0005-00-0000-77.png
00000009,735,1,1449156628340,1449156629452,946,322,0,0,0,3,2,1,5,0002-00-0000-68.png,0003-00-0000-30.png
00000009,736,0,1449156630455,1449156630509,893,469,0,0,0,3,4,1,7,0002-00-0000-72.png,0001-00-0000-84.png
00000009,737,0,1449156633682,1449156633718,900,332,0,0,0,3,4,1,7,0002-00-0000-70.png,0001-00-0000-81.png
00000009,738,0,1449156636934,1449156637596,1063,280,0,0,0,2,3,1,5,0003-00-0000-65.png,0002-00-0000-73.png
00000009,739,0,1449156640739,1449156640781,900,323,0,0,0,1,2,1,3,0004-00-0001-52.png,0003-00-0000-28.png
00000009,740,0,1449156643850,1449156644447,499,301,0,0,0,4,3,1,7,0001-00-0001-14.png,0002-00-0001-37.png
00000009,741,1,1449156647299,1449156647879,957,314,0,0,0,1,0,1,1,0004-00-0000-91.png,0005-00-0001-42.png
00000009,742,0,1449156648844,1449156648917,866,440,0,0,0,0,1,1,1,0005-00-0000-38.png,0004-00-0000-27.png
00000009,743,1,1449156651744,1449156651780,880,448,0,0,0,3,2,1,5,0002-00-0001-08.png,0003-00-0001-11.png
00000009,744,1,1449156652763,1449156652828,861,407,0,0,0,2,1,1,3,0003-00-0000-90.png,0004-00-0000-02.png
00000009,745,1,1449156653854,1449156655223,934,310,0,0,0,3,2,1,5,0002-00-0001-97.png,0003-00-0001-99.png
00000009,746,0,1449156656191,1449156656291,862,488,0,0,0,2,3,1,5,0003-00-0001-66.png,0002-00-0001-51.png
00000009,747,1,1449156659451,1449156660035,939,398,0,0,0,1,0,1,1,0004-00-0000-05.png,0005-00-0001-67.png
00000009,748,0,1449156660981,1449156660997,864,406,0,0,0,3,4,1,7,0002-00-0001-19.png,0001-00-0000-97.png
00000009,749,0,1449156664174,1449156664713,1041,279,0,0,0,1,2,1,3,0004-00-0000-42.png,0003-00-0000-48.png
00000009,750,1,1449156667767,1449156668604,936,325,0,0,0,2,1,1,3,0003-00-0000-94.png,0004-00-0000-44.png
00000009,751,0,1449156669627,1449156669824,886,528,0,0,0,0,1,1,1,0005-00-0001-34.png,0004-00-0000-85.png
00000009,752,0,1449156673027,1449156673678,501,281,0,0,0,4,3,1,7,0001-00-0001-15.png,0002-00-0000-93.png
00000009,753,0,1449156676849,1449156677577,497,282,0,0,0,2,1,1,3,0003-00-0000-37.png,0004-00-0000-95.png
00000009,754,0,1449156680459,1449156680507,877,408,0,0,0,2,3,1,5,0003-00-0001-44.png,0002-00-0000-33.png
00000009,755,0,1449156683369,1449156683953,1061,277,0,0,0,1,2,1,3,0004-00-0000-98.png,0003-00-0000-87.png
00000009,756,0,1449156687180,1449156687240,869,330,0,0,0,0,1,1,1,0005-00-0000-80.png,0004-00-0000-15.png
00000009,757,1,1449156690186,1449156690995,917,326,0,0,0,4,3,1,7,0001-00-0001-98.png,0002-00-0000-75.png
00000009,758,1,1449156691990,1449156692100,886,478,0,0,0,3,2,1,5,0002-00-0001-94.png,0003-00-0000-07.png
00000009,759,1,1449156693060,1449156693245,862,521,0,0,0,1,0,1,1,0004-00-0001-28.png,0005-00-0000-74.png
00000009,760,0,1449156694480,1449156694571,888,462,0,0,0,3,4,1,7,0002-00-0001-94.png,0001-00-0001-19.png
00000009,761,1,1449156697728,1449156698354,956,384,0,0,0,1,0,1,1,0004-00-0000-31.png,0005-00-0000-18.png
00000009,762,0,1449156699258,1449156699313,862,436,0,0,0,3,4,1,7,0002-00-0001-54.png,0001-00-0000-14.png
00000009,763,0,1449156702262,1449156702855,501,279,0,0,0,2,1,1,3,0003-00-0000-88.png,0004-00-0000-48.png
00000009,764,0,1449156705737,1449156705761,878,331,0,0,0,0,1,1,1,0005-00-0000-21.png,0004-00-0001-33.png
00000009,765,0,1449156708638,1449156709432,920,316,0,0,0,2,3,1,5,0003-00-0000-70.png,0002-00-0000-07.png
00000009,766,0,1449156712398,1449156712412,931,365,0,0,0,1,2,1,3,0004-00-0001-44.png,0003-00-0001-99.png
00000009,767,1,1449156715587,1449156715619,888,346,0,0,0,4,3,1,7,0001-00-0000-74.png,0002-00-0001-51.png
00000009,768,1,1449156716669,1449156716766,858,467,0,0,0,3,2,1,5,0002-00-0001-13.png,0003-00-0001-12.png
00000009,769,1,1449156717801,1449156717908,874,436,0,0,0,4,3,1,7,0001-00-0000-32.png,0002-00-0000-05.png
00000009,770,0,1449156718877,1449156718925,862,462,0,0,0,1,2,1,3,0004-00-0000-49.png,0003-00-0000-38.png
00000009,771,1,1449156722103,1449156722127,865,357,0,0,0,1,0,1,1,0004-00-0001-36.png,0005-00-0001-76.png
00000009,772,0,1449156723170,1449156723261,861,447,0,0,0,2,3,1,5,0003-00-0000-81.png,0002-00-0000-90.png
00000009,773,0,1449156726331,1449156726367,900,406,0,0,0,3,4,1,7,0002-00-0000-48.png,0001-00-0001-86.png
00000009,774,1,1449156729409,1449156729942,487,283,0,0,0,0,1,1,1,0005-00-0001-65.png,0004-00-0001-89.png
00000009,775,1,1449156730937,1449156732162,1026,306,0,0,0,2,1,1,3,0003-00-0000-69.png,0004-00-0000-78.png
00000009,776,1,1449156733205,1449156733249,865,431,0,0,0,3,2,1,5,0002-00-0000-52.png,0003-00-0000-68.png
00000009,777,0,1449156734432,1449156735439,895,307,0,0,0,1,2,1,3,0004-00-0001-93.png,0003-00-0000-93.png
00000009,778,1,1449156738570,1449156738618,913,358,0,0,0,4,3,1,7,0001-00-0001-08.png,0002-00-0001-20.png
00000009,779,1,1449156739605,1449156740457,493,241,0,0,0,0,1,1,1,0005-00-0001-84.png,0004-00-0000-43.png
00000009,780,1,1449156741374,1449156742374,1041,253,0,0,0,1,0,1,1,0004-00-0001-63.png,0005-00-0000-69.png
00000009,781,0,1449156743389,1449156743424,889,415,0,0,0,2,3,1,5,0003-00-0001-44.png,0002-00-0001-14.png
00000009,782,1,1449156746580,1449156746634,888,348,0,0,0,3,2,1,5,0002-00-0001-81.png,0003-00-0000-71.png
00000009,783,0,1449156747564,1449156748696,423,350,0,0,0,2,1,1,3,0003-00-0000-35.png,0004-00-0001-09.png
00000009,784,0,1449156751889,1449156752480,1064,276,0,0,0,3,4,1,7,0002-00-0001-66.png,0001-00-0000-36.png
00000009,785,0,1449156755321,1449156755364,913,384,0,0,0,3,4,1,7,0002-00-0001-71.png,0001-00-0000-00.png
00000009,786,1,1449156758616,1449156759258,1062,277,0,0,0,2,1,1,3,0003-00-0001-81.png,0004-00-0000-45.png
00000009,787,0,1449156760304,1449156761383,963,308,0,0,0,1,2,1,3,0004-00-0001-07.png,0003-00-0001-25.png
00000009,788,1,1449156764366,1449156764920,1041,289,0,0,0,1,0,1,1,0004-00-0001-66.png,0005-00-0001-35.png
00000009,789,0,1449156765896,1449156765952,871,436,0,0,0,2,3,1,5,0003-00-0001-11.png,0002-00-0000-07.png
00000009,790,0,1449156769077,1449156769664,504,265,0,0,0,4,3,1,7,0001-00-0001-76.png,0002-00-0001-37.png
00000009,791,1,1449156772970,1449156773594,931,347,0,0,0,3,2,1,5,0002-00-0000-24.png,0003-00-0001-53.png
00000009,792,1,1449156774534,1449156775406,490,249,0,0,0,0,1,1,1,0005-00-0001-95.png,0004-00-0000-24.png
00000009,793,0,1449156776391,1449156777613,420,335,0,0,0,3,2,1,5,0002-00-0001-01.png,0003-00-0001-59.png
00000009,794,0,1449156780823,1449156780867,913,316,0,0,0,1,2,1,3,0004-00-0001-90.png,0003-00-0001-67.png
00000009,795,0,1449156784073,1449156784664,967,310,0,0,0,3,4,1,7,0002-00-0000-46.png,0001-00-0001-57.png
00000009,796,0,1449156787710,1449156788617,369,315,0,0,0,4,3,1,7,0001-00-0000-93.png,0002-00-0001-75.png
00000009,797,1,1449156792222,1449156792807,990,374,0,0,0,1,0,1,1,0004-00-0001-38.png,0005-00-0001-41.png
00000009,798,1,1449156793830,1449156794971,438,304,0,0,0,2,3,1,5,0003-00-0000-07.png,0002-00-0001-39.png
00000009,799,1,1449156795997,1449156796780,498,248,0,0,0,0,1,1,1,0005-00-0000-52.png,0004-00-0000-06.png
00000009,800,0,1449156797956,1449156799226,495,261,0,0,0,2,1,1,3,0003-00-0000-10.png,0004-00-0001-45.png
00000009,801,1,1449156802064,1449156802761,1041,295,0,0,0,3,2,1,5,0002-00-0001-33.png,0003-00-0001-73.png
00000009,802,1,1449156803717,1449156803761,884,414,0,0,0,4,3,1,7,0001-00-0001-50.png,0002-00-0001-43.png
00000009,803,1,1449156804771,1449156805586,496,236,0,0,0,0,1,1,1,0005-00-0001-49.png,0004-00-0000-24.png
00000009,804,0,1449156806540,1449156807540,1049,273,0,0,0,2,3,1,5,0003-00-0000-77.png,0002-00-0001-12.png
00000009,805,1,1449156810704,1449156811338,940,334,0,0,0,2,1,1,3,0003-00-0001-16.png,0004-00-0000-45.png
00000009,806,0,1449156812283,1449156813084,416,354,0,0,0,1,0,1,1,0004-00-0000-55.png,0005-00-0001-99.png
00000009,807,0,1449156816120,1449156816701,1046,276,0,0,0,1,2,1,3,0004-00-0000-95.png,0003-00-0000-56.png
00000009,808,1,1449156819902,1449156820570,521,255,0,0,0,3,4,1,7,0002-00-0001-13.png,0001-00-0001-60.png
00000009,809,0,1449156821567,1449156822648,1038,284,0,0,0,1,2,1,3,0004-00-0001-65.png,0003-00-0000-65.png
00000009,810,0,1449156825652,1449156825715,888,358,0,0,0,0,1,1,1,0005-00-0001-24.png,0004-00-0001-44.png
00000009,811,1,1449156828901,1449156829753,1067,279,0,0,0,4,3,1,7,0001-00-0001-56.png,0002-00-0000-36.png
00000009,812,1,1449156830758,1449156830842,882,445,0,0,0,1,0,1,1,0004-00-0000-50.png,0005-00-0001-28.png
00000009,813,0,1449156831780,1449156833294,443,390,0,0,0,2,1,1,3,0003-00-0000-62.png,0004-00-0001-07.png
00000009,814,1,1449156836909,1449156836942,906,335,0,0,0,3,2,1,5,0002-00-0001-20.png,0003-00-0000-69.png
00000009,815,0,1449156837971,1449156839322,922,337,0,0,0,3,4,1,7,0002-00-0001-07.png,0001-00-0001-18.png
00000009,816,0,1449156842453,1449156842469,907,357,0,0,0,2,3,1,5,0003-00-0000-21.png,0002-00-0000-47.png
00000009,817,0,1449156845325,1449156845871,499,271,0,0,0,4,3,1,7,0001-00-0001-43.png,0002-00-0001-60.png
00000009,818,0,1449156849082,1449156849677,1067,293,0,0,0,2,3,1,5,0003-00-0001-63.png,0002-00-0000-37.png
00000009,819,1,1449156852820,1449156853420,968,382,0,0,0,3,2,1,5,0002-00-0000-00.png,0003-00-0000-76.png
00000009,820,1,1449156854448,1449156854532,862,461,0,0,0,2,1,1,3,0003-00-0000-20.png,0004-00-0001-34.png
00000009,821,0,1449156855552,1449156855604,895,402,0,0,0,1,2,1,3,0004-00-0000-36.png,0003-00-0000-47.png
00000009,822,0,1449156858503,1449156859346,937,332,0,0,0,3,4,1,7,0002-00-0001-44.png,0001-00-0000-29.png
00000009,823,0,1449156862397,1449156862457,937,391,0,0,0,0,1,1,1,0005-00-0001-62.png,0004-00-0000-43.png
00000009,824,1,1449156865617,1449156865653,862,358,0,0,0,1,0,1,1,0004-00-0001-58.png,0005-00-0001-09.png
00000009,825,1,1449156866651,1449156867632,411,324,0,0,0,2,3,1,5,0003-00-0000-17.png,0002-00-0000-95.png
00000009,826,1,1449156868657,1449156869788,932,292,0,0,0,2,1,1,3,0003-00-0001-16.png,0004-00-0000-21.png
00000009,827,0,1449156870914,1449156870994,877,467,0,0,0,0,1,1,1,0005-00-0001-25.png,0004-00-0001-00.png
00000009,828,0,1449156874232,1449156874822,510,261,0,0,0,4,3,1,7,0001-00-0000-93.png,0002-00-0000-16.png
00000009,829,1,1449156877760,1449156877813,919,404,0,0,0,1,0,1,1,0004-00-0001-32.png,0005-00-0001-25.png
00000009,830,1,1449156878805,1449156879845,951,311,0,0,0,3,2,1,5,0002-00-0001-20.png,0003-00-0000-84.png
00000009,831,0,1449156880842,1449156880858,891,398,0,0,0,1,2,1,3,0004-00-0000-48.png,0003-00-0001-97.png
00000009,832,0,1449156883959,1449156884525,1067,253,0,0,0,3,4,1,7,0002-00-0000-06.png,0001-00-0000-77.png
00000009,833,1,1449156887437,1449156887484,912,378,0,0,0,1,0,1,1,0004-00-0001-81.png,0005-00-0000-70.png
00000009,834,0,1449156888587,1449156889532,491,263,0,0,0,2,1,1,3,0003-00-0001-74.png,0004-00-0000-59.png
00000009,835,0,1449156892382,1449156893031,477,279,0,0,0,4,3,1,7,0001-00-0000-47.png,0002-00-0000-21.png
00000009,836,1,1449156896089,1449156896802,453,436,0,0,0,0,1,1,1,0005-00-0001-73.png,0004-00-0001-39.png
00000009,837,1,1449156897793,1449156898999,1053,242,0,0,0,3,2,1,5,0002-00-0001-84.png,0003-00-0000-35.png
00000009,838,0,1449156900031,1449156900075,888,410,0,0,0,2,3,1,5,0003-00-0001-13.png,0002-00-0000-61.png
00000009,839,0,1449156903237,1449156904326,1025,272,0,0,0,1,2,1,3,0004-00-0000-29.png,0003-00-0000-21.png
00000009,840,0,1449156907262,1449156907286,940,360,0,0,0,3,4,1,7,0002-00-0000-29.png,0001-00-0001-63.png
00000009,841,0,1449156911050,1449156911731,962,333,0,0,0,1,2,1,3,0004-00-0000-86.png,0003-00-0000-63.png
00000009,842,1,1449156914875,1449156915454,1067,290,0,0,0,1,0,1,1,0004-00-0000-20.png,0005-00-0000-80.png
00000009,843,1,1449156916376,1449156917626,463,384,0,0,0,2,3,1,5,0003-00-0001-20.png,0002-00-0001-85.png
00000009,844,1,1449156918691,1449156919882,913,293,0,0,0,4,3,1,7,0001-00-0001-58.png,0002-00-0001-65.png
00000009,845,1,1449156920893,1449156922340,950,348,0,0,0,3,2,1,5,0002-00-0001-37.png,0003-00-0000-44.png
00000009,846,0,1449156923362,1449156923394,878,353,0,0,0,3,4,1,7,0002-00-0001-23.png,0001-00-0001-19.png
00000009,847,1,1449156926451,1449156927050,937,324,0,0,0,2,1,1,3,0003-00-0001-25.png,0004-00-0001-94.png
00000009,848,0,1449156928001,1449156928029,876,402,0,0,0,0,1,1,1,0005-00-0001-56.png,0004-00-0000-77.png
00000009,849,1,1449156931191,1449156931712,959,331,0,0,0,1,0,1,1,0004-00-0000-70.png,0005-00-0001-27.png
00000009,850,0,1449156932621,1449156933582,1036,277,0,0,0,3,4,1,7,0002-00-0000-69.png,0001-00-0000-52.png
00000009,851,1,1449156936745,1449156937578,494,260,0,0,0,0,1,1,1,0005-00-0001-68.png,0004-00-0000-68.png
00000009,852,0,1449156938534,1449156939640,484,251,0,0,0,2,1,1,3,0003-00-0000-91.png,0004-00-0000-96.png
00000009,853,0,1449156942758,1449156942790,888,349,0,0,0,1,2,1,3,0004-00-0000-57.png,0003-00-0000-17.png
00000009,854,1,1449156945860,1449156945892,931,408,0,0,0,4,3,1,7,0001-00-0000-60.png,0002-00-0000-59.png
00000009,855,1,1449156947001,1449156948583,413,410,0,0,0,2,3,1,5,0003-00-0000-20.png,0002-00-0001-26.png
00000009,856,1,1449156949557,1449156950586,926,392,0,0,0,3,2,1,5,0002-00-0001-20.png,0003-00-0000-98.png
00000009,857,1,1449156952370,1449156953051,461,246,0,0,0,0,1,1,1,0005-00-0000-56.png,0004-00-0000-45.png
00000009,858,1,1449156954038,1449156955129,489,255,0,0,0,2,3,1,5,0003-00-0001-19.png,0002-00-0000-05.png
00000009,859,1,1449156956423,1449156956447,862,384,0,0,0,1,0,1,1,0004-00-0000-68.png,0005-00-0000-49.png
00000009,860,1,1449156957682,1449156957715,862,410,0,0,0,3,2,1,5,0002-00-0000-18.png,0003-00-0001-85.png
00000009,861,0,1449156958847,1449156958911,870,462,0,0,0,3,4,1,7,0002-00-0000-64.png,0001-00-0001-35.png
00000009,862,1,1449156962184,1449156962814,1050,326,0,0,0,2,1,1,3,0003-00-0001-31.png,0004-00-0000-25.png
00000009,863,0,1449156963797,1449156963868,862,480,0,0,0,1,2,1,3,0004-00-0001-07.png,0003-00-0001-48.png
00000009,864,1,1449156966985,1449156967889,1068,311,0,0,0,4,3,1,7,0001-00-0001-39.png,0002-00-0001-98.png
00000009,865,0,1449156968927,1449156969922,1049,261,0,0,0,3,4,1,7,0002-00-0001-47.png,0001-00-0000-45.png
00000009,866,0,1449156972790,1449156973452,487,278,0,0,0,2,1,1,3,0003-00-0001-92.png,0004-00-0000-92.png
00000009,867,1,1449156976291,1449156977099,1027,296,0,0,0,3,2,1,5,0002-00-0000-94.png,0003-00-0001-81.png
00000009,868,1,1449156978067,1449156978099,879,410,0,0,0,1,0,1,1,0004-00-0000-65.png,0005-00-0001-93.png
00000009,869,0,1449156979179,1449156979325,860,490,0,0,0,0,1,1,1,0005-00-0000-01.png,0004-00-0001-29.png
00000009,870,0,1449156982398,1449156982954,957,309,0,0,0,2,3,1,5,0003-00-0001-15.png,0002-00-0001-12.png
00000009,871,0,1449156986024,1449156986060,894,349,0,0,0,1,2,1,3,0004-00-0001-18.png,0003-00-0001-28.png
00000009,872,0,1449156988995,1449156989687,521,278,0,0,0,4,3,1,7,0001-00-0001-73.png,0002-00-0000-12.png
00000009,873,0,1449156992863,1449156992879,888,358,0,0,0,0,1,1,1,0005-00-0001-33.png,0004-00-0000-53.png
00000009,874,1,1449156996071,1449156996601,963,306,0,0,0,1,0,1,1,0004-00-0001-43.png,0005-00-0000-51.png
00000009,875,1,1449156997584,1449156998561,1018,262,0,0,0,4,3,1,7,0001-00-0001-05.png,0002-00-0001-10.png
00000009,876,1,1449156999632,1449157000676,913,316,0,0,0,2,1,1,3,0003-00-0000-46.png,0004-00-0000-02.png
00000009,877,0,1449157001838,1449157001894,909,453,0,0,0,2,3,1,5,0003-00-0001-72.png,0002-00-0001-19.png
00000009,878,1,1449157004865,1449157005433,964,342,0,0,0,3,2,1,5,0002-00-0001-94.png,0003-00-0001-17.png
00000009,879,0,1449157006398,1449157006551,861,492,0,0,0,3,4,1,7,0002-00-0000-28.png,0001-00-0001-73.png
00000009,880,0,1449157009555,1449157009621,862,384,0,0,0,1,2,1,3,0004-00-0000-79.png,0003-00-0001-29.png
00000009,881,1,1449157012795,1449157013363,964,393,0,0,0,1,0,1,1,0004-00-0001-00.png,0005-00-0001-29.png
00000009,882,0,1449157014320,1449157015408,1072,291,0,0,0,2,3,1,5,0003-00-0001-12.png,0002-00-0001-57.png
00000009,883,1,1449157018749,1449157018770,880,338,0,0,0,4,3,1,7,0001-00-0001-14.png,0002-00-0000-20.png
00000009,884,0,1449157019820,1449157020875,1040,269,0,0,0,1,2,1,3,0004-00-0000-71.png,0003-00-0000-34.png
00000009,885,0,1449157023781,1449157023809,927,437,0,0,0,3,4,1,7,0002-00-0001-32.png,0001-00-0001-88.png
00000009,886,0,1449157026917,1449157026976,862,358,0,0,0,0,1,1,1,0005-00-0001-89.png,0004-00-0001-29.png
00000009,887,1,1449157030364,1449157030936,1061,285,0,0,0,3,2,1,5,0002-00-0001-97.png,0003-00-0001-39.png
00000009,888,1,1449157031903,1449157031923,869,407,0,0,0,2,1,1,3,0003-00-0001-86.png,0004-00-0000-55.png
00000009,889,1,1449157033691,1449157034805,518,227,0,0,0,1,2,1,3,0004-00-0000-57.png,0003-00-0000-21.png
00000009,890,1,1449157035819,1449157035831,865,362,0,0,0,1,0,1,1,0004-00-0001-97.png,0005-00-0001-05.png
00000009,891,0,1449157037026,1449157038288,1024,275,0,0,0,2,3,1,5,0003-00-0001-86.png,0002-00-0001-25.png
00000009,892,0,1449157041159,1449157042322,487,260,0,0,0,2,1,1,3,0003-00-0001-58.png,0004-00-0000-19.png
00000009,893,1,1449157045507,1449157046119,1041,263,0,0,0,3,2,1,5,0002-00-0000-98.png,0003-00-0000-03.png
00000009,894,0,1449157047060,1449157047171,883,442,0,0,0,3,4,1,7,0002-00-0000-37.png,0001-00-0001-55.png
00000009,895,1,1449157050060,1449157050123,910,384,0,0,0,4,3,1,7,0001-00-0000-82.png,0002-00-0001-73.png
00000009,896,1,1449157051180,1449157051972,510,242,0,0,0,0,1,1,1,0005-00-0000-49.png,0004-00-0001-52.png
00000009,897,0,1449157052950,1449157054239,925,310,0,0,0,2,3,1,5,0003-00-0000-41.png,0002-00-0001-63.png
00000009,898,1,1449157057353,1449157057393,862,384,0,0,0,3,2,1,5,0002-00-0000-11.png,0003-00-0001-41.png
00000009,899,0,1449157058487,1449157059472,931,300,0,0,0,1,2,1,3,0004-00-0000-65.png,0003-00-0001-94.png
00000009,900,0,1449157062588,1449157062640,906,350,0,0,0,3,4,1,7,0002-00-0001-85.png,0001-00-0000-46.png
00000009,901,0,1449157065862,1449157065890,901,333,0,0,0,0,1,1,1,0005-00-0000-86.png,0004-00-0001-98.png
00000009,902,1,1449157069059,1449157069553,980,312,0,0,0,1,0,1,1,0004-00-0000-18.png,0005-00-0000-61.png
00000009,903,1,1449157070501,1449157070630,884,499,0,0,0,2,1,1,3,0003-00-0000-82.png,0004-00-0001-18.png
00000009,904,0,1449157071593,1449157072931,490,239,0,0,0,4,3,1,7,0001-00-0000-39.png,0002-00-0000-84.png
00000009,905,1,1449157075848,1449157076819,479,263,0,0,0,1,2,1,3,0004-00-0001-58.png,0003-00-0000-60.png
00000009,906,1,1449157077825,1449157077939,862,488,0,0,0,3,2,1,5,0002-00-0000-02.png,0003-00-0001-25.png
00000009,907,1,1449157079109,1449157080259,480,260,0,0,0,3,4,1,7,0002-00-0001-44.png,0001-00-0000-98.png
00000009,908,0,1449157081259,1449157082596,1045,270,0,0,0,2,3,1,5,0003-00-0001-69.png,0002-00-0001-90.png
00000009,909,0,1449157085776,1449157086609,415,347,0,0,0,2,1,1,3,0003-00-0001-02.png,0004-00-0000-04.png
00000009,910,0,1449157089877,1449157089897,890,351,0,0,0,0,1,1,1,0005-00-0000-60.png,0004-00-0000-38.png
00000009,911,1,1449157092809,1449157093330,1023,267,0,0,0,1,0,1,1,0004-00-0000-83.png,0005-00-0000-79.png
00000009,912,1,1449157094324,1449157094346,864,418,0,0,0,4,3,1,7,0001-00-0001-96.png,0002-00-0000-10.png
00000009,913,0,1449157095334,1449157095408,877,417,0,0,0,0,1,1,1,0005-00-0001-32.png,0004-00-0000-85.png
00000009,914,1,1449157098554,1449157098588,906,328,0,0,0,2,1,1,3,0003-00-0001-24.png,0004-00-0001-39.png
00000009,915,1,1449157099627,1449157100375,943,312,0,0,0,1,0,1,1,0004-00-0000-38.png,0005-00-0000-62.png
00000009,916,1,1449157101327,1449157102453,1047,242,0,0,0,3,2,1,5,0002-00-0000-91.png,0003-00-0001-75.png
00000009,917,0,1449157103503,1449157103571,862,480,0,0,0,2,3,1,5,0003-00-0001-51.png,0002-00-0001-85.png
00000009,918,1,1449157106731,1449157107432,988,382,0,0,0,4,3,1,7,0001-00-0000-66.png,0002-00-0000-88.png
00000009,919,0,1449157108376,1449157109472,963,291,0,0,0,1,2,1,3,0004-00-0001-90.png,0003-00-0001-60.png
00000009,920,0,1449157112646,1449157113379,964,410,0,0,0,3,4,1,7,0002-00-0000-20.png,0001-00-0001-94.png
00000009,921,0,1449157116399,1449157117063,953,318,0,0,0,3,4,1,7,0002-00-0001-93.png,0001-00-0001-11.png
00000009,922,1,1449157120029,1449157120673,952,320,0,0,0,4,3,1,7,0001-00-0000-74.png,0002-00-0001-65.png
00000009,923,1,1449157121727,1449157122616,390,326,0,0,0,0,1,1,1,0005-00-0001-18.png,0004-00-0000-92.png
00000009,924,1,1449157123664,1449157124855,1023,278,0,0,0,3,2,1,5,0002-00-0001-85.png,0003-00-0001-85.png
00000009,925,1,1449157125999,1449157127001,487,223,0,0,0,2,3,1,5,0003-00-0001-14.png,0002-00-0000-84.png
00000009,926,1,1449157128050,1449157128929,1041,279,0,0,0,1,0,1,1,0004-00-0001-61.png,0005-00-0001-01.png
00000009,927,0,1449157130010,1449157131067,488,228,0,0,0,2,1,1,3,0003-00-0000-23.png,0004-00-0001-58.png
00000009,928,0,1449157134275,1449157134793,1041,266,0,0,0,1,2,1,3,0004-00-0001-09.png,0003-00-0001-98.png
00000009,929,0,1449157137946,1449157137962,871,358,0,0,0,0,1,1,1,0005-00-0001-81.png,0004-00-0001-51.png
00000009,930,0,1449157140816,1449157140877,872,383,0,0,0,3,4,1,7,0002-00-0001-79.png,0001-00-0000-94.png
00000009,931,0,1449157143838,1449157144405,1048,288,0,0,0,1,2,1,3,0004-00-0000-80.png,0003-00-0001-82.png
00000009,932,1,1449157147913,1449157148484,985,385,0,0,0,2,1,1,3,0003-00-0001-51.png,0004-00-0001-06.png
00000009,933,1,1449157149588,1449157150330,924,305,0,0,0,1,0,1,1,0004-00-0001-79.png,0005-00-0001-29.png
00000009,934,0,1449157151349,1449157151472,913,480,0,0,0,2,3,1,5,0003-00-0001-93.png,0002-00-0000-34.png
00000009,935,1,1449157154681,1449157154712,903,334,0,0,0,3,2,1,5,0002-00-0001-13.png,0003-00-0001-28.png
00000009,936,0,1449157155731,1449157156545,507,236,0,0,0,4,3,1,7,0001-00-0000-72.png,0002-00-0000-46.png
00000009,937,0,1449157159548,1449157160346,498,255,0,0,0,2,1,1,3,0003-00-0001-35.png,0004-00-0001-46.png
00000009,938,1,1449157163240,1449157163288,988,409,0,0,0,1,0,1,1,0004-00-0000-32.png,0005-00-0000-95.png
00000009,939,0,1449157164339,1449157165342,957,278,0,0,0,2,3,1,5,0003-00-0001-78.png,0002-00-0000-85.png
00000009,940,0,1449157168492,1449157168528,888,306,0,0,0,3,4,1,7,0002-00-0001-46.png,0001-00-0000-85.png
00000009,941,0,1449157171649,1449157171712,899,359,0,0,0,1,2,1,3,0004-00-0000-03.png,0003-00-0000-21.png
00000009,942,0,1449157174852,1449157174884,862,342,0,0,0,0,1,1,1,0005-00-0000-56.png,0004-00-0001-25.png
00000009,943,1,1449157178023,1449157178632,1067,266,0,0,0,3,2,1,5,0002-00-0000-71.png,0003-00-0001-30.png
00000009,944,0,1449157179623,1449157180856,511,262,0,0,0,4,3,1,7,0001-00-0001-24.png,0002-00-0001-92.png
00000009,945,0,1449157183789,1449157184349,940,322,0,0,0,1,2,1,3,0004-00-0001-02.png,0003-00-0001-68.png
00000009,946,1,1449157187414,1449157187967,968,318,0,0,0,1,0,1,1,0004-00-0000-79.png,0005-00-0001-06.png
00000009,947,1,1449157188993,1449157189100,907,503,0,0,0,4,3,1,7,0001-00-0000-53.png,0002-00-0001-02.png
00000009,948,0,1449157190156,1449157190212,868,417,0,0,0,0,1,1,1,0005-00-0000-14.png,0004-00-0001-13.png
00000009,949,1,1449157193464,1449157194315,1067,320,0,0,0,3,2,1,5,0002-00-0001-35.png,0003-00-0001-11.png
00000009,950,1,1449157195276,1449157195314,872,360,0,0,0,2,1,1,3,0003-00-0000-73.png,0004-00-0001-54.png
