subject_id,trial,correct_response,stim_time,response_time,x_coord,y_coord,trial_timeout,timeout_time,interTrial_timeout,left_rank,right_rank,distance,joint_rank,left_image,right_image
00000014,1,0,1449158032917,1449158033827,926,371,0,0,0,3,4,1,7,0002-00-0001-62.png,0001-00-0001-77.png
00000014,2,0,1449158036886,1449158036994,511,446,0,0,0,2,1,1,3,0003-00-0000-86.png,0004-00-0001-16.png
00000014,3,1,1449158040007,1449158040607,865,508,0,0,0,1,0,1,1,0004-00-0001-50.png,0005-00-0001-95.png
00000014,4,0,1449158041798,1449158042300,940,465,0,0,0,2,3,1,5,0003-00-0000-56.png,0002-00-0001-29.png
00000014,5,0,1449158045387,1449158045991,357,441,0,0,0,3,2,1,5,0002-00-0000-53.png,0003-00-0000-22.png
00000014,6,1,1449158049084,1449158049160,512,486,0,0,0,0,1,1,1,0005-00-0001-73.png,0004-00-0001-06.png
00000014,7,0,1449158050180,1449158050699,878,429,0,0,0,1,2,1,3,0004-00-0000-40.png,0003-00-0000-48.png
00000014,8,1,1449158053610,1449158054167,929,470,0,0,0,4,3,1,7,0001-00-0000-32.png,0002-00-0001-94.png
00000014,9,1,1449158055672,1449158056151,925,464,0,0,0,2,1,1,3,0003-00-0001-65.png,0004-00-0001-40.png
00000014,10,0,1449158057364,1449158057914,925,459,0,0,0,1,2,1,3,0004-00-0001-88.png,0003-00-0000-01.png
00000014,11,1,1449158060772,1449158061364,926,409,0,0,0,1,0,1,1,0004-00-0001-61.png,0005-00-0001-98.png
00000014,12,1,1449158062385,1449158062912,928,441,0,0,0,4,3,1,7,0001-00-0000-48.png,0002-00-0000-55.png
00000014,13,0,1449158064141,1449158064655,899,424,0,0,0,3,4,1,7,0002-00-0000-87.png,0001-00-0000-56.png
00000014,14,0,1449158067732,1449158068193,929,444,0,0,0,2,3,1,5,0003-00-0000-63.png,0002-00-0000-14.png
00000014,15,1,1449158071409,1449158072053,426,375,0,0,0,0,1,1,1,0005-00-0000-67.png,0004-00-0000-57.png
00000014,16,0,1449158073027,1449158073522,401,491,0,0,0,3,2,1,5,0002-00-0000-66.png,0003-00-0000-09.png
00000014,17,0,1449158078882,1449158079354,983,455,0,0,0,1,2,1,3,0004-00-0001-12.png,0003-00-0000-00.png
00000014,18,0,1449158082620,1449158083092,927,520,0,0,0,0,1,1,1,0005-00-0001-10.png,0004-00-0001-77.png
00000014,19,1,1449158086105,1449158086654,928,478,0,0,0,3,2,1,5,0002-00-0000-57.png,0003-00-0000-07.png
00000014,20,1,1449158087648,1449158088151,901,450,0,0,0,2,1,1,3,0003-00-0000-53.png,0004-00-0001-65.png
00000014,21,0,1449158089321,1449158089809,877,520,0,0,0,2,3,1,5,0003-00-0001-96.png,0002-00-0001-83.png
00000014,22,1,1449158097170,1449158097604,957,454,0,0,0,4,3,1,7,0001-00-0000-99.png,0002-00-0001-06.png
00000014,23,0,1449158098589,1449158099067,951,449,0,0,0,3,4,1,7,0002-00-0000-48.png,0001-00-0001-20.png
00000014,24,1,1449158102172,1449158102671,956,454,0,0,0,1,0,1,1,0004-00-0000-74.png,0005-00-0000-39.png
00000014,25,0,1449158103671,1449158104177,877,547,0,0,0,3,4,1,7,0002-00-0000-02.png,0001-00-0000-48.png
00000014,26,1,1449158107111,1449158107564,952,423,0,0,0,4,3,1,7,0001-00-0001-62.png,0002-00-0000-07.png
00000014,27,1,1449158108547,1449158109042,380,514,0,0,0,0,1,1,1,0005-00-0000-08.png,0004-00-0000-31.png
00000014,28,1,1449158110032,1449158110552,901,487,0,0,0,3,2,1,5,0002-00-0001-36.png,0003-00-0000-05.png
00000014,29,1,1449158111615,1449158112173,421,532,0,0,0,2,3,1,5,0003-00-0000-30.png,0002-00-0001-90.png
00000014,30,1,1449158113453,1449158113937,453,396,0,0,0,1,2,1,3,0004-00-0001-12.png,0003-00-0000-07.png
00000014,31,1,1449158114951,1449158115481,896,470,0,0,0,1,0,1,1,0004-00-0000-18.png,0005-00-0001-07.png
00000014,32,1,1449158116572,1449158117091,876,441,0,0,0,2,1,1,3,0003-00-0000-67.png,0004-00-0000-88.png
00000014,33,1,1449158118552,1449158119040,888,462,0,0,0,4,3,1,7,0001-00-0001-44.png,0002-00-0001-99.png
00000014,34,0,1449158120122,1449158120677,912,476,0,0,0,3,4,1,7,0002-00-0001-59.png,0001-00-0001-65.png
00000014,35,0,1449158123674,1449158124174,934,475,0,0,0,2,3,1,5,0003-00-0001-40.png,0002-00-0001-29.png
00000014,36,0,1449158127372,1449158127848,504,502,0,0,0,3,2,1,5,0002-00-0001-59.png,0003-00-0000-63.png
00000014,37,1,1449158130915,1449158131541,350,438,0,0,0,0,1,1,1,0005-00-0000-78.png,0004-00-0001-87.png
00000014,38,1,1449158132556,1449158133153,899,463,0,0,0,2,1,1,3,0003-00-0001-22.png,0004-00-0001-58.png
00000014,39,1,1449158134216,1449158134915,895,446,0,0,0,1,0,1,1,0004-00-0001-45.png,0005-00-0000-11.png
00000014,40,1,1449158147238,1449158147274,501,395,0,0,0,1,2,1,3,0004-00-0001-16.png,0003-00-0001-93.png
00000014,41,0,1449158148861,1449158149373,944,465,0,0,0,3,4,1,7,0002-00-0000-72.png,0001-00-0001-61.png
00000014,42,0,1449158152508,1449158152981,926,449,0,0,0,1,2,1,3,0004-00-0000-15.png,0003-00-0000-60.png
00000014,43,0,1449158156542,1449158157091,357,402,0,0,0,4,3,1,7,0001-00-0001-41.png,0002-00-0000-68.png
00000014,44,1,1449158159959,1449158160404,921,392,0,0,0,1,0,1,1,0004-00-0001-49.png,0005-00-0000-84.png
00000014,45,1,1449158161353,1449158161858,902,443,0,0,0,2,1,1,3,0003-00-0000-28.png,0004-00-0001-94.png
00000014,46,1,1449158163560,1449158164016,372,517,0,0,0,0,1,1,1,0005-00-0000-94.png,0004-00-0001-79.png
00000014,47,0,1449158165030,1449158165588,921,446,0,0,0,2,3,1,5,0003-00-0001-35.png,0002-00-0001-25.png
00000014,48,1,1449158168936,1449158169430,934,442,0,0,0,3,2,1,5,0002-00-0000-59.png,0003-00-0001-02.png
00000014,49,1,1449158170440,1449158171020,928,466,0,0,0,1,0,1,1,0004-00-0001-27.png,0005-00-0000-47.png
00000014,50,0,1449158172118,1449158172658,896,445,0,0,0,1,2,1,3,0004-00-0000-94.png,0003-00-0000-83.png
00000014,51,1,1449158175995,1449158176497,980,415,0,0,0,2,1,1,3,0003-00-0001-27.png,0004-00-0000-26.png
00000014,52,1,1449158177577,1449158178063,894,456,0,0,0,4,3,1,7,0001-00-0000-99.png,0002-00-0001-07.png
00000014,53,1,1449158179225,1449158179647,419,453,0,0,0,0,1,1,1,0005-00-0000-80.png,0004-00-0000-11.png
00000014,54,0,1449158180853,1449158181328,876,435,0,0,0,2,3,1,5,0003-00-0001-48.png,0002-00-0001-39.png
00000014,55,1,1449158184596,1449158185091,928,415,0,0,0,3,2,1,5,0002-00-0000-78.png,0003-00-0001-80.png
00000014,56,0,1449158186216,1449158186725,877,553,0,0,0,3,4,1,7,0002-00-0000-56.png,0001-00-0000-36.png
00000014,57,1,1449158189804,1449158190261,969,399,0,0,0,1,0,1,1,0004-00-0000-95.png,0005-00-0000-95.png
00000014,58,1,1449158191320,1449158191765,362,476,0,0,0,3,4,1,7,0002-00-0000-82.png,0001-00-0001-66.png
00000014,59,1,1449158192864,1449158193332,364,442,0,0,0,0,1,1,1,0005-00-0000-17.png,0004-00-0001-75.png
00000014,60,0,1449158194492,1449158194993,878,468,0,0,0,1,2,1,3,0004-00-0000-79.png,0003-00-0000-81.png
00000014,61,1,1449158198168,1449158198690,929,417,0,0,0,2,1,1,3,0003-00-0001-71.png,0004-00-0001-89.png
00000014,62,0,1449158200247,1449158200706,409,534,0,0,0,3,2,1,5,0002-00-0001-67.png,0003-00-0000-68.png
00000014,63,0,1449158203554,1449158203965,952,410,0,0,0,2,3,1,5,0003-00-0001-46.png,0002-00-0000-50.png
00000014,64,0,1449158207810,1449158208346,427,384,0,0,0,4,3,1,7,0001-00-0000-76.png,0002-00-0000-64.png
00000014,65,0,1449158211627,1449158212108,325,397,0,0,0,4,3,1,7,0001-00-0000-55.png,0002-00-0001-82.png
00000014,66,1,1449158215215,1449158215707,384,392,0,0,0,1,2,1,3,0004-00-0001-78.png,0003-00-0000-72.png
00000014,67,1,1449158216756,1449158217215,862,398,0,0,0,3,2,1,5,0002-00-0001-06.png,0003-00-0000-38.png
00000014,68,0,1449158218357,1449158218887,928,450,0,0,0,2,3,1,5,0003-00-0000-90.png,0002-00-0001-41.png
00000014,69,1,1449158222113,1449158222562,901,501,0,0,0,2,1,1,3,0003-00-0001-81.png,0004-00-0000-98.png
00000014,70,0,1449158223554,1449158224087,926,487,0,0,0,3,4,1,7,0002-00-0000-96.png,0001-00-0000-85.png
00000014,71,1,1449158227102,1449158227638,924,517,0,0,0,1,0,1,1,0004-00-0000-96.png,0005-00-0001-04.png
00000014,72,1,1449158228732,1449158229334,372,360,0,0,0,0,1,1,1,0005-00-0001-40.png,0004-00-0001-06.png
00000014,73,1,1449158230402,1449158230903,913,450,0,0,0,2,1,1,3,0003-00-0000-70.png,0004-00-0000-58.png
00000014,74,1,1449158232062,1449158232596,344,421,0,0,0,0,1,1,1,0005-00-0001-47.png,0004-00-0001-39.png
00000014,75,0,1449158233652,1449158234087,453,436,0,0,0,3,2,1,5,0002-00-0000-07.png,0003-00-0001-94.png
00000014,76,0,1449158237340,1449158237819,896,411,0,0,0,1,2,1,3,0004-00-0000-81.png,0003-00-0000-93.png
00000014,77,1,1449158241165,1449158241672,948,437,0,0,0,1,0,1,1,0004-00-0001-47.png,0005-00-0000-51.png
00000014,78,0,1449158242756,1449158243297,876,476,0,0,0,2,3,1,5,0003-00-0001-28.png,0002-00-0001-92.png
00000014,79,0,1449158246265,1449158246758,394,374,0,0,0,4,3,1,7,0001-00-0000-08.png,0002-00-0000-57.png
00000014,80,0,1449158249634,1449158250092,947,394,0,0,0,3,4,1,7,0002-00-0000-16.png,0001-00-0001-11.png
00000014,81,0,1449158253391,1449158253950,453,410,0,0,0,2,1,1,3,0003-00-0000-91.png,0004-00-0001-37.png
00000014,82,1,1449158257107,1449158257761,337,372,0,0,0,3,4,1,7,0002-00-0000-00.png,0001-00-0001-47.png
00000014,83,0,1449158258744,1449158259272,366,427,0,0,0,4,3,1,7,0001-00-0000-12.png,0002-00-0001-80.png
00000014,84,1,1449158262242,1449158262752,899,510,0,0,0,1,0,1,1,0004-00-0001-60.png,0005-00-0001-80.png
00000014,85,1,1449158263855,1449158264294,317,454,0,0,0,0,1,1,1,0005-00-0001-50.png,0004-00-0000-05.png
00000014,86,0,1449158265635,1449158266084,333,445,0,0,0,3,2,1,5,0002-00-0001-80.png,0003-00-0000-45.png
00000014,87,0,1449158269204,1449158269707,952,450,0,0,0,2,3,1,5,0003-00-0000-54.png,0002-00-0001-55.png
00000014,88,0,1449158273194,1449158273661,949,457,0,0,0,1,2,1,3,0004-00-0000-35.png,0003-00-0001-60.png
00000014,89,1,1449158276555,1449158277017,875,502,0,0,0,1,0,1,1,0004-00-0001-72.png,0005-00-0001-20.png
00000014,90,0,1449158278048,1449158278623,342,371,0,0,0,4,3,1,7,0001-00-0001-38.png,0002-00-0000-98.png
00000014,91,0,1449158281608,1449158282187,345,382,0,0,0,3,2,1,5,0002-00-0000-22.png,0003-00-0000-18.png
00000014,92,0,1449158285221,1449158285705,963,398,0,0,0,3,4,1,7,0002-00-0001-33.png,0001-00-0001-56.png
00000014,93,0,1449158288863,1449158289475,938,476,0,0,0,1,2,1,3,0004-00-0001-57.png,0003-00-0001-90.png
00000014,94,1,1449158292376,1449158292883,868,382,0,0,0,2,1,1,3,0003-00-0001-59.png,0004-00-0001-97.png
00000014,95,0,1449158293940,1449158294539,914,493,0,0,0,2,3,1,5,0003-00-0000-21.png,0002-00-0000-01.png
00000014,96,0,1449158297475,1449158298048,938,424,0,0,0,0,1,1,1,0005-00-0001-71.png,0004-00-0000-31.png
00000014,97,1,1449158301324,1449158301802,973,410,0,0,0,2,1,1,3,0003-00-0000-90.png,0004-00-0001-22.png
00000014,98,0,1449158302865,1449158303373,925,439,0,0,0,2,3,1,5,0003-00-0001-98.png,0002-00-0001-74.png
00000014,99,1,1449158306362,1449158307003,364,520,0,0,0,0,1,1,1,0005-00-0000-99.png,0004-00-0000-33.png
00000014,100,1,1449158308213,1449158308694,938,450,0,0,0,1,0,1,1,0004-00-0001-68.png,0005-00-0001-90.png
00000014,101,0,1449158309824,1449158310347,375,393,0,0,0,3,2,1,5,0002-00-0001-29.png,0003-00-0001-09.png
00000014,102,1,1449158313206,1449158314023,428,384,0,0,0,1,2,1,3,0004-00-0000-20.png,0003-00-0000-19.png
00000014,103,0,1449158315048,1449158315594,883,552,0,0,0,3,4,1,7,0002-00-0001-43.png,0001-00-0001-46.png
00000014,104,0,1449158318631,1449158319199,420,409,0,0,0,4,3,1,7,0001-00-0001-31.png,0002-00-0001-15.png
00000014,105,0,1449158322415,1449158322864,951,423,0,0,0,2,3,1,5,0003-00-0000-85.png,0002-00-0000-88.png
00000014,106,0,1449158325993,1449158326496,902,520,0,0,0,0,1,1,1,0005-00-0000-97.png,0004-00-0000-10.png
00000014,107,0,1449158329490,1449158330149,421,356,0,0,0,3,2,1,5,0002-00-0001-49.png,0003-00-0000-13.png
00000014,108,1,1449158333245,1449158333704,976,412,0,0,0,1,0,1,1,0004-00-0001-61.png,0005-00-0000-42.png
00000014,109,1,1449158334866,1449158335438,911,474,0,0,0,2,1,1,3,0003-00-0001-17.png,0004-00-0001-46.png
00000014,110,0,1449158336647,1449158337106,369,453,0,0,0,4,3,1,7,0001-00-0000-28.png,0002-00-0000-06.png
00000014,111,0,1449158340305,1449158340817,883,451,0,0,0,3,4,1,7,0002-00-0001-51.png,0001-00-0000-78.png
00000014,112,1,1449158343833,1449158344409,393,401,0,0,0,1,2,1,3,0004-00-0000-82.png,0003-00-0001-96.png
00000014,113,1,1449158345550,1449158346048,924,483,0,0,0,3,2,1,5,0002-00-0000-06.png,0003-00-0001-56.png
00000014,114,0,1449158347372,1449158347894,925,463,0,0,0,3,4,1,7,0002-00-0001-54.png,0001-00-0001-84.png
00000014,115,0,1449158350951,1449158351461,951,437,0,0,0,1,2,1,3,0004-00-0001-01.png,0003-00-0000-03.png
00000014,116,0,1449158354509,1449158354976,939,449,0,0,0,2,3,1,5,0003-00-0001-61.png,0002-00-0001-80.png
00000014,117,1,1449158357897,1449158358447,927,383,0,0,0,2,1,1,3,0003-00-0000-91.png,0004-00-0000-65.png
00000014,118,1,1449158359537,1449158360083,401,462,0,0,0,0,1,1,1,0005-00-0001-03.png,0004-00-0000-99.png
00000014,119,0,1449158361347,1449158361802,360,554,0,0,0,4,3,1,7,0001-00-0000-25.png,0002-00-0001-48.png
00000014,120,1,1449158364929,1449158365442,953,437,0,0,0,1,0,1,1,0004-00-0000-49.png,0005-00-0000-23.png
00000014,121,0,1449158366575,1449158367470,401,500,0,0,0,1,0,1,1,0004-00-0000-23.png,0005-00-0001-56.png
00000014,122,0,1449158370521,1449158370995,423,367,0,0,0,3,2,1,5,0002-00-0001-47.png,0003-00-0001-22.png
00000014,123,1,1449158373988,1449158374518,931,476,0,0,0,2,1,1,3,0003-00-0001-02.png,0004-00-0001-14.png
00000014,124,0,1449158375609,1449158376121,958,488,0,0,0,3,4,1,7,0002-00-0001-63.png,0001-00-0001-40.png
00000014,125,0,1449158379337,1449158379836,350,384,0,0,0,4,3,1,7,0001-00-0001-97.png,0002-00-0001-39.png
00000014,126,0,1449158383311,1449158383752,925,507,0,0,0,1,2,1,3,0004-00-0000-26.png,0003-00-0000-98.png
00000014,127,0,1449158386610,1449158387050,907,526,0,0,0,2,3,1,5,0003-00-0000-65.png,0002-00-0001-07.png
00000014,128,0,1449158390167,1449158390671,876,444,0,0,0,0,1,1,1,0005-00-0000-27.png,0004-00-0000-64.png
00000014,129,1,1449158393619,1449158394169,878,520,0,0,0,2,1,1,3,0003-00-0000-49.png,0004-00-0001-52.png
00000014,130,1,1449158395419,1449158395964,900,449,0,0,0,3,2,1,5,0002-00-0000-36.png,0003-00-0000-73.png
00000014,131,1,1449158397336,1449158397778,392,462,0,0,0,0,1,1,1,0005-00-0001-53.png,0004-00-0001-66.png
00000014,132,0,1449158399124,1449158399521,338,450,0,0,0,4,3,1,7,0001-00-0000-56.png,0002-00-0001-77.png
00000014,133,1,1449158402421,1449158402916,879,507,0,0,0,1,0,1,1,0004-00-0000-62.png,0005-00-0000-88.png
00000014,134,0,1449158404092,1449158405060,896,524,0,0,0,3,4,1,7,0002-00-0001-50.png,0001-00-0001-05.png
00000014,135,0,1449158408814,1449158409321,965,449,0,0,0,1,2,1,3,0004-00-0001-60.png,0003-00-0000-26.png
00000014,136,0,1449158412369,1449158412884,973,420,0,0,0,2,3,1,5,0003-00-0000-10.png,0002-00-0000-31.png
00000014,137,0,1449158415750,1449158416163,904,351,0,0,0,0,1,1,1,0005-00-0001-32.png,0004-00-0001-75.png
00000014,138,0,1449158419407,1449158419882,938,426,0,0,0,1,2,1,3,0004-00-0000-49.png,0003-00-0001-66.png
00000014,139,0,1449158424795,1449158425285,976,410,0,0,0,3,4,1,7,0002-00-0000-73.png,0001-00-0001-15.png
00000014,140,1,1449158428342,1449158428856,904,506,0,0,0,1,0,1,1,0004-00-0000-36.png,0005-00-0001-33.png
00000014,141,0,1449158429912,1449158430403,882,552,0,0,0,2,3,1,5,0003-00-0000-22.png,0002-00-0000-90.png
00000014,142,0,1449158433256,1449158433805,356,384,0,0,0,3,2,1,5,0002-00-0001-64.png,0003-00-0001-90.png
00000014,143,1,1449158436710,1449158437205,950,379,0,0,0,2,1,1,3,0003-00-0000-60.png,0004-00-0001-63.png
00000014,144,0,1449158438230,1449158438632,401,488,0,0,0,4,3,1,7,0001-00-0001-77.png,0002-00-0001-27.png
00000014,145,1,1449158441529,1449158442117,926,397,0,0,0,2,1,1,3,0003-00-0001-31.png,0004-00-0000-46.png
00000014,146,1,1449158443291,1449158443713,898,457,0,0,0,3,2,1,5,0002-00-0000-55.png,0003-00-0001-36.png
00000014,147,1,1449158444812,1449158445402,899,438,0,0,0,1,0,1,1,0004-00-0001-20.png,0005-00-0001-23.png
00000014,148,0,1449158446501,1449158447523,928,413,0,0,0,2,3,1,5,0003-00-0001-30.png,0002-00-0001-20.png
00000014,149,0,1449158450904,1449158451391,952,462,0,0,0,3,4,1,7,0002-00-0000-13.png,0001-00-0001-98.png
00000014,150,0,1449158454259,1449158454737,921,498,0,0,0,0,1,1,1,0005-00-0000-45.png,0004-00-0000-56.png
00000014,151,0,1449158457673,1449158458157,928,431,0,0,0,1,2,1,3,0004-00-0000-42.png,0003-00-0000-77.png
00000014,152,1,1449158461976,1449158462479,927,527,0,0,0,4,3,1,7,0001-00-0001-72.png,0002-00-0000-81.png
00000014,153,1,1449158463656,1449158464146,877,545,0,0,0,2,1,1,3,0003-00-0001-90.png,0004-00-0001-91.png
00000014,154,0,1449158465379,1449158465873,950,456,0,0,0,1,2,1,3,0004-00-0001-26.png,0003-00-0000-91.png
00000014,155,0,1449158469810,1449158470270,934,472,0,0,0,0,1,1,1,0005-00-0000-75.png,0004-00-0001-32.png
00000014,156,1,1449158473444,1449158473946,905,532,0,0,0,3,2,1,5,0002-00-0000-31.png,0003-00-0000-88.png
00000014,157,1,1449158475158,1449158475704,924,458,0,0,0,1,0,1,1,0004-00-0001-63.png,0005-00-0001-06.png
00000014,158,0,1449158476795,1449158477367,931,480,0,0,0,3,4,1,7,0002-00-0001-16.png,0001-00-0001-79.png
00000014,159,1,1449158483233,1449158483750,453,386,0,0,0,2,3,1,5,0003-00-0000-89.png,0002-00-0000-71.png
00000014,160,0,1449158485033,1449158485547,338,424,0,0,0,4,3,1,7,0001-00-0001-80.png,0002-00-0001-40.png
00000014,161,1,1449158489099,1449158489603,976,463,0,0,0,2,1,1,3,0003-00-0001-02.png,0004-00-0000-48.png
00000014,162,0,1449158490726,1449158491223,376,449,0,0,0,4,3,1,7,0001-00-0001-15.png,0002-00-0001-49.png
00000014,163,0,1449158494413,1449158494881,896,439,0,0,0,0,1,1,1,0005-00-0001-56.png,0004-00-0000-84.png
00000014,164,0,1449158497869,1449158498333,979,415,0,0,0,1,2,1,3,0004-00-0001-80.png,0003-00-0000-65.png
00000014,165,0,1449158501307,1449158501864,947,440,0,0,0,2,3,1,5,0003-00-0000-58.png,0002-00-0001-50.png
00000014,166,0,1449158505277,1449158505794,970,416,0,0,0,3,4,1,7,0002-00-0001-45.png,0001-00-0001-69.png
00000014,167,1,1449158509096,1449158509694,931,500,0,0,0,1,0,1,1,0004-00-0001-33.png,0005-00-0001-04.png
00000014,168,1,1449158510769,1449158511416,951,475,0,0,0,3,2,1,5,0002-00-0001-91.png,0003-00-0001-08.png
00000014,169,1,1449158512528,1449158513003,382,449,0,0,0,0,1,1,1,0005-00-0001-19.png,0004-00-0001-38.png
00000014,170,0,1449158514225,1449158514710,922,472,0,0,0,2,3,1,5,0003-00-0001-81.png,0002-00-0000-69.png
00000014,171,0,1449158517781,1449158518284,925,527,0,0,0,3,4,1,7,0002-00-0000-89.png,0001-00-0000-97.png
00000014,172,1,1449158521529,1449158521958,946,453,0,0,0,1,0,1,1,0004-00-0001-35.png,0005-00-0000-52.png
00000014,173,0,1449158523026,1449158523677,406,402,0,0,0,3,2,1,5,0002-00-0001-91.png,0003-00-0000-37.png
00000014,174,0,1449158526944,1449158527405,921,524,0,0,0,1,2,1,3,0004-00-0001-90.png,0003-00-0000-31.png
00000014,175,0,1449158531699,1449158532214,416,496,0,0,0,4,3,1,7,0001-00-0000-97.png,0002-00-0000-94.png
00000014,176,1,1449158535508,1449158535990,964,448,0,0,0,2,1,1,3,0003-00-0000-31.png,0004-00-0001-47.png
00000014,177,1,1449158537019,1449158537569,926,476,0,0,0,4,3,1,7,0001-00-0000-92.png,0002-00-0001-54.png
00000014,178,1,1449158538735,1449158539187,447,463,0,0,0,0,1,1,1,0005-00-0001-46.png,0004-00-0001-65.png
00000014,179,1,1449158540370,1449158540811,402,429,0,0,0,1,2,1,3,0004-00-0001-49.png,0003-00-0000-07.png
00000014,180,0,1449158542480,1449158542952,900,437,0,0,0,2,3,1,5,0003-00-0000-86.png,0002-00-0000-12.png
00000014,181,0,1449158546834,1449158547293,946,446,0,0,0,3,4,1,7,0002-00-0001-66.png,0001-00-0001-64.png
00000014,182,0,1449158550191,1449158550763,453,410,0,0,0,2,1,1,3,0003-00-0001-77.png,0004-00-0001-50.png
00000014,183,0,1449158553597,1449158554119,438,405,0,0,0,3,2,1,5,0002-00-0000-90.png,0003-00-0001-41.png
00000014,184,1,1449158557114,1449158557633,950,436,0,0,0,1,0,1,1,0004-00-0000-18.png,0005-00-0001-59.png
00000014,185,1,1449158558662,1449158559154,913,476,0,0,0,2,1,1,3,0003-00-0001-58.png,0004-00-0001-36.png
00000014,186,0,1449158560310,1449158560813,901,476,0,0,0,3,4,1,7,0002-00-0001-46.png,0001-00-0001-19.png
00000014,187,0,1449158563788,1449158564292,925,437,0,0,0,2,3,1,5,0003-00-0000-15.png,0002-00-0001-88.png
00000014,188,1,1449158567594,1449158568159,408,524,0,0,0,1,2,1,3,0004-00-0001-83.png,0003-00-0001-50.png
00000014,189,1,1449158569131,1449158569663,913,462,0,0,0,1,0,1,1,0004-00-0001-04.png,0005-00-0000-44.png
00000014,190,1,1449158570703,1449158571269,881,479,0,0,0,3,2,1,5,0002-00-0000-26.png,0003-00-0000-08.png
00000014,191,1,1449158572326,1449158572826,376,423,0,0,0,0,1,1,1,0005-00-0000-48.png,0004-00-0001-64.png
00000014,192,0,1449158573887,1449158574402,412,528,0,0,0,4,3,1,7,0001-00-0000-90.png,0002-00-0001-14.png
00000014,193,0,1449158579819,1449158580301,964,476,0,0,0,2,3,1,5,0003-00-0001-70.png,0002-00-0001-73.png
00000014,194,0,1449158583498,1449158584201,398,396,0,0,0,4,3,1,7,0001-00-0000-73.png,0002-00-0000-28.png
00000014,195,1,1449158587101,1449158587566,946,441,0,0,0,1,0,1,1,0004-00-0001-08.png,0005-00-0001-48.png
00000014,196,1,1449158588615,1449158589109,899,457,0,0,0,2,1,1,3,0003-00-0000-98.png,0004-00-0000-52.png
00000014,197,1,1449158590186,1449158590619,453,462,0,0,0,0,1,1,1,0005-00-0001-32.png,0004-00-0000-46.png
00000014,198,1,1449158591686,1449158592764,453,527,0,0,0,3,4,1,7,0002-00-0001-32.png,0001-00-0000-61.png
00000014,199,0,1449158593892,1449158594435,891,453,0,0,0,1,2,1,3,0004-00-0001-56.png,0003-00-0000-70.png
00000014,200,0,1449158597421,1449158598033,384,409,0,0,0,3,2,1,5,0002-00-0000-07.png,0003-00-0001-26.png
00000014,201,1,1449158601090,1449158601625,418,467,0,0,0,0,1,1,1,0005-00-0001-89.png,0004-00-0001-38.png
00000014,202,0,1449158602682,1449158603179,897,482,0,0,0,2,3,1,5,0003-00-0000-78.png,0002-00-0000-51.png
00000014,203,0,1449158606355,1449158606805,925,515,0,0,0,1,2,1,3,0004-00-0001-88.png,0003-00-0000-05.png
00000014,204,0,1449158609783,1449158610284,898,517,0,0,0,3,4,1,7,0002-00-0000-10.png,0001-00-0000-97.png
00000014,205,1,1449158613327,1449158613845,907,532,0,0,0,1,0,1,1,0004-00-0000-06.png,0005-00-0000-17.png
00000014,206,1,1449158614854,1449158615404,920,442,0,0,0,3,2,1,5,0002-00-0000-30.png,0003-00-0000-20.png
00000014,207,1,1449158616502,1449158617100,890,495,0,0,0,2,1,1,3,0003-00-0001-05.png,0004-00-0000-75.png
00000014,208,0,1449158618144,1449158618601,362,462,0,0,0,4,3,1,7,0001-00-0001-99.png,0002-00-0001-90.png
00000014,209,0,1449158623928,1449158624414,976,449,0,0,0,0,1,1,1,0005-00-0000-29.png,0004-00-0000-76.png
00000014,210,1,1449158627642,1449158628122,973,419,0,0,0,1,0,1,1,0004-00-0001-04.png,0005-00-0000-60.png
00000014,211,0,1449158629374,1449158629813,893,435,0,0,0,1,2,1,3,0004-00-0001-83.png,0003-00-0001-90.png
00000014,212,0,1449158632919,1449158633392,913,384,0,0,0,2,3,1,5,0003-00-0000-51.png,0002-00-0001-72.png
00000014,213,0,1449158636826,1449158637283,904,480,0,0,0,3,4,1,7,0002-00-0001-25.png,0001-00-0001-18.png
00000014,214,1,1449158642229,1449158642702,959,447,0,0,0,2,1,1,3,0003-00-0000-69.png,0004-00-0000-68.png
00000014,215,1,1449158643717,1449158644280,926,463,0,0,0,4,3,1,7,0001-00-0000-47.png,0002-00-0000-19.png
00000014,216,1,1449158645325,1449158645877,933,473,0,0,0,3,2,1,5,0002-00-0000-75.png,0003-00-0001-71.png
00000014,217,1,1449158646925,1449158647437,900,464,0,0,0,3,2,1,5,0002-00-0001-55.png,0003-00-0000-94.png
00000014,218,0,1449158648475,1449158648967,415,482,0,0,0,2,1,1,3,0003-00-0001-87.png,0004-00-0001-31.png
00000014,219,0,1449158652193,1449158652730,409,382,0,0,0,4,3,1,7,0001-00-0001-36.png,0002-00-0000-65.png
00000014,220,0,1449158656585,1449158657065,938,450,0,0,0,3,4,1,7,0002-00-0001-24.png,0001-00-0000-83.png
00000014,221,1,1449158660042,1449158660536,904,400,0,0,0,1,0,1,1,0004-00-0000-14.png,0005-00-0001-78.png
00000014,222,0,1449158661558,1449158662087,888,475,0,0,0,2,3,1,5,0003-00-0000-79.png,0002-00-0001-06.png
00000014,223,0,1449158677530,1449158677919,935,431,0,0,0,0,1,1,1,0005-00-0001-94.png,0004-00-0000-42.png
00000014,224,1,1449158686734,1449158687222,421,530,0,0,0,1,2,1,3,0004-00-0001-84.png,0003-00-0001-00.png
00000014,225,1,1449158688562,1449158689115,903,493,0,0,0,3,2,1,5,0002-00-0000-35.png,0003-00-0001-81.png
00000014,226,1,1449158690271,1449158690722,369,477,0,0,0,0,1,1,1,0005-00-0000-54.png,0004-00-0000-22.png
00000014,227,0,1449158691731,1449158692278,949,484,0,0,0,3,4,1,7,0002-00-0000-80.png,0001-00-0001-80.png
00000014,228,1,1449158698297,1449158698688,953,487,0,0,0,1,0,1,1,0004-00-0000-70.png,0005-00-0001-47.png
00000014,229,1,1449158699764,1449158700296,939,501,0,0,0,2,1,1,3,0003-00-0001-78.png,0004-00-0000-26.png
00000014,230,0,1449158701342,1449158701819,886,476,0,0,0,1,2,1,3,0004-00-0000-84.png,0003-00-0000-59.png
00000014,231,0,1449158705344,1449158705831,357,419,0,0,0,4,3,1,7,0001-00-0001-55.png,0002-00-0001-53.png
00000014,232,0,1449158710567,1449158711011,950,542,0,0,0,2,3,1,5,0003-00-0000-97.png,0002-00-0000-36.png
00000014,233,1,1449158714271,1449158714735,878,432,0,0,0,1,0,1,1,0004-00-0001-19.png,0005-00-0001-02.png
00000014,234,1,1449158715664,1449158716184,924,482,0,0,0,2,1,1,3,0003-00-0001-57.png,0004-00-0000-58.png
00000014,235,1,1449158717189,1449158717771,905,506,0,0,0,4,3,1,7,0001-00-0001-26.png,0002-00-0000-49.png
00000014,236,0,1449158718794,1449158719310,899,508,0,0,0,3,4,1,7,0002-00-0000-95.png,0001-00-0001-75.png
00000014,237,0,1449158722342,1449158722994,350,422,0,0,0,3,2,1,5,0002-00-0001-08.png,0003-00-0001-42.png
00000014,238,0,1449158726168,1449158726671,932,447,0,0,0,2,3,1,5,0003-00-0000-23.png,0002-00-0000-57.png
00000014,239,0,1449158729733,1449158730190,895,524,0,0,0,1,2,1,3,0004-00-0000-05.png,0003-00-0001-29.png
00000014,240,1,1449158733454,1449158733967,416,441,0,0,0,0,1,1,1,0005-00-0001-90.png,0004-00-0000-04.png
00000014,241,1,1449158734971,1449158735504,914,475,0,0,0,1,0,1,1,0004-00-0000-95.png,0005-00-0001-49.png
00000014,242,0,1449158736584,1449158737017,887,450,0,0,0,1,2,1,3,0004-00-0001-31.png,0003-00-0000-71.png
00000014,243,0,1449158740534,1449158740988,945,451,0,0,0,0,1,1,1,0005-00-0000-44.png,0004-00-0000-15.png
00000014,244,0,1449158744120,1449158744679,372,340,0,0,0,4,3,1,7,0001-00-0000-47.png,0002-00-0001-63.png
00000014,245,0,1449158747916,1449158748395,921,524,0,0,0,2,3,1,5,0003-00-0001-93.png,0002-00-0001-71.png
00000014,246,0,1449158751599,1449158752180,974,491,0,0,0,3,4,1,7,0002-00-0000-23.png,0001-00-0000-66.png
00000014,247,1,1449158755431,1449158755900,977,475,0,0,0,2,1,1,3,0003-00-0001-29.png,0004-00-0001-11.png
00000014,248,1,1449158756889,1449158757448,921,487,0,0,0,3,2,1,5,0002-00-0000-51.png,0003-00-0001-56.png
00000014,249,0,1449158758474,1449158758886,412,483,0,0,0,4,3,1,7,0001-00-0000-23.png,0002-00-0001-45.png
00000014,250,0,1449158762406,1449158762858,913,553,0,0,0,1,2,1,3,0004-00-0001-77.png,0003-00-0001-88.png
00000014,251,0,1449158766059,1449158766549,952,437,0,0,0,0,1,1,1,0005-00-0000-67.png,0004-00-0000-86.png
00000014,252,0,1449158770611,1449158771069,973,470,0,0,0,2,3,1,5,0003-00-0001-04.png,0002-00-0000-40.png
00000014,253,1,1449158774980,1449158775460,982,426,0,0,0,2,1,1,3,0003-00-0000-84.png,0004-00-0000-65.png
00000014,254,1,1449158776422,1449158776973,872,444,0,0,0,3,2,1,5,0002-00-0001-60.png,0003-00-0000-86.png
00000014,255,1,1449158778104,1449158778619,926,463,0,0,0,1,0,1,1,0004-00-0000-07.png,0005-00-0001-41.png
00000014,256,0,1449158779630,1449158780100,878,493,0,0,0,3,4,1,7,0002-00-0000-51.png,0001-00-0000-83.png
00000014,257,1,1449158785911,1449158786359,957,452,0,0,0,1,0,1,1,0004-00-0000-92.png,0005-00-0000-22.png
00000014,258,0,1449158787345,1449158787862,950,482,0,0,0,3,4,1,7,0002-00-0001-00.png,0001-00-0000-69.png
00000014,259,0,1449158791132,1449158791590,903,545,0,0,0,1,2,1,3,0004-00-0000-69.png,0003-00-0000-62.png
00000014,260,0,1449158794648,1449158795125,957,480,0,0,0,0,1,1,1,0005-00-0001-81.png,0004-00-0001-74.png
00000014,261,0,1449158799627,1449158800090,957,474,0,0,0,2,3,1,5,0003-00-0001-54.png,0002-00-0000-66.png
00000014,262,1,1449158803148,1449158803595,927,442,0,0,0,4,3,1,7,0001-00-0001-40.png,0002-00-0001-25.png
00000014,263,1,1449158804574,1449158805062,886,450,0,0,0,3,2,1,5,0002-00-0001-20.png,0003-00-0000-99.png
00000014,264,1,1449158806120,1449158806665,898,457,0,0,0,2,1,1,3,0003-00-0001-76.png,0004-00-0001-57.png
00000014,265,0,1449158807767,1449158808236,873,457,0,0,0,2,3,1,5,0003-00-0000-32.png,0002-00-0000-69.png
00000014,266,0,1449158813096,1449158813541,951,449,0,0,0,3,4,1,7,0002-00-0000-86.png,0001-00-0000-45.png
00000014,267,1,1449158816424,1449158816958,873,543,0,0,0,3,2,1,5,0002-00-0001-53.png,0003-00-0001-45.png
00000014,268,1,1449158817907,1449158818402,900,463,0,0,0,2,1,1,3,0003-00-0000-08.png,0004-00-0000-45.png
00000014,269,1,1449158819373,1449158819761,376,463,0,0,0,1,2,1,3,0004-00-0000-64.png,0003-00-0000-13.png
00000014,270,1,1449158820813,1449158821263,899,457,0,0,0,1,0,1,1,0004-00-0001-94.png,0005-00-0001-35.png
00000014,271,0,1449158822394,1449158822854,369,453,0,0,0,4,3,1,7,0001-00-0000-10.png,0002-00-0000-15.png
00000014,272,1,1449158826109,1449158826713,438,422,0,0,0,0,1,1,1,0005-00-0000-07.png,0004-00-0001-08.png
00000014,273,1,1449158827691,1449158828180,925,456,0,0,0,1,0,1,1,0004-00-0000-61.png,0005-00-0000-85.png
00000014,274,0,1449158829250,1449158829641,462,469,0,0,0,4,3,1,7,0001-00-0000-98.png,0002-00-0001-92.png
00000014,275,0,1449158833315,1449158833766,873,435,0,0,0,3,4,1,7,0002-00-0000-12.png,0001-00-0001-26.png
00000014,276,0,1449158837620,1449158838020,975,480,0,0,0,2,3,1,5,0003-00-0000-21.png,0002-00-0001-72.png
00000014,277,1,1449158841154,1449158841733,359,423,0,0,0,0,1,1,1,0005-00-0000-08.png,0004-00-0001-31.png
00000014,278,1,1449158842718,1449158843159,398,481,0,0,0,1,2,1,3,0004-00-0000-44.png,0003-00-0000-27.png
00000014,279,0,1449158844267,1449158844681,464,477,0,0,0,3,2,1,5,0002-00-0001-57.png,0003-00-0001-36.png
00000014,280,0,1449158847736,1449158848664,433,494,0,0,0,2,1,1,3,0003-00-0000-27.png,0004-00-0000-52.png
00000014,281,0,1449158851632,1449158852126,951,463,0,0,0,0,1,1,1,0005-00-0001-72.png,0004-00-0001-07.png
00000014,282,0,1449158855418,1449158855837,926,435,0,0,0,3,4,1,7,0002-00-0001-90.png,0001-00-0001-37.png
00000014,283,1,1449158858967,1449158859476,376,398,0,0,0,1,2,1,3,0004-00-0000-36.png,0003-00-0000-86.png
00000014,284,0,1449158860462,1449158860983,928,493,0,0,0,2,3,1,5,0003-00-0001-83.png,0002-00-0001-57.png
00000014,285,1,1449158864473,1449158865108,877,520,0,0,0,4,3,1,7,0001-00-0001-73.png,0002-00-0001-92.png
00000014,286,1,1449158866105,1449158866566,903,493,0,0,0,1,0,1,1,0004-00-0001-89.png,0005-00-0000-52.png
00000014,287,0,1449158867571,1449158868470,462,449,0,0,0,3,2,1,5,0002-00-0000-66.png,0003-00-0001-86.png
00000014,288,1,1449158872095,1449158872573,970,453,0,0,0,2,1,1,3,0003-00-0000-58.png,0004-00-0000-66.png
00000014,289,0,1449158873555,1449158874009,903,494,0,0,0,1,2,1,3,0004-00-0001-66.png,0003-00-0001-90.png
00000014,290,0,1449158877175,1449158877607,971,463,0,0,0,3,4,1,7,0002-00-0001-74.png,0001-00-0001-76.png
00000014,291,1,1449158881661,1449158882109,911,553,0,0,0,1,0,1,1,0004-00-0001-93.png,0005-00-0001-72.png
00000014,292,0,1449158883127,1449158883628,459,520,0,0,0,4,3,1,7,0001-00-0001-66.png,0002-00-0001-76.png
00000014,293,1,1449158886835,1449158886863,518,328,0,0,0,0,1,1,1,0005-00-0000-65.png,0004-00-0001-89.png
00000014,294,1,1449158887897,1449158888392,874,541,0,0,0,2,1,1,3,0003-00-0001-35.png,0004-00-0000-61.png
00000014,295,0,1449158889353,1449158889861,413,435,0,0,0,3,2,1,5,0002-00-0000-74.png,0003-00-0000-34.png
00000014,296,0,1449158892971,1449158893491,952,437,0,0,0,2,3,1,5,0003-00-0001-32.png,0002-00-0000-33.png
00000014,297,0,1449158897692,1449158898124,916,535,0,0,0,2,3,1,5,0003-00-0000-27.png,0002-00-0000-39.png
00000014,298,0,1449158904771,1449158905207,925,553,0,0,0,0,1,1,1,0005-00-0001-54.png,0004-00-0000-22.png
00000014,299,1,1449158908522,1449158908962,925,542,0,0,0,1,0,1,1,0004-00-0000-65.png,0005-00-0000-97.png
00000014,300,1,1449158909927,1449158910510,953,468,0,0,0,4,3,1,7,0001-00-0001-17.png,0002-00-0000-84.png
00000014,301,1,1449158911617,1449158912159,926,489,0,0,0,2,1,1,3,0003-00-0000-11.png,0004-00-0000-12.png
00000014,302,1,1449158913226,1449158913663,420,460,0,0,0,1,2,1,3,0004-00-0001-25.png,0003-00-0001-00.png
00000014,303,0,1449158914662,1449158915049,376,475,0,0,0,3,2,1,5,0002-00-0000-22.png,0003-00-0000-70.png
00000014,304,0,1449158918151,1449158918748,915,449,0,0,0,3,4,1,7,0002-00-0001-31.png,0001-00-0001-21.png
00000014,305,0,1449158921998,1449158922469,937,450,0,0,0,3,4,1,7,0002-00-0000-21.png,0001-00-0001-80.png
00000014,306,0,1449158925794,1449158926267,956,473,0,0,0,2,3,1,5,0003-00-0001-57.png,0002-00-0001-95.png
00000014,307,1,1449158929108,1449158929562,953,410,0,0,0,3,2,1,5,0002-00-0000-57.png,0003-00-0001-85.png
00000014,308,1,1449158930693,1449158931131,334,470,0,0,0,0,1,1,1,0005-00-0000-23.png,0004-00-0000-40.png
00000014,309,1,1449158932352,1449158932823,915,474,0,0,0,1,0,1,1,0004-00-0000-74.png,0005-00-0000-00.png
00000014,310,1,1449158933993,1449158934485,873,455,0,0,0,2,1,1,3,0003-00-0001-35.png,0004-00-0001-32.png
00000014,311,1,1449158935723,1449158936213,886,476,0,0,0,4,3,1,7,0001-00-0001-21.png,0002-00-0000-76.png
00000014,312,1,1449158937365,1449158937794,427,488,0,0,0,1,2,1,3,0004-00-0001-29.png,0003-00-0001-34.png
00000014,313,0,1449158938996,1449158939418,914,475,0,0,0,2,3,1,5,0003-00-0001-28.png,0002-00-0000-76.png
00000014,314,0,1449158942613,1449158943121,935,472,0,0,0,3,4,1,7,0002-00-0000-97.png,0001-00-0000-51.png
00000014,315,0,1449158946069,1449158946615,914,449,0,0,0,1,2,1,3,0004-00-0001-70.png,0003-00-0000-56.png
00000014,316,1,1449158949793,1449158950576,948,435,0,0,0,3,2,1,5,0002-00-0000-91.png,0003-00-0001-71.png
00000014,317,1,1449158951651,1449158952339,374,368,0,0,0,0,1,1,1,0005-00-0001-99.png,0004-00-0001-92.png
00000014,318,1,1449158953456,1449158953957,901,503,0,0,0,2,1,1,3,0003-00-0000-56.png,0004-00-0000-75.png
00000014,319,0,1449158955123,1449158955565,381,439,0,0,0,4,3,1,7,0001-00-0001-57.png,0002-00-0001-49.png
00000014,320,1,1449158958535,1449158959043,876,547,0,0,0,1,0,1,1,0004-00-0000-27.png,0005-00-0000-64.png
00000014,321,0,1449158960122,1449158960625,900,474,0,0,0,1,2,1,3,0004-00-0001-36.png,0003-00-0001-24.png
00000014,322,1,1449158964591,1449158965092,951,475,0,0,0,1,0,1,1,0004-00-0001-48.png,0005-00-0000-40.png
00000014,323,1,1449158966115,1449158966861,439,423,0,0,0,2,3,1,5,0003-00-0000-44.png,0002-00-0000-56.png
00000014,324,0,1449158967933,1449158968508,861,476,0,0,0,3,4,1,7,0002-00-0000-43.png,0001-00-0001-69.png
00000014,325,1,1449158971680,1449158972195,950,457,0,0,0,3,2,1,5,0002-00-0001-09.png,0003-00-0001-72.png
00000014,326,1,1449158973261,1449158973708,363,459,0,0,0,0,1,1,1,0005-00-0001-50.png,0004-00-0001-87.png
00000014,327,0,1449158974878,1449158975323,401,488,0,0,0,4,3,1,7,0001-00-0001-36.png,0002-00-0001-80.png
00000014,328,1,1449158978402,1449158978924,873,433,0,0,0,2,1,1,3,0003-00-0000-94.png,0004-00-0001-21.png
00000014,329,1,1449158980072,1449158980497,901,450,0,0,0,1,0,1,1,0004-00-0001-84.png,0005-00-0000-65.png
00000014,330,0,1449158981639,1449158982226,875,525,0,0,0,2,3,1,5,0003-00-0000-57.png,0002-00-0000-34.png
00000014,331,0,1449158985299,1449158985863,380,407,0,0,0,4,3,1,7,0001-00-0000-23.png,0002-00-0000-91.png
00000014,332,1,1449158988744,1449158989276,952,398,0,0,0,2,1,1,3,0003-00-0001-02.png,0004-00-0000-22.png
00000014,333,0,1449158990354,1449158991113,862,410,0,0,0,0,1,1,1,0005-00-0001-87.png,0004-00-0001-25.png
00000014,334,0,1449158994583,1449158995027,898,436,0,0,0,3,4,1,7,0002-00-0001-45.png,0001-00-0000-12.png
00000014,335,0,1449158998089,1449158998573,952,436,0,0,0,1,2,1,3,0004-00-0000-45.png,0003-00-0000-42.png
00000014,336,1,1449159001558,1449159002138,902,436,0,0,0,3,2,1,5,0002-00-0000-02.png,0003-00-0000-07.png
00000014,337,1,1449159003188,1449159003780,913,495,0,0,0,4,3,1,7,0001-00-0000-01.png,0002-00-0000-51.png
00000014,338,0,1449159005039,1449159005594,914,527,0,0,0,1,2,1,3,0004-00-0001-99.png,0003-00-0000-40.png
00000014,339,1,1449159008450,1449159008986,927,409,0,0,0,1,0,1,1,0004-00-0001-99.png,0005-00-0000-53.png
00000014,340,1,1449159010125,1449159010588,902,468,0,0,0,2,1,1,3,0003-00-0001-34.png,0004-00-0001-62.png
00000014,341,0,1449159011772,1449159012285,874,490,0,0,0,2,3,1,5,0003-00-0000-03.png,0002-00-0000-11.png
00000014,342,1,1449159015397,1449159015942,938,502,0,0,0,3,2,1,5,0002-00-0000-64.png,0003-00-0000-79.png
00000014,343,0,1449159017054,1449159017546,900,463,0,0,0,3,4,1,7,0002-00-0001-83.png,0001-00-0001-29.png
00000014,344,1,1449159020789,1449159021422,409,419,0,0,0,0,1,1,1,0005-00-0000-72.png,0004-00-0001-13.png
00000014,345,0,1449159022499,1449159023023,899,475,0,0,0,1,2,1,3,0004-00-0000-79.png,0003-00-0000-29.png
00000014,346,0,1449159026504,1449159026961,895,542,0,0,0,2,3,1,5,0003-00-0000-70.png,0002-00-0000-20.png
00000014,347,0,1449159030065,1449159030615,403,455,0,0,0,3,2,1,5,0002-00-0001-75.png,0003-00-0001-25.png
00000014,348,0,1449159033910,1449159034853,1002,475,0,0,0,3,4,1,7,0002-00-0000-23.png,0001-00-0000-95.png
00000014,349,1,1449159037704,1449159038297,899,542,0,0,0,1,0,1,1,0004-00-0000-59.png,0005-00-0000-70.png
00000014,350,1,1449159039308,1449159039852,930,480,0,0,0,2,1,1,3,0003-00-0000-87.png,0004-00-0001-42.png
00000014,351,1,1449159040920,1449159041339,419,488,0,0,0,0,1,1,1,0005-00-0000-98.png,0004-00-0001-28.png
00000014,352,0,1449159042459,1449159042873,464,473,0,0,0,4,3,1,7,0001-00-0000-07.png,0002-00-0000-14.png
00000014,353,1,1449159045985,1449159046499,945,429,0,0,0,1,0,1,1,0004-00-0000-75.png,0005-00-0000-12.png
00000014,354,1,1449159047646,1449159048115,862,410,0,0,0,2,1,1,3,0003-00-0000-35.png,0004-00-0001-65.png
00000014,355,1,1449159049263,1449159049679,423,471,0,0,0,2,3,1,5,0003-00-0001-13.png,0002-00-0000-51.png
00000014,356,0,1449159050936,1449159051557,925,502,0,0,0,0,1,1,1,0005-00-0000-49.png,0004-00-0000-15.png
00000014,357,0,1449159054462,1449159054946,913,395,0,0,0,3,4,1,7,0002-00-0000-27.png,0001-00-0001-32.png
00000014,358,0,1449159058212,1449159058880,427,384,0,0,0,4,3,1,7,0001-00-0000-64.png,0002-00-0000-46.png
00000014,359,1,1449159061968,1449159062469,943,460,0,0,0,3,2,1,5,0002-00-0000-57.png,0003-00-0000-79.png
00000014,360,0,1449159063459,1449159063942,901,469,0,0,0,1,2,1,3,0004-00-0000-26.png,0003-00-0000-39.png
00000014,361,1,1449159067542,1449159068157,982,454,0,0,0,3,2,1,5,0002-00-0000-53.png,0003-00-0000-97.png
00000014,362,0,1449159069178,1449159069648,904,467,0,0,0,1,2,1,3,0004-00-0001-50.png,0003-00-0000-31.png
00000014,363,1,1449159073352,1449159073848,888,433,0,0,0,4,3,1,7,0001-00-0001-81.png,0002-00-0001-50.png
00000014,364,1,1449159074857,1449159075532,359,427,0,0,0,0,1,1,1,0005-00-0001-22.png,0004-00-0001-46.png
00000014,365,1,1449159076695,1449159077158,900,475,0,0,0,1,0,1,1,0004-00-0001-90.png,0005-00-0001-26.png
00000014,366,1,1449159078260,1449159078723,874,438,0,0,0,2,1,1,3,0003-00-0000-64.png,0004-00-0000-86.png
00000014,367,0,1449159079908,1449159080400,897,461,0,0,0,2,3,1,5,0003-00-0000-97.png,0002-00-0001-93.png
00000014,368,0,1449159083404,1449159083896,952,448,0,0,0,3,4,1,7,0002-00-0000-71.png,0001-00-0001-68.png
00000014,369,0,1449159087051,1449159087499,934,448,0,0,0,2,3,1,5,0003-00-0000-43.png,0002-00-0001-57.png
00000014,370,1,1449159090611,1449159091072,960,447,0,0,0,2,1,1,3,0003-00-0001-26.png,0004-00-0001-06.png
00000014,371,1,1449159092113,1449159092531,419,480,0,0,0,1,2,1,3,0004-00-0001-35.png,0003-00-0000-32.png
00000014,372,1,1449159093682,1449159094128,913,476,0,0,0,3,2,1,5,0002-00-0000-65.png,0003-00-0000-95.png
00000014,373,0,1449159095252,1449159095773,382,397,0,0,0,1,0,1,1,0004-00-0001-12.png,0005-00-0001-36.png
00000014,374,1,1449159098617,1449159099144,974,378,0,0,0,4,3,1,7,0001-00-0001-83.png,0002-00-0001-38.png
00000014,375,0,1449159100211,1449159100761,875,488,0,0,0,0,1,1,1,0005-00-0001-57.png,0004-00-0001-89.png
00000014,376,0,1449159103659,1449159104117,950,430,0,0,0,3,4,1,7,0002-00-0001-95.png,0001-00-0000-51.png
00000014,377,1,1449159106970,1449159107462,899,489,0,0,0,1,0,1,1,0004-00-0000-29.png,0005-00-0001-82.png
00000014,378,1,1449159108532,1449159109132,926,475,0,0,0,3,2,1,5,0002-00-0001-73.png,0003-00-0001-64.png
00000014,379,1,1449159110201,1449159110598,383,480,0,0,0,0,1,1,1,0005-00-0000-18.png,0004-00-0001-21.png
00000014,380,0,1449159111841,1449159112292,876,502,0,0,0,2,3,1,5,0003-00-0000-07.png,0002-00-0001-54.png
00000014,381,0,1449159115538,1449159116025,401,462,0,0,0,4,3,1,7,0001-00-0001-05.png,0002-00-0001-55.png
00000014,382,0,1449159121259,1449159121776,965,475,0,0,0,1,2,1,3,0004-00-0001-53.png,0003-00-0000-39.png
00000014,383,1,1449159124806,1449159125286,964,465,0,0,0,2,1,1,3,0003-00-0001-48.png,0004-00-0001-84.png
00000014,384,0,1449159126459,1449159126932,882,420,0,0,0,3,4,1,7,0002-00-0001-00.png,0001-00-0000-60.png
00000014,385,0,1449159130039,1449159130526,927,466,0,0,0,1,2,1,3,0004-00-0000-22.png,0003-00-0001-10.png
00000014,386,0,1449159133506,1449159133992,889,519,0,0,0,2,3,1,5,0003-00-0001-51.png,0002-00-0001-84.png
00000014,387,0,1449159136893,1449159137398,960,446,0,0,0,3,4,1,7,0002-00-0000-08.png,0001-00-0000-27.png
00000014,388,1,1449159140260,1449159140719,894,529,0,0,0,1,0,1,1,0004-00-0000-51.png,0005-00-0001-74.png
00000014,389,0,1449159141796,1449159142244,359,470,0,0,0,4,3,1,7,0001-00-0001-06.png,0002-00-0001-36.png
00000014,390,1,1449159145323,1449159145808,952,485,0,0,0,2,1,1,3,0003-00-0001-98.png,0004-00-0001-77.png
00000014,391,1,1449159146923,1449159147342,372,445,0,0,0,0,1,1,1,0005-00-0001-63.png,0004-00-0000-49.png
00000014,392,1,1449159148476,1449159149514,925,437,0,0,0,3,2,1,5,0002-00-0001-79.png,0003-00-0000-91.png
00000014,393,0,1449159150665,1449159151205,908,500,0,0,0,1,2,1,3,0004-00-0001-76.png,0003-00-0001-41.png
00000014,394,0,1449159155493,1449159156068,958,474,0,0,0,0,1,1,1,0005-00-0000-36.png,0004-00-0000-58.png
00000014,395,1,1449159159167,1449159159640,953,467,0,0,0,1,0,1,1,0004-00-0001-11.png,0005-00-0000-87.png
00000014,396,0,1449159160772,1449159161308,367,454,0,0,0,3,2,1,5,0002-00-0000-03.png,0003-00-0001-64.png
00000014,397,0,1449159164537,1449159164995,933,473,0,0,0,2,3,1,5,0003-00-0001-25.png,0002-00-0000-36.png
00000014,398,0,1449159168163,1449159168771,451,413,0,0,0,4,3,1,7,0001-00-0000-60.png,0002-00-0001-52.png
00000014,399,0,1449159171900,1449159172430,979,468,0,0,0,3,4,1,7,0002-00-0000-55.png,0001-00-0000-62.png
00000014,400,1,1449159175367,1449159175893,921,451,0,0,0,2,1,1,3,0003-00-0000-52.png,0004-00-0001-37.png
00000014,401,1,1449159177038,1449159177530,857,558,0,0,0,1,0,1,1,0004-00-0000-01.png,0005-00-0000-39.png
00000014,402,1,1449159178627,1449159179029,401,498,0,0,0,1,2,1,3,0004-00-0001-55.png,0003-00-0001-83.png
00000014,403,0,1449159180166,1449159180660,900,489,0,0,0,2,3,1,5,0003-00-0001-61.png,0002-00-0000-02.png
00000014,404,0,1449159183785,1449159184300,961,472,0,0,0,0,1,1,1,0005-00-0001-42.png,0004-00-0001-81.png
00000014,405,1,1449159187377,1449159187926,926,449,0,0,0,3,2,1,5,0002-00-0001-93.png,0003-00-0000-53.png
00000014,406,0,1449159189014,1449159189434,379,446,0,0,0,4,3,1,7,0001-00-0001-81.png,0002-00-0000-42.png
00000014,407,0,1449159192383,1449159192917,933,422,0,0,0,3,4,1,7,0002-00-0001-95.png,0001-00-0001-14.png
00000014,408,1,1449159196004,1449159196540,965,475,0,0,0,2,1,1,3,0003-00-0000-70.png,0004-00-0000-52.png
00000014,409,1,1449159197572,1449159198079,898,459,0,0,0,3,2,1,5,0002-00-0000-69.png,0003-00-0001-76.png
00000014,410,0,1449159199131,1449159199610,923,483,0,0,0,3,4,1,7,0002-00-0001-24.png,0001-00-0001-65.png
00000014,411,0,1449159202909,1449159203396,350,384,0,0,0,4,3,1,7,0001-00-0000-62.png,0002-00-0000-66.png
00000014,412,1,1449159206283,1449159206858,997,413,0,0,0,2,1,1,3,0003-00-0001-17.png,0004-00-0000-45.png
00000014,413,1,1449159207950,1449159208450,927,488,0,0,0,1,0,1,1,0004-00-0001-54.png,0005-00-0001-01.png
00000014,414,0,1449159209517,1449159210554,901,475,0,0,0,1,2,1,3,0004-00-0000-20.png,0003-00-0000-73.png
00000014,415,0,1449159213676,1449159214135,952,488,0,0,0,0,1,1,1,0005-00-0001-52.png,0004-00-0000-56.png
00000014,416,0,1449159217375,1449159217894,960,447,0,0,0,2,3,1,5,0003-00-0000-30.png,0002-00-0000-94.png
00000014,417,0,1449159220807,1449159221266,952,449,0,0,0,2,3,1,5,0003-00-0001-56.png,0002-00-0001-20.png
00000014,418,1,1449159224145,1449159224765,350,346,0,0,0,0,1,1,1,0005-00-0000-11.png,0004-00-0000-02.png
00000014,419,0,1449159225881,1449159226384,939,475,0,0,0,3,4,1,7,0002-00-0000-15.png,0001-00-0001-31.png
00000014,420,1,1449159229983,1449159230913,952,440,0,0,0,3,2,1,5,0002-00-0001-52.png,0003-00-0001-27.png
00000014,421,1,1449159231945,1449159232392,899,475,0,0,0,2,1,1,3,0003-00-0001-58.png,0004-00-0000-23.png
00000014,422,1,1449159233546,1449159234020,901,502,0,0,0,1,0,1,1,0004-00-0001-49.png,0005-00-0000-95.png
00000014,423,0,1449159235176,1449159236247,934,448,0,0,0,1,2,1,3,0004-00-0001-45.png,0003-00-0000-48.png
00000014,424,1,1449159239301,1449159239842,901,513,0,0,0,4,3,1,7,0001-00-0000-05.png,0002-00-0001-13.png
00000014,425,0,1449159240883,1449159241323,425,472,0,0,0,3,2,1,5,0002-00-0001-17.png,0003-00-0001-18.png
00000014,426,1,1449159244333,1449159244986,391,377,0,0,0,0,1,1,1,0005-00-0001-91.png,0004-00-0000-47.png
00000014,427,0,1449159246046,1449159246593,931,480,0,0,0,3,4,1,7,0002-00-0001-86.png,0001-00-0000-11.png
00000014,428,1,1449159249736,1449159250204,953,442,0,0,0,2,1,1,3,0003-00-0000-35.png,0004-00-0000-69.png
00000014,429,0,1449159251237,1449159251717,876,475,0,0,0,1,2,1,3,0004-00-0001-87.png,0003-00-0001-92.png
00000014,430,1,1449159254948,1449159255379,952,461,0,0,0,4,3,1,7,0001-00-0001-82.png,0002-00-0000-76.png
00000014,431,0,1449159256478,1449159256967,887,476,0,0,0,2,3,1,5,0003-00-0001-10.png,0002-00-0001-03.png
00000014,432,1,1449159260246,1449159260734,887,528,0,0,0,1,0,1,1,0004-00-0000-92.png,0005-00-0000-31.png
00000014,433,0,1449159261826,1449159262373,393,454,0,0,0,2,1,1,3,0003-00-0001-92.png,0004-00-0000-88.png
00000014,434,0,1449159265347,1449159265831,961,439,0,0,0,3,4,1,7,0002-00-0001-15.png,0001-00-0001-84.png
00000014,435,1,1449159268782,1449159269485,400,386,0,0,0,2,3,1,5,0003-00-0000-50.png,0002-00-0000-43.png
00000014,436,0,1449159270519,1449159271073,912,439,0,0,0,0,1,1,1,0005-00-0001-31.png,0004-00-0001-48.png
00000014,437,1,1449159273989,1449159274842,453,384,0,0,0,1,2,1,3,0004-00-0001-62.png,0003-00-0000-94.png
00000014,438,1,1449159275882,1449159276354,880,478,0,0,0,1,0,1,1,0004-00-0000-14.png,0005-00-0000-64.png
00000014,439,0,1449159277464,1449159278002,427,475,0,0,0,3,2,1,5,0002-00-0001-24.png,0003-00-0001-11.png
00000014,440,0,1449159281028,1449159281587,337,423,0,0,0,4,3,1,7,0001-00-0001-67.png,0002-00-0001-40.png
00000014,441,0,1449159284853,1449159285361,951,449,0,0,0,0,1,1,1,0005-00-0000-44.png,0004-00-0000-61.png
00000014,442,0,1449159288660,1449159289125,951,457,0,0,0,3,4,1,7,0002-00-0001-27.png,0001-00-0001-03.png
00000014,443,1,1449159292715,1449159293186,976,464,0,0,0,2,1,1,3,0003-00-0000-23.png,0004-00-0000-92.png
00000014,444,0,1449159294234,1449159294735,931,506,0,0,0,2,3,1,5,0003-00-0000-85.png,0002-00-0001-14.png
00000014,445,0,1449159297974,1449159298536,928,468,0,0,0,1,2,1,3,0004-00-0001-58.png,0003-00-0000-46.png
00000014,446,1,1449159301559,1449159302048,951,423,0,0,0,3,2,1,5,0002-00-0001-57.png,0003-00-0001-78.png
00000014,447,1,1449159303250,1449159303856,939,475,0,0,0,4,3,1,7,0001-00-0000-78.png,0002-00-0001-58.png
00000014,448,1,1449159304990,1449159305576,918,478,0,0,0,1,0,1,1,0004-00-0000-97.png,0005-00-0001-36.png
00000014,449,1,1449159306756,1449159307281,908,499,0,0,0,1,0,1,1,0004-00-0000-90.png,0005-00-0001-54.png
00000014,450,1,1449159308585,1449159309062,888,475,0,0,0,2,1,1,3,0003-00-0000-18.png,0004-00-0001-18.png
00000014,451,0,1449159310204,1449159310660,900,474,0,0,0,3,4,1,7,0002-00-0001-90.png,0001-00-0001-37.png
00000014,452,0,1449159313895,1449159314367,963,449,0,0,0,1,2,1,3,0004-00-0001-48.png,0003-00-0001-38.png
00000014,453,0,1449159317355,1449159317966,418,486,0,0,0,3,2,1,5,0002-00-0001-52.png,0003-00-0001-07.png
00000014,454,0,1449159321095,1449159321605,950,431,0,0,0,0,1,1,1,0005-00-0001-59.png,0004-00-0001-27.png
00000014,455,0,1449159324688,1449159325179,955,443,0,0,0,2,3,1,5,0003-00-0001-18.png,0002-00-0000-17.png
00000014,456,1,1449159328277,1449159328782,913,527,0,0,0,4,3,1,7,0001-00-0001-69.png,0002-00-0000-19.png
00000014,457,0,1449159329848,1449159330844,924,536,0,0,0,3,4,1,7,0002-00-0000-12.png,0001-00-0001-25.png
00000014,458,0,1449159333688,1449159334444,325,396,0,0,0,2,1,1,3,0003-00-0001-37.png,0004-00-0000-37.png
00000014,459,0,1449159337356,1449159337848,927,423,0,0,0,0,1,1,1,0005-00-0001-36.png,0004-00-0000-27.png
00000014,460,1,1449159340996,1449159341760,441,390,0,0,0,1,2,1,3,0004-00-0001-40.png,0003-00-0000-77.png
00000014,461,1,1449159342753,1449159343280,921,477,0,0,0,1,0,1,1,0004-00-0001-46.png,0005-00-0000-86.png
00000014,462,0,1449159344339,1449159344728,401,475,0,0,0,4,3,1,7,0001-00-0000-25.png,0002-00-0000-92.png
00000014,463,0,1449159347563,1449159348194,418,402,0,0,0,3,2,1,5,0002-00-0001-47.png,0003-00-0001-72.png
00000014,464,0,1449159351418,1449159351925,960,447,0,0,0,2,3,1,5,0003-00-0001-80.png,0002-00-0001-05.png
00000014,465,1,1449159354881,1449159355518,362,397,0,0,0,0,1,1,1,0005-00-0000-09.png,0004-00-0001-11.png
00000014,466,1,1449159356574,1449159357114,914,501,0,0,0,1,0,1,1,0004-00-0001-44.png,0005-00-0001-30.png
00000014,467,0,1449159358144,1449159358972,903,466,0,0,0,1,2,1,3,0004-00-0001-42.png,0003-00-0000-87.png
00000014,468,0,1449159362088,1449159362533,925,448,0,0,0,2,3,1,5,0003-00-0001-48.png,0002-00-0000-12.png
00000014,469,1,1449159365537,1449159366051,874,437,0,0,0,2,1,1,3,0003-00-0001-62.png,0004-00-0000-10.png
00000014,470,0,1449159367616,1449159368124,925,481,0,0,0,3,4,1,7,0002-00-0001-55.png,0001-00-0001-00.png
00000014,471,1,1449159371350,1449159372094,918,416,0,0,0,3,2,1,5,0002-00-0001-16.png,0003-00-0001-59.png
00000014,472,1,1449159373198,1449159373984,903,466,0,0,0,4,3,1,7,0001-00-0001-54.png,0002-00-0001-45.png
00000014,473,1,1449159375218,1449159375816,918,519,0,0,0,2,1,1,3,0003-00-0000-68.png,0004-00-0001-44.png
00000014,474,0,1449159377025,1449159377512,390,465,0,0,0,1,0,1,1,0004-00-0001-41.png,0005-00-0001-16.png
00000014,475,0,1449159380424,1449159381144,954,442,0,0,0,0,1,1,1,0005-00-0001-21.png,0004-00-0001-04.png
00000014,476,1,1449159384280,1449159384808,946,440,0,0,0,3,2,1,5,0002-00-0000-79.png,0003-00-0000-79.png
00000014,477,0,1449159385817,1449159386320,899,510,0,0,0,1,2,1,3,0004-00-0000-26.png,0003-00-0001-54.png
00000014,478,0,1449159389411,1449159389940,940,501,0,0,0,2,3,1,5,0003-00-0001-91.png,0002-00-0001-76.png
00000014,479,1,1449159392961,1449159393550,904,526,0,0,0,4,3,1,7,0001-00-0001-16.png,0002-00-0001-53.png
00000014,480,0,1449159394535,1449159395046,898,482,0,0,0,3,4,1,7,0002-00-0001-94.png,0001-00-0001-39.png
00000014,481,1,1449159397985,1449159398586,951,436,0,0,0,1,0,1,1,0004-00-0000-54.png,0005-00-0000-99.png
00000014,482,0,1449159400139,1449159400608,905,480,0,0,0,3,4,1,7,0002-00-0001-29.png,0001-00-0001-21.png
00000014,483,1,1449159403620,1449159404176,964,475,0,0,0,3,2,1,5,0002-00-0000-17.png,0003-00-0001-56.png
00000014,484,0,1449159405149,1449159405774,899,459,0,0,0,1,2,1,3,0004-00-0000-63.png,0003-00-0001-32.png
00000014,485,0,1449159408697,1449159409211,947,445,0,0,0,2,3,1,5,0003-00-0000-26.png,0002-00-0001-03.png
00000014,486,1,1449159412138,1449159412603,960,474,0,0,0,4,3,1,7,0001-00-0000-71.png,0002-00-0000-49.png
00000014,487,1,1449159413653,1449159414171,926,475,0,0,0,2,1,1,3,0003-00-0000-55.png,0004-00-0000-01.png
00000014,488,1,1449159415241,1449159415650,387,485,0,0,0,0,1,1,1,0005-00-0001-57.png,0004-00-0001-12.png
00000014,489,0,1449159416817,1449159417272,453,462,0,0,0,2,1,1,3,0003-00-0000-06.png,0004-00-0001-44.png
00000014,490,0,1449159420157,1449159420592,865,535,0,0,0,0,1,1,1,0005-00-0000-39.png,0004-00-0001-35.png
00000014,491,1,1449159423626,1449159424089,971,468,0,0,0,4,3,1,7,0001-00-0000-61.png,0002-00-0000-00.png
00000014,492,1,1449159425178,1449159425665,926,481,0,0,0,1,0,1,1,0004-00-0000-23.png,0005-00-0000-06.png
00000014,493,0,1449159426698,1449159427290,927,487,0,0,0,1,2,1,3,0004-00-0001-67.png,0003-00-0000-39.png
00000014,494,1,1449159430448,1449159431100,364,396,0,0,0,2,3,1,5,0003-00-0001-38.png,0002-00-0000-42.png
00000014,495,0,1449159432532,1449159433050,921,497,0,0,0,3,4,1,7,0002-00-0000-51.png,0001-00-0000-77.png
00000014,496,1,1449159436486,1449159436979,924,483,0,0,0,3,2,1,5,0002-00-0000-12.png,0003-00-0001-44.png
00000014,497,0,1449159438022,1449159438486,870,472,0,0,0,1,2,1,3,0004-00-0000-94.png,0003-00-0000-05.png
00000014,498,0,1449159441897,1449159442380,952,494,0,0,0,2,3,1,5,0003-00-0001-55.png,0002-00-0000-11.png
00000014,499,0,1449159445282,1449159445794,952,462,0,0,0,0,1,1,1,0005-00-0001-94.png,0004-00-0001-92.png
00000014,500,1,1449159449100,1449159449539,950,456,0,0,0,3,2,1,5,0002-00-0000-56.png,0003-00-0001-32.png
00000014,501,1,1449159450590,1449159451103,900,502,0,0,0,1,0,1,1,0004-00-0000-71.png,0005-00-0001-81.png
00000014,502,0,1449159452231,1449159452758,913,502,0,0,0,3,4,1,7,0002-00-0000-51.png,0001-00-0000-77.png
00000014,503,0,1449159455790,1449159456314,401,462,0,0,0,4,3,1,7,0001-00-0000-10.png,0002-00-0000-42.png
00000014,504,1,1449159459493,1449159459951,978,397,0,0,0,2,1,1,3,0003-00-0001-34.png,0004-00-0001-20.png
00000014,505,0,1449159461014,1449159461698,909,542,0,0,0,0,1,1,1,0005-00-0001-63.png,0004-00-0000-84.png
00000014,506,0,1449159464860,1449159465456,350,396,0,0,0,3,2,1,5,0002-00-0001-86.png,0003-00-0000-90.png
00000014,507,0,1449159468471,1449159468993,959,473,0,0,0,3,4,1,7,0002-00-0001-62.png,0001-00-0001-11.png
00000014,508,0,1449159472088,1449159472612,965,447,0,0,0,2,3,1,5,0003-00-0000-76.png,0002-00-0000-21.png
00000014,509,1,1449159475702,1449159476238,934,473,0,0,0,4,3,1,7,0001-00-0000-53.png,0002-00-0000-05.png
00000014,510,1,1449159477691,1449159478168,926,476,0,0,0,2,1,1,3,0003-00-0001-59.png,0004-00-0001-42.png
00000014,511,1,1449159479302,1449159479810,934,464,0,0,0,1,0,1,1,0004-00-0000-54.png,0005-00-0000-33.png
00000014,512,0,1449159480868,1449159481368,862,476,0,0,0,1,2,1,3,0004-00-0001-11.png,0003-00-0000-75.png
00000014,513,1,1449159484445,1449159484926,951,448,0,0,0,2,1,1,3,0003-00-0000-43.png,0004-00-0001-88.png
00000014,514,1,1449159485993,1449159486467,877,469,0,0,0,4,3,1,7,0001-00-0000-99.png,0002-00-0000-32.png
00000014,515,1,1449159487719,1449159488146,364,462,0,0,0,0,1,1,1,0005-00-0000-75.png,0004-00-0001-91.png
00000014,516,0,1449159489335,1449159490363,925,462,0,0,0,2,3,1,5,0003-00-0001-93.png,0002-00-0001-35.png
00000014,517,0,1449159493488,1449159494036,965,465,0,0,0,3,4,1,7,0002-00-0001-60.png,0001-00-0001-04.png
00000014,518,0,1449159497173,1449159497647,950,456,0,0,0,1,2,1,3,0004-00-0001-61.png,0003-00-0000-50.png
00000014,519,1,1449159500833,1449159501363,871,438,0,0,0,3,2,1,5,0002-00-0001-83.png,0003-00-0001-30.png
00000014,520,1,1449159502371,1449159502922,901,476,0,0,0,1,0,1,1,0004-00-0000-10.png,0005-00-0000-71.png
00000014,521,1,1449159504002,1449159505254,980,412,0,0,0,4,3,1,7,0001-00-0001-61.png,0002-00-0000-60.png
00000014,522,1,1449159506329,1449159506821,895,497,0,0,0,1,0,1,1,0004-00-0000-88.png,0005-00-0001-46.png
00000014,523,1,1449159507923,1449159508344,376,474,0,0,0,1,2,1,3,0004-00-0001-35.png,0003-00-0000-71.png
00000014,524,0,1449159509470,1449159509984,874,501,0,0,0,3,4,1,7,0002-00-0001-39.png,0001-00-0000-85.png
00000014,525,0,1449159513068,1449159513531,950,455,0,0,0,2,3,1,5,0003-00-0000-15.png,0002-00-0001-04.png
00000014,526,1,1449159516753,1449159517219,929,468,0,0,0,3,2,1,5,0002-00-0001-84.png,0003-00-0000-09.png
00000014,527,1,1449159518273,1449159518772,889,475,0,0,0,2,1,1,3,0003-00-0000-77.png,0004-00-0000-95.png
00000014,528,1,1449159519834,1449159520337,401,427,0,0,0,0,1,1,1,0005-00-0001-78.png,0004-00-0000-96.png
00000014,529,0,1449159521459,1449159522031,900,489,0,0,0,2,3,1,5,0003-00-0000-04.png,0002-00-0000-40.png
00000014,530,1,1449159524870,1449159525493,359,419,0,0,0,0,1,1,1,0005-00-0000-18.png,0004-00-0000-82.png
00000014,531,0,1449159526889,1449159527395,925,501,0,0,0,3,4,1,7,0002-00-0001-65.png,0001-00-0000-83.png
00000014,532,1,1449159530746,1449159531219,945,450,0,0,0,3,2,1,5,0002-00-0001-58.png,0003-00-0001-55.png
00000014,533,0,1449159532228,1449159532680,466,514,0,0,0,4,3,1,7,0001-00-0001-24.png,0002-00-0001-88.png
00000014,534,1,1449159536075,1449159536560,952,462,0,0,0,2,1,1,3,0003-00-0000-11.png,0004-00-0001-25.png
00000014,535,1,1449159537743,1449159538177,381,470,0,0,0,1,2,1,3,0004-00-0000-20.png,0003-00-0001-08.png
00000014,536,1,1449159539715,1449159540191,914,477,0,0,0,1,0,1,1,0004-00-0000-15.png,0005-00-0000-74.png
00000014,537,1,1449159541279,1449159541818,887,475,0,0,0,3,2,1,5,0002-00-0000-49.png,0003-00-0001-17.png
00000014,538,0,1449159542946,1449159543624,940,501,0,0,0,1,2,1,3,0004-00-0001-08.png,0003-00-0001-06.png
00000014,539,0,1449159546538,1449159547004,951,464,0,0,0,3,4,1,7,0002-00-0001-67.png,0001-00-0000-55.png
00000014,540,1,1449159549904,1449159550475,395,397,0,0,0,0,1,1,1,0005-00-0000-42.png,0004-00-0001-47.png
00000014,541,1,1449159551431,1449159551971,925,474,0,0,0,2,1,1,3,0003-00-0000-23.png,0004-00-0000-22.png
00000014,542,0,1449159553070,1449159553549,916,479,0,0,0,2,3,1,5,0003-00-0000-42.png,0002-00-0000-27.png
00000014,543,0,1449159556511,1449159557052,366,383,0,0,0,4,3,1,7,0001-00-0001-79.png,0002-00-0000-70.png
00000014,544,1,1449159560119,1449159560606,900,539,0,0,0,1,0,1,1,0004-00-0001-40.png,0005-00-0000-68.png
00000014,545,1,1449159561647,1449159562171,924,508,0,0,0,1,0,1,1,0004-00-0000-43.png,0005-00-0001-52.png
00000014,546,0,1449159563651,1449159564139,916,474,0,0,0,2,3,1,5,0003-00-0001-58.png,0002-00-0000-23.png
00000014,547,0,1449159567012,1449159567476,873,517,0,0,0,3,4,1,7,0002-00-0001-92.png,0001-00-0001-35.png
00000014,548,0,1449159570808,1449159571325,394,392,0,0,0,3,2,1,5,0002-00-0001-52.png,0003-00-0001-56.png
00000014,549,0,1449159574403,1449159574889,898,417,0,0,0,1,2,1,3,0004-00-0001-42.png,0003-00-0001-97.png
00000014,550,1,1449159577994,1449159578451,948,458,0,0,0,2,1,1,3,0003-00-0001-27.png,0004-00-0000-16.png
00000014,551,1,1449159579487,1449159580044,376,436,0,0,0,0,1,1,1,0005-00-0001-64.png,0004-00-0000-60.png
00000014,552,1,1449159581196,1449159581719,888,481,0,0,0,4,3,1,7,0001-00-0000-57.png,0002-00-0001-31.png
00000014,553,1,1449159582836,1449159583347,900,476,0,0,0,1,0,1,1,0004-00-0001-59.png,0005-00-0001-65.png
00000014,554,0,1449159584381,1449159584916,899,475,0,0,0,2,3,1,5,0003-00-0001-07.png,0002-00-0000-87.png
00000014,555,0,1449159588192,1449159588707,312,384,0,0,0,4,3,1,7,0001-00-0001-48.png,0002-00-0001-64.png
00000014,556,1,1449159591831,1449159592436,388,450,0,0,0,0,1,1,1,0005-00-0001-88.png,0004-00-0001-70.png
00000014,557,0,1449159593419,1449159594035,918,453,0,0,0,3,4,1,7,0002-00-0000-45.png,0001-00-0001-89.png
00000014,558,0,1449159597005,1449159597538,871,393,0,0,0,1,2,1,3,0004-00-0000-79.png,0003-00-0000-59.png
00000014,559,0,1449159600555,1449159601231,421,541,0,0,0,3,2,1,5,0002-00-0001-59.png,0003-00-0000-50.png
00000014,560,1,1449159604449,1449159604927,991,449,0,0,0,2,1,1,3,0003-00-0000-96.png,0004-00-0000-69.png
00000014,561,0,1449159605953,1449159606404,392,485,0,0,0,4,3,1,7,0001-00-0001-90.png,0002-00-0001-25.png
00000014,562,1,1449159609830,1449159610468,436,393,0,0,0,0,1,1,1,0005-00-0001-35.png,0004-00-0001-95.png
00000014,563,0,1449159611445,1449159612074,877,549,0,0,0,2,3,1,5,0003-00-0001-83.png,0002-00-0000-89.png
00000014,564,0,1449159615175,1449159615623,924,559,0,0,0,3,4,1,7,0002-00-0000-63.png,0001-00-0001-57.png
00000014,565,1,1449159618824,1449159619284,939,449,0,0,0,1,0,1,1,0004-00-0000-64.png,0005-00-0000-40.png
00000014,566,1,1449159620397,1449159620940,389,552,0,0,0,1,2,1,3,0004-00-0001-25.png,0003-00-0000-16.png
00000014,567,0,1449159621990,1449159622450,394,478,0,0,0,3,2,1,5,0002-00-0000-99.png,0003-00-0001-98.png
00000014,568,1,1449159625701,1449159626137,950,457,0,0,0,2,1,1,3,0003-00-0000-64.png,0004-00-0001-27.png
00000014,569,1,1449159627228,1449159627803,882,525,0,0,0,2,1,1,3,0003-00-0001-53.png,0004-00-0001-43.png
00000014,570,0,1449159629040,1449159629649,915,526,0,0,0,0,1,1,1,0005-00-0000-12.png,0004-00-0000-93.png
00000014,571,0,1449159633305,1449159633752,953,461,0,0,0,1,2,1,3,0004-00-0000-94.png,0003-00-0001-62.png
00000014,572,0,1449159636852,1449159637376,372,448,0,0,0,4,3,1,7,0001-00-0001-92.png,0002-00-0001-25.png
00000014,573,1,1449159640562,1449159641163,479,432,0,0,0,3,4,1,7,0002-00-0001-83.png,0001-00-0001-50.png
00000014,574,0,1449159642635,1449159643108,409,472,0,0,0,3,2,1,5,0002-00-0000-00.png,0003-00-0001-25.png
00000014,575,0,1449159646140,1449159646654,901,528,0,0,0,2,3,1,5,0003-00-0000-36.png,0002-00-0001-44.png
00000014,576,1,1449159649858,1449159650308,975,431,0,0,0,1,0,1,1,0004-00-0000-78.png,0005-00-0000-31.png
00000014,577,1,1449159651433,1449159651986,898,485,0,0,0,2,1,1,3,0003-00-0001-94.png,0004-00-0001-10.png
00000014,578,1,1449159653530,1449159654153,374,441,0,0,0,1,2,1,3,0004-00-0001-70.png,0003-00-0001-76.png
00000014,579,0,1449159655256,1449159655703,898,485,0,0,0,3,4,1,7,0002-00-0000-51.png,0001-00-0001-99.png
00000014,580,0,1449159658956,1449159659564,345,384,0,0,0,3,2,1,5,0002-00-0000-42.png,0003-00-0001-33.png
00000014,581,1,1449159662622,1449159663197,338,396,0,0,0,0,1,1,1,0005-00-0001-45.png,0004-00-0001-50.png
00000014,582,1,1449159664205,1449159664791,925,490,0,0,0,1,0,1,1,0004-00-0000-12.png,0005-00-0000-04.png
00000014,583,1,1449159665806,1449159666717,903,467,0,0,0,4,3,1,7,0001-00-0000-44.png,0002-00-0000-53.png
00000014,584,0,1449159667784,1449159668428,924,535,0,0,0,2,3,1,5,0003-00-0001-26.png,0002-00-0001-05.png
00000014,585,0,1449159671548,1449159672222,950,482,0,0,0,0,1,1,1,0005-00-0000-89.png,0004-00-0001-01.png
00000014,586,1,1449159676020,1449159676582,939,476,0,0,0,3,2,1,5,0002-00-0001-34.png,0003-00-0001-08.png
00000014,587,1,1449159677617,1449159678083,900,475,0,0,0,2,1,1,3,0003-00-0000-07.png,0004-00-0000-02.png
00000014,588,0,1449159679326,1449159679856,927,487,0,0,0,3,4,1,7,0002-00-0001-98.png,0001-00-0001-02.png
00000014,589,0,1449159682805,1449159683387,932,447,0,0,0,2,3,1,5,0003-00-0001-10.png,0002-00-0000-25.png
00000014,590,1,1449159686871,1449159687348,998,471,0,0,0,1,0,1,1,0004-00-0000-73.png,0005-00-0000-51.png
00000014,591,0,1449159688809,1449159689270,417,480,0,0,0,4,3,1,7,0001-00-0001-90.png,0002-00-0000-14.png
00000014,592,0,1449159692340,1449159692809,913,522,0,0,0,1,2,1,3,0004-00-0001-22.png,0003-00-0000-36.png
00000014,593,0,1449159695858,1449159696395,952,450,0,0,0,2,3,1,5,0003-00-0000-81.png,0002-00-0001-17.png
00000014,594,1,1449159699252,1449159699292,505,514,0,0,0,3,4,1,7,0002-00-0001-59.png,0001-00-0000-84.png
00000014,595,0,1449159700987,1449159701456,925,475,0,0,0,0,1,1,1,0005-00-0001-74.png,0004-00-0001-46.png
00000014,596,0,1449159704473,1449159704971,939,424,0,0,0,1,2,1,3,0004-00-0001-41.png,0003-00-0001-05.png
00000014,597,0,1449159707975,1449159708581,444,454,0,0,0,4,3,1,7,0001-00-0000-46.png,0002-00-0000-10.png
00000014,598,1,1449159711450,1449159712123,924,511,0,0,0,2,1,1,3,0003-00-0001-16.png,0004-00-0001-15.png
00000014,599,1,1449159713130,1449159713648,918,477,0,0,0,1,0,1,1,0004-00-0000-21.png,0005-00-0001-71.png
00000014,600,1,1449159715162,1449159715595,900,475,0,0,0,3,2,1,5,0002-00-0000-85.png,0003-00-0000-49.png
00000014,601,1,1449159716640,1449159717132,889,475,0,0,0,2,1,1,3,0003-00-0001-91.png,0004-00-0001-76.png
00000014,602,0,1449159718296,1449159718799,870,471,0,0,0,3,4,1,7,0002-00-0000-75.png,0001-00-0001-60.png
00000014,603,1,1449159722028,1449159722541,945,429,0,0,0,1,0,1,1,0004-00-0000-86.png,0005-00-0000-32.png
00000014,604,0,1449159723655,1449159724175,917,471,0,0,0,1,2,1,3,0004-00-0001-33.png,0003-00-0001-54.png
00000014,605,1,1449159727315,1449159727829,954,443,0,0,0,3,2,1,5,0002-00-0000-50.png,0003-00-0001-89.png
00000014,606,1,1449159728874,1449159729541,862,488,0,0,0,4,3,1,7,0001-00-0000-23.png,0002-00-0000-64.png
00000014,607,0,1449159730734,1449159731294,907,474,0,0,0,2,3,1,5,0003-00-0000-41.png,0002-00-0000-42.png
00000014,608,1,1449159734253,1449159734888,344,373,0,0,0,0,1,1,1,0005-00-0000-79.png,0004-00-0001-09.png
00000014,609,1,1449159735929,1449159736471,384,497,0,0,0,0,1,1,1,0005-00-0000-66.png,0004-00-0001-56.png
00000014,610,0,1449159737522,1449159737942,421,521,0,0,0,4,3,1,7,0001-00-0001-84.png,0002-00-0001-90.png
00000014,611,1,1449159741079,1449159741574,950,457,0,0,0,3,2,1,5,0002-00-0001-63.png,0003-00-0001-43.png
00000014,612,0,1449159742661,1449159743193,903,495,0,0,0,2,3,1,5,0003-00-0000-80.png,0002-00-0001-96.png
00000014,613,0,1449159746618,1449159747119,933,448,0,0,0,1,2,1,3,0004-00-0000-38.png,0003-00-0000-33.png
00000014,614,0,1449159750196,1449159750225,479,487,0,0,0,1,0,1,1,0004-00-0001-05.png,0005-00-0000-68.png
00000014,615,1,1449159753701,1449159754168,952,462,0,0,0,2,1,1,3,0003-00-0001-53.png,0004-00-0000-68.png
00000014,616,0,1449159755244,1449159755705,924,458,0,0,0,3,4,1,7,0002-00-0001-53.png,0001-00-0001-13.png
00000014,617,0,1449159759071,1449159759554,939,449,0,0,0,3,4,1,7,0002-00-0000-87.png,0001-00-0001-45.png
00000014,618,1,1449159764976,1449159765451,901,527,0,0,0,2,1,1,3,0003-00-0000-34.png,0004-00-0000-05.png
00000014,619,1,1449159766432,1449159766961,374,469,0,0,0,1,2,1,3,0004-00-0000-60.png,0003-00-0000-91.png
00000014,620,0,1449159768132,1449159768710,365,434,0,0,0,4,3,1,7,0001-00-0001-08.png,0002-00-0001-47.png
00000014,621,0,1449159771625,1449159772196,420,436,0,0,0,3,2,1,5,0002-00-0000-79.png,0003-00-0001-09.png
00000014,622,1,1449159775190,1449159775761,401,436,0,0,0,0,1,1,1,0005-00-0000-83.png,0004-00-0000-85.png
00000014,623,1,1449159776915,1449159777436,900,501,0,0,0,1,0,1,1,0004-00-0000-14.png,0005-00-0001-34.png
00000014,624,0,1449159778486,1449159779026,906,496,0,0,0,2,3,1,5,0003-00-0000-73.png,0002-00-0000-84.png
00000014,625,0,1449159782253,1449159782799,941,467,0,0,0,2,3,1,5,0003-00-0001-52.png,0002-00-0001-63.png
00000014,626,1,1449159786070,1449159786595,953,469,0,0,0,2,1,1,3,0003-00-0001-20.png,0004-00-0001-00.png
00000014,627,0,1449159787650,1449159788735,900,542,0,0,0,1,2,1,3,0004-00-0000-92.png,0003-00-0000-56.png
00000014,628,0,1449159791847,1449159792347,864,485,0,0,0,3,4,1,7,0002-00-0001-36.png,0001-00-0001-14.png
00000014,629,1,1449159795377,1449159795844,902,410,0,0,0,1,0,1,1,0004-00-0001-73.png,0005-00-0000-45.png
00000014,630,1,1449159796837,1449159797436,925,527,0,0,0,3,2,1,5,0002-00-0001-81.png,0003-00-0000-23.png
00000014,631,1,1449159798575,1449159799118,947,471,0,0,0,4,3,1,7,0001-00-0001-03.png,0002-00-0001-38.png
00000014,632,1,1449159800206,1449159800659,389,474,0,0,0,0,1,1,1,0005-00-0000-20.png,0004-00-0000-86.png
00000014,633,0,1449159801866,1449159802389,418,505,0,0,0,4,3,1,7,0001-00-0001-93.png,0002-00-0000-63.png
00000014,634,1,1449159805573,1449159806038,959,455,0,0,0,2,1,1,3,0003-00-0001-96.png,0004-00-0001-95.png
00000014,635,0,1449159807174,1449159807689,931,480,0,0,0,2,3,1,5,0003-00-0001-35.png,0002-00-0001-79.png
00000014,636,0,1449159810601,1449159811132,418,471,0,0,0,3,2,1,5,0002-00-0001-42.png,0003-00-0000-80.png
00000014,637,1,1449159814239,1449159814760,874,488,0,0,0,1,0,1,1,0004-00-0000-62.png,0005-00-0001-34.png
00000014,638,1,1449159815803,1449159816295,350,474,0,0,0,0,1,1,1,0005-00-0001-70.png,0004-00-0000-25.png
00000014,639,1,1449159817510,1449159818355,325,422,0,0,0,1,2,1,3,0004-00-0001-66.png,0003-00-0000-17.png
00000014,640,0,1449159819587,1449159820234,939,501,0,0,0,3,4,1,7,0002-00-0001-83.png,0001-00-0001-40.png
00000014,641,1,1449159823285,1449159823782,928,468,0,0,0,1,0,1,1,0004-00-0001-35.png,0005-00-0000-94.png
00000014,642,0,1449159824853,1449159825344,892,478,0,0,0,2,3,1,5,0003-00-0000-49.png,0002-00-0001-69.png
00000014,643,1,1449159828683,1449159829153,977,449,0,0,0,2,1,1,3,0003-00-0001-08.png,0004-00-0001-78.png
00000014,644,1,1449159830622,1449159831321,913,462,0,0,0,3,2,1,5,0002-00-0001-80.png,0003-00-0000-97.png
00000014,645,0,1449159832390,1449159832863,873,484,0,0,0,3,4,1,7,0002-00-0000-74.png,0001-00-0001-04.png
00000014,646,0,1449159836295,1449159836829,415,410,0,0,0,4,3,1,7,0001-00-0000-23.png,0002-00-0001-45.png
00000014,647,0,1449159839940,1449159840457,951,475,0,0,0,0,1,1,1,0005-00-0001-36.png,0004-00-0001-62.png
00000014,648,0,1449159843561,1449159844272,915,474,0,0,0,1,2,1,3,0004-00-0000-46.png,0003-00-0001-14.png
00000014,649,1,1449159847567,1449159848034,917,544,0,0,0,2,1,1,3,0003-00-0000-15.png,0004-00-0001-78.png
00000014,650,1,1449159849061,1449159850138,996,425,0,0,0,3,2,1,5,0002-00-0000-13.png,0003-00-0001-04.png
00000014,651,1,1449159851306,1449159851805,901,488,0,0,0,1,0,1,1,0004-00-0001-36.png,0005-00-0000-13.png
00000014,652,0,1449159852863,1449159853424,912,512,0,0,0,2,3,1,5,0003-00-0000-34.png,0002-00-0000-75.png
00000014,653,1,1449159856354,1449159856394,520,384,0,0,0,0,1,1,1,0005-00-0000-72.png,0004-00-0001-99.png
00000014,654,0,1449159857416,1449159857916,888,501,0,0,0,1,2,1,3,0004-00-0001-84.png,0003-00-0000-72.png
00000014,655,1,1449159861114,1449159861760,885,449,0,0,0,4,3,1,7,0001-00-0000-35.png,0002-00-0001-78.png
00000014,656,0,1449159862880,1449159863400,925,490,0,0,0,3,4,1,7,0002-00-0001-99.png,0001-00-0000-40.png
00000014,657,0,1449159866376,1449159866831,943,404,0,0,0,3,4,1,7,0002-00-0001-13.png,0001-00-0000-95.png
00000014,658,0,1449159869997,1449159870511,893,555,0,0,0,2,3,1,5,0003-00-0001-36.png,0002-00-0000-38.png
00000014,659,1,1449159873486,1449159873993,939,466,0,0,0,4,3,1,7,0001-00-0000-22.png,0002-00-0001-54.png
00000014,660,1,1449159874995,1449159875593,898,509,0,0,0,3,2,1,5,0002-00-0001-03.png,0003-00-0000-62.png
00000014,661,1,1449159876697,1449159877221,890,501,0,0,0,2,1,1,3,0003-00-0000-10.png,0004-00-0001-65.png
00000014,662,1,1449159878375,1449159878845,906,479,0,0,0,1,0,1,1,0004-00-0001-10.png,0005-00-0000-08.png
00000014,663,0,1449159879896,1449159880911,925,488,0,0,0,1,2,1,3,0004-00-0000-08.png,0003-00-0000-98.png
00000014,664,1,1449159884031,1449159884618,427,411,0,0,0,0,1,1,1,0005-00-0001-96.png,0004-00-0000-80.png
00000014,665,0,1449159885686,1449159886336,897,443,0,0,0,3,4,1,7,0002-00-0001-10.png,0001-00-0000-55.png
00000014,666,1,1449159889508,1449159889996,921,439,0,0,0,2,1,1,3,0003-00-0001-66.png,0004-00-0000-34.png
00000014,667,0,1449159891217,1449159891744,890,500,0,0,0,1,2,1,3,0004-00-0000-75.png,0003-00-0000-05.png
00000014,668,0,1449159894781,1449159895269,974,461,0,0,0,0,1,1,1,0005-00-0000-12.png,0004-00-0000-35.png
00000014,669,0,1449159898800,1449159899297,977,475,0,0,0,2,3,1,5,0003-00-0000-66.png,0002-00-0001-27.png
00000014,670,0,1449159902357,1449159903159,419,545,0,0,0,4,3,1,7,0001-00-0000-79.png,0002-00-0001-11.png
00000014,671,1,1449159906094,1449159906613,951,462,0,0,0,1,0,1,1,0004-00-0001-83.png,0005-00-0000-02.png
00000014,672,0,1449159907663,1449159908180,356,462,0,0,0,3,2,1,5,0002-00-0001-37.png,0003-00-0000-47.png
00000014,673,0,1449159911363,1449159911846,948,462,0,0,0,2,3,1,5,0003-00-0000-67.png,0002-00-0000-06.png
00000014,674,0,1449159914850,1449159915403,401,448,0,0,0,3,2,1,5,0002-00-0000-60.png,0003-00-0001-16.png
00000014,675,1,1449159918374,1449159918967,392,402,0,0,0,0,1,1,1,0005-00-0000-10.png,0004-00-0000-32.png
00000014,676,1,1449159920452,1449159920928,913,501,0,0,0,2,1,1,3,0003-00-0001-50.png,0004-00-0001-79.png
00000014,677,0,1449159921970,1449159922484,886,502,0,0,0,3,4,1,7,0002-00-0000-60.png,0001-00-0001-70.png
00000014,678,1,1449159925807,1449159926375,950,509,0,0,0,4,3,1,7,0001-00-0000-46.png,0002-00-0001-64.png
00000014,679,1,1449159927443,1449159928064,862,462,0,0,0,1,0,1,1,0004-00-0001-52.png,0005-00-0000-67.png
00000014,680,0,1449159929062,1449159930161,875,422,0,0,0,1,2,1,3,0004-00-0000-08.png,0003-00-0001-48.png
00000014,681,1,1449159933238,1449159933728,949,462,0,0,0,1,0,1,1,0004-00-0000-85.png,0005-00-0001-25.png
00000014,682,0,1449159935208,1449159935685,935,525,0,0,0,2,3,1,5,0003-00-0001-02.png,0002-00-0000-57.png
00000014,683,0,1449159938654,1449159939138,949,458,0,0,0,0,1,1,1,0005-00-0000-00.png,0004-00-0000-29.png
00000014,684,1,1449159942500,1449159942997,944,477,0,0,0,3,2,1,5,0002-00-0001-47.png,0003-00-0000-01.png
00000014,685,0,1449159944007,1449159944509,343,497,0,0,0,4,3,1,7,0001-00-0000-60.png,0002-00-0000-25.png
00000014,686,1,1449159947917,1449159948411,976,484,0,0,0,2,1,1,3,0003-00-0001-76.png,0004-00-0000-18.png
00000014,687,0,1449159949408,1449159949941,898,508,0,0,0,3,4,1,7,0002-00-0000-07.png,0001-00-0000-86.png
00000014,688,0,1449159952935,1449159953437,950,465,0,0,0,1,2,1,3,0004-00-0000-40.png,0003-00-0001-81.png
00000014,689,1,1449159956517,1449159956929,927,410,0,0,0,1,0,1,1,0004-00-0000-62.png,0005-00-0000-97.png
00000014,690,1,1449159957991,1449159959109,417,416,0,0,0,1,2,1,3,0004-00-0001-89.png,0003-00-0001-53.png
00000014,691,0,1449159960224,1449159960762,926,520,0,0,0,2,3,1,5,0003-00-0000-22.png,0002-00-0000-77.png
00000014,692,1,1449159964443,1449159964907,940,475,0,0,0,3,2,1,5,0002-00-0001-13.png,0003-00-0000-07.png
00000014,693,1,1449159966258,1449159966798,925,475,0,0,0,2,1,1,3,0003-00-0000-17.png,0004-00-0000-45.png
00000014,694,0,1449159968063,1449159968562,903,496,0,0,0,3,4,1,7,0002-00-0001-05.png,0001-00-0001-16.png
00000014,695,1,1449159971440,1449159972008,390,435,0,0,0,0,1,1,1,0005-00-0000-58.png,0004-00-0001-10.png
00000014,696,0,1449159973179,1449159973655,414,475,0,0,0,4,3,1,7,0001-00-0000-96.png,0002-00-0001-98.png
00000014,697,1,1449159976805,1449159977298,955,496,0,0,0,1,0,1,1,0004-00-0001-52.png,0005-00-0000-75.png
00000014,698,1,1449159978301,1449159978915,862,476,0,0,0,3,2,1,5,0002-00-0000-26.png,0003-00-0001-08.png
00000014,699,0,1449159980032,1449159980785,433,534,0,0,0,4,3,1,7,0001-00-0001-41.png,0002-00-0001-21.png
00000014,700,0,1449159983725,1449159984196,952,462,0,0,0,3,4,1,7,0002-00-0001-30.png,0001-00-0000-94.png
00000014,701,0,1449159987464,1449159987975,951,475,0,0,0,1,2,1,3,0004-00-0001-15.png,0003-00-0000-51.png
00000014,702,1,1449159991071,1449159991569,900,541,0,0,0,2,1,1,3,0003-00-0001-31.png,0004-00-0000-96.png
00000014,703,0,1449159992576,1449159993095,947,498,0,0,0,2,3,1,5,0003-00-0001-05.png,0002-00-0001-24.png
00000014,704,1,1449159996014,1449159996636,363,430,0,0,0,0,1,1,1,0005-00-0000-48.png,0004-00-0001-94.png
00000014,705,0,1449159997652,1449159998176,899,483,0,0,0,2,3,1,5,0003-00-0000-96.png,0002-00-0001-33.png
00000014,706,0,1449160001227,1449160001735,952,460,0,0,0,3,4,1,7,0002-00-0000-27.png,0001-00-0001-35.png
00000014,707,1,1449160004880,1449160005381,898,418,0,0,0,2,1,1,3,0003-00-0001-14.png,0004-00-0001-80.png
00000014,708,1,1449160006380,1449160006905,383,453,0,0,0,0,1,1,1,0005-00-0000-25.png,0004-00-0001-45.png
00000014,709,0,1449160008192,1449160008709,416,465,0,0,0,4,3,1,7,0001-00-0000-42.png,0002-00-0001-29.png
00000014,710,0,1449160011706,1449160011767,514,435,0,0,0,3,2,1,5,0002-00-0000-27.png,0003-00-0000-02.png
00000014,711,1,1449160014861,1449160015345,978,462,0,0,0,1,0,1,1,0004-00-0001-18.png,0005-00-0001-58.png
00000014,712,1,1449160016409,1449160016888,392,456,0,0,0,1,2,1,3,0004-00-0001-13.png,0003-00-0001-61.png
00000014,713,0,1449160017985,1449160018527,918,493,0,0,0,3,4,1,7,0002-00-0000-42.png,0001-00-0000-28.png
00000014,714,1,1449160021689,1449160022233,950,482,0,0,0,1,0,1,1,0004-00-0001-19.png,0005-00-0000-76.png
00000014,715,1,1449160023269,1449160023757,427,462,0,0,0,0,1,1,1,0005-00-0001-81.png,0004-00-0000-45.png
00000014,716,0,1449160024864,1449160025393,876,476,0,0,0,2,3,1,5,0003-00-0000-90.png,0002-00-0001-24.png
00000014,717,1,1449160029617,1449160030104,975,507,0,0,0,2,1,1,3,0003-00-0001-63.png,0004-00-0001-80.png
00000014,718,0,1449160031205,1449160031864,388,462,0,0,0,4,3,1,7,0001-00-0000-09.png,0002-00-0000-72.png
00000014,719,1,1449160035017,1449160035537,972,523,0,0,0,3,2,1,5,0002-00-0000-11.png,0003-00-0000-79.png
00000014,720,1,1449160036607,1449160037287,398,440,0,0,0,1,2,1,3,0004-00-0000-89.png,0003-00-0000-47.png
00000014,721,1,1449160038450,1449160039017,898,510,0,0,0,2,1,1,3,0003-00-0001-44.png,0004-00-0001-86.png
00000014,722,1,1449160040190,1449160040674,401,496,0,0,0,1,2,1,3,0004-00-0000-65.png,0003-00-0000-63.png
00000014,723,0,1449160041892,1449160042335,414,501,0,0,0,3,2,1,5,0002-00-0001-19.png,0003-00-0001-30.png
00000014,724,0,1449160045168,1449160045740,373,398,0,0,0,1,0,1,1,0004-00-0001-33.png,0005-00-0000-59.png
00000014,725,0,1449160048635,1449160049151,899,553,0,0,0,3,4,1,7,0002-00-0000-21.png,0001-00-0001-25.png
00000014,726,0,1449160051980,1449160052428,939,436,0,0,0,2,3,1,5,0003-00-0001-24.png,0002-00-0000-54.png
00000014,727,0,1449160055618,1449160056152,411,402,0,0,0,4,3,1,7,0001-00-0001-35.png,0002-00-0000-87.png
00000014,728,1,1449160059022,1449160059628,337,449,0,0,0,0,1,1,1,0005-00-0000-73.png,0004-00-0001-20.png
00000014,729,1,1449160060626,1449160061287,875,488,0,0,0,3,2,1,5,0002-00-0000-01.png,0003-00-0001-95.png
00000014,730,0,1449160062312,1449160062774,391,485,0,0,0,4,3,1,7,0001-00-0000-70.png,0002-00-0000-99.png
00000014,731,0,1449160065712,1449160066375,994,451,0,0,0,2,3,1,5,0003-00-0000-84.png,0002-00-0001-46.png
00000014,732,0,1449160069451,1449160070022,959,518,0,0,0,3,4,1,7,0002-00-0000-33.png,0001-00-0001-30.png
00000014,733,0,1449160073172,1449160073665,952,450,0,0,0,1,2,1,3,0004-00-0000-34.png,0003-00-0001-10.png
00000014,734,1,1449160076607,1449160077160,975,455,0,0,0,2,1,1,3,0003-00-0000-78.png,0004-00-0000-98.png
00000014,735,1,1449160078177,1449160078690,921,523,0,0,0,1,0,1,1,0004-00-0001-99.png,0005-00-0000-51.png
00000014,736,1,1449160080279,1449160080842,363,450,0,0,0,0,1,1,1,0005-00-0000-98.png,0004-00-0001-80.png
00000014,737,0,1449160081977,1449160082439,899,517,0,0,0,3,4,1,7,0002-00-0000-08.png,0001-00-0000-12.png
00000014,738,0,1449160085349,1449160086181,969,451,0,0,0,0,1,1,1,0005-00-0001-16.png,0004-00-0001-19.png
00000014,739,1,1449160089159,1449160089639,959,473,0,0,0,1,0,1,1,0004-00-0001-77.png,0005-00-0001-17.png
00000014,740,0,1449160090659,1449160091244,865,489,0,0,0,1,2,1,3,0004-00-0001-30.png,0003-00-0001-49.png
00000014,741,0,1449160094238,1449160094697,965,450,0,0,0,2,3,1,5,0003-00-0000-37.png,0002-00-0000-76.png
00000014,742,0,1449160097863,1449160098471,448,431,0,0,0,4,3,1,7,0001-00-0001-72.png,0002-00-0001-04.png
00000014,743,1,1449160101341,1449160101813,879,426,0,0,0,2,1,1,3,0003-00-0001-68.png,0004-00-0000-47.png
00000014,744,0,1449160102831,1449160103322,401,490,0,0,0,3,2,1,5,0002-00-0001-42.png,0003-00-0001-17.png
00000014,745,0,1449160106348,1449160106876,965,501,0,0,0,1,2,1,3,0004-00-0001-51.png,0003-00-0001-50.png
00000014,746,1,1449160110366,1449160110910,876,441,0,0,0,4,3,1,7,0001-00-0000-42.png,0002-00-0000-68.png
00000014,747,1,1449160111948,1449160112472,897,457,0,0,0,3,2,1,5,0002-00-0000-30.png,0003-00-0001-23.png
00000014,748,1,1449160113557,1449160114089,896,454,0,0,0,2,1,1,3,0003-00-0001-27.png,0004-00-0000-55.png
00000014,749,0,1449160115195,1449160115724,862,475,0,0,0,2,3,1,5,0003-00-0001-60.png,0002-00-0001-17.png
00000014,750,0,1449160119578,1449160120141,979,489,0,0,0,0,1,1,1,0005-00-0001-54.png,0004-00-0000-39.png
00000014,751,1,1449160123305,1449160123781,878,440,0,0,0,1,0,1,1,0004-00-0000-22.png,0005-00-0000-90.png
00000014,752,0,1449160124815,1449160125372,952,494,0,0,0,3,4,1,7,0002-00-0001-61.png,0001-00-0000-57.png
00000014,753,1,1449160128360,1449160128879,940,475,0,0,0,2,1,1,3,0003-00-0000-95.png,0004-00-0001-56.png
00000014,754,0,1449160129900,1449160130336,401,513,0,0,0,4,3,1,7,0001-00-0001-43.png,0002-00-0000-36.png
00000014,755,0,1449160133382,1449160133996,951,501,0,0,0,1,2,1,3,0004-00-0000-08.png,0003-00-0001-11.png
00000014,756,0,1449160137191,1449160137706,973,486,0,0,0,2,3,1,5,0003-00-0001-72.png,0002-00-0001-76.png
00000014,757,0,1449160140984,1449160141427,971,478,0,0,0,0,1,1,1,0005-00-0000-14.png,0004-00-0001-30.png
00000014,758,0,1449160144306,1449160144861,925,540,0,0,0,3,4,1,7,0002-00-0000-80.png,0001-00-0000-44.png
00000014,759,1,1449160148218,1449160148700,953,494,0,0,0,3,2,1,5,0002-00-0000-65.png,0003-00-0001-61.png
00000014,760,1,1449160149833,1449160150388,900,502,0,0,0,1,0,1,1,0004-00-0001-14.png,0005-00-0000-69.png
00000014,761,1,1449160151434,1449160152025,926,463,0,0,0,1,0,1,1,0004-00-0000-99.png,0005-00-0000-86.png
00000014,762,0,1449160153114,1449160153644,886,502,0,0,0,1,2,1,3,0004-00-0001-13.png,0003-00-0001-13.png
00000014,763,1,1449160157266,1449160157744,900,559,0,0,0,4,3,1,7,0001-00-0000-35.png,0002-00-0000-98.png
00000014,764,1,1449160158858,1449160159453,376,424,0,0,0,0,1,1,1,0005-00-0000-62.png,0004-00-0001-48.png
00000014,765,0,1449160160607,1449160161151,907,500,0,0,0,3,4,1,7,0002-00-0000-06.png,0001-00-0000-92.png
00000014,766,1,1449160164503,1449160165016,950,474,0,0,0,3,2,1,5,0002-00-0000-57.png,0003-00-0000-64.png
00000014,767,1,1449160166100,1449160166646,911,477,0,0,0,2,1,1,3,0003-00-0000-14.png,0004-00-0000-24.png
00000014,768,0,1449160168136,1449160168690,895,473,0,0,0,2,3,1,5,0003-00-0001-12.png,0002-00-0001-86.png
00000014,769,1,1449160171667,1449160172229,950,507,0,0,0,3,2,1,5,0002-00-0001-18.png,0003-00-0000-19.png
00000014,770,0,1449160173768,1449160174248,913,501,0,0,0,3,4,1,7,0002-00-0001-75.png,0001-00-0001-93.png
00000014,771,1,1449160177543,1449160178022,888,472,0,0,0,1,0,1,1,0004-00-0001-66.png,0005-00-0000-41.png
00000014,772,1,1449160179563,1449160180056,901,539,0,0,0,4,3,1,7,0001-00-0001-44.png,0002-00-0000-26.png
00000014,773,1,1449160181097,1449160181627,898,484,0,0,0,2,1,1,3,0003-00-0000-54.png,0004-00-0000-60.png
00000014,774,1,1449160182642,1449160183111,435,460,0,0,0,1,2,1,3,0004-00-0001-39.png,0003-00-0000-20.png
00000014,775,0,1449160184234,1449160184832,923,484,0,0,0,2,3,1,5,0003-00-0000-10.png,0002-00-0000-39.png
00000014,776,0,1449160189188,1449160189651,997,487,0,0,0,0,1,1,1,0005-00-0001-73.png,0004-00-0000-45.png
00000014,777,0,1449160195428,1449160195904,462,560,0,0,0,3,2,1,5,0002-00-0000-91.png,0003-00-0001-58.png
00000014,778,1,1449160200429,1449160200955,971,462,0,0,0,4,3,1,7,0001-00-0000-21.png,0002-00-0000-47.png
00000014,779,1,1449160201921,1449160202353,410,471,0,0,0,1,2,1,3,0004-00-0001-27.png,0003-00-0000-43.png
00000014,780,1,1449160203295,1449160203773,367,454,0,0,0,2,3,1,5,0003-00-0001-98.png,0002-00-0001-53.png
00000014,781,1,1449160204781,1449160205276,890,512,0,0,0,2,1,1,3,0003-00-0000-85.png,0004-00-0000-97.png
00000014,782,1,1449160206277,1449160206796,896,497,0,0,0,1,0,1,1,0004-00-0000-88.png,0005-00-0001-77.png
00000014,783,0,1449160207810,1449160208410,913,476,0,0,0,3,4,1,7,0002-00-0000-56.png,0001-00-0001-62.png
00000014,784,1,1449160211409,1449160211986,414,535,0,0,0,0,1,1,1,0005-00-0001-79.png,0004-00-0001-17.png
00000014,785,0,1449160212977,1449160213464,306,480,0,0,0,4,3,1,7,0001-00-0001-97.png,0002-00-0001-50.png
00000014,786,0,1449160216525,1449160217042,972,471,0,0,0,0,1,1,1,0005-00-0000-76.png,0004-00-0000-26.png
00000014,787,0,1449160220074,1449160220628,965,475,0,0,0,3,4,1,7,0002-00-0000-58.png,0001-00-0000-69.png
00000014,788,0,1449160223667,1449160224155,960,472,0,0,0,2,3,1,5,0003-00-0000-34.png,0002-00-0000-91.png
00000014,789,0,1449160227553,1449160228009,860,470,0,0,0,1,2,1,3,0004-00-0000-83.png,0003-00-0001-55.png
00000014,790,1,1449160230919,1449160231548,1002,412,0,0,0,1,0,1,1,0004-00-0001-09.png,0005-00-0001-54.png
00000014,791,1,1449160232518,1449160233076,925,456,0,0,0,3,2,1,5,0002-00-0001-07.png,0003-00-0000-20.png
00000014,792,1,1449160234099,1449160234626,863,475,0,0,0,2,1,1,3,0003-00-0001-37.png,0004-00-0001-22.png
00000014,793,1,1449160235600,1449160236012,337,475,0,0,0,0,1,1,1,0005-00-0000-22.png,0004-00-0001-05.png
00000014,794,0,1449160237027,1449160237638,898,482,0,0,0,2,3,1,5,0003-00-0001-79.png,0002-00-0001-18.png
00000014,795,0,1449160240663,1449160241243,405,384,0,0,0,1,0,1,1,0004-00-0000-64.png,0005-00-0001-16.png
00000014,796,1,1449160244303,1449160245051,442,545,0,0,0,3,4,1,7,0002-00-0000-87.png,0001-00-0001-89.png
00000014,797,0,1449160246101,1449160246583,873,484,0,0,0,1,2,1,3,0004-00-0000-80.png,0003-00-0000-56.png
00000014,798,1,1449160249652,1449160250148,965,449,0,0,0,2,1,1,3,0003-00-0001-58.png,0004-00-0001-79.png
00000014,799,1,1449160251225,1449160251772,876,494,0,0,0,4,3,1,7,0001-00-0001-62.png,0002-00-0000-07.png
00000014,800,1,1449160252763,1449160253334,895,472,0,0,0,3,2,1,5,0002-00-0000-10.png,0003-00-0001-70.png
00000014,801,0,1449160254382,1449160254934,898,508,0,0,0,3,4,1,7,0002-00-0001-22.png,0001-00-0001-58.png
00000014,802,0,1449160258036,1449160258621,877,493,0,0,0,2,3,1,5,0003-00-0001-91.png,0002-00-0001-05.png
00000014,803,1,1449160261766,1449160262198,902,546,0,0,0,1,0,1,1,0004-00-0001-05.png,0005-00-0001-51.png
00000014,804,1,1449160263171,1449160263688,892,484,0,0,0,2,1,1,3,0003-00-0000-73.png,0004-00-0001-87.png
00000014,805,1,1449160264700,1449160265272,871,513,0,0,0,4,3,1,7,0001-00-0000-92.png,0002-00-0000-80.png
00000014,806,1,1449160266310,1449160266846,877,495,0,0,0,3,2,1,5,0002-00-0000-55.png,0003-00-0001-43.png
00000014,807,1,1449160268007,1449160268484,376,451,0,0,0,0,1,1,1,0005-00-0000-23.png,0004-00-0000-52.png
00000014,808,0,1449160269533,1449160270065,858,485,0,0,0,1,2,1,3,0004-00-0001-93.png,0003-00-0001-22.png
00000014,809,1,1449160273119,1449160273614,942,465,0,0,0,1,0,1,1,0004-00-0000-26.png,0005-00-0000-65.png
00000014,810,1,1449160274689,1449160275268,870,523,0,0,0,3,2,1,5,0002-00-0001-10.png,0003-00-0001-14.png
00000014,811,1,1449160276302,1449160276713,427,514,0,0,0,0,1,1,1,0005-00-0000-54.png,0004-00-0000-37.png
00000014,812,0,1449160277858,1449160278970,911,474,0,0,0,1,2,1,3,0004-00-0001-61.png,0003-00-0001-54.png
00000014,813,0,1449160282517,1449160282977,922,497,0,0,0,3,4,1,7,0002-00-0001-48.png,0001-00-0001-53.png
00000014,814,0,1449160286141,1449160286642,453,410,0,0,0,4,3,1,7,0001-00-0001-80.png,0002-00-0001-60.png
00000014,815,1,1449160290139,1449160290657,978,494,0,0,0,2,1,1,3,0003-00-0001-10.png,0004-00-0000-97.png
00000014,816,0,1449160291643,1449160292352,923,482,0,0,0,2,3,1,5,0003-00-0001-50.png,0002-00-0000-31.png
00000014,817,1,1449160295251,1449160295275,489,400,0,0,0,2,3,1,5,0003-00-0000-86.png,0002-00-0000-91.png
00000014,818,1,1449160296316,1449160296862,913,502,0,0,0,3,2,1,5,0002-00-0000-63.png,0003-00-0001-36.png
00000014,819,1,1449160298197,1449160298859,437,561,0,0,0,0,1,1,1,0005-00-0000-02.png,0004-00-0001-43.png
00000014,820,0,1449160299906,1449160300450,900,463,0,0,0,3,4,1,7,0002-00-0001-81.png,0001-00-0001-26.png
00000014,821,1,1449160304048,1449160304518,970,469,0,0,0,1,0,1,1,0004-00-0001-22.png,0005-00-0001-04.png
00000014,822,0,1449160305607,1449160306089,435,496,0,0,0,2,1,1,3,0003-00-0000-92.png,0004-00-0000-29.png
00000014,823,0,1449160308996,1449160309534,928,514,0,0,0,1,2,1,3,0004-00-0001-24.png,0003-00-0000-07.png
00000014,824,0,1449160312592,1449160313074,443,480,0,0,0,4,3,1,7,0001-00-0001-99.png,0002-00-0000-33.png
00000014,825,1,1449160316211,1449160316654,930,403,0,0,0,2,1,1,3,0003-00-0000-09.png,0004-00-0001-31.png
00000014,826,1,1449160317659,1449160318246,401,462,0,0,0,0,1,1,1,0005-00-0000-65.png,0004-00-0001-81.png
00000014,827,0,1449160319314,1449160319736,387,450,0,0,0,4,3,1,7,0001-00-0001-34.png,0002-00-0001-61.png
00000014,828,0,1449160322840,1449160323529,975,456,0,0,0,2,3,1,5,0003-00-0001-45.png,0002-00-0000-35.png
00000014,829,0,1449160326521,1449160327009,950,482,0,0,0,3,4,1,7,0002-00-0000-48.png,0001-00-0000-00.png
00000014,830,1,1449160329853,1449160330683,905,402,0,0,0,3,2,1,5,0002-00-0001-20.png,0003-00-0001-41.png
00000014,831,1,1449160331738,1449160332263,937,476,0,0,0,1,0,1,1,0004-00-0000-45.png,0005-00-0000-17.png
00000014,832,1,1449160333305,1449160333742,401,528,0,0,0,1,2,1,3,0004-00-0001-95.png,0003-00-0000-08.png
00000014,833,1,1449160334819,1449160335324,912,499,0,0,0,1,0,1,1,0004-00-0001-74.png,0005-00-0000-39.png
00000014,834,1,1449160336410,1449160336825,422,472,0,0,0,1,2,1,3,0004-00-0000-07.png,0003-00-0001-93.png
00000014,835,0,1449160337922,1449160338439,899,511,0,0,0,2,3,1,5,0003-00-0000-89.png,0002-00-0000-12.png
00000014,836,1,1449160341403,1449160342456,925,501,0,0,0,3,2,1,5,0002-00-0000-13.png,0003-00-0000-88.png
00000014,837,1,1449160343455,1449160344186,919,478,0,0,0,2,1,1,3,0003-00-0001-08.png,0004-00-0001-53.png
00000014,838,0,1449160345165,1449160345709,875,514,0,0,0,3,4,1,7,0002-00-0001-21.png,0001-00-0000-04.png
00000014,839,0,1449160348682,1449160349217,948,497,0,0,0,0,1,1,1,0005-00-0001-13.png,0004-00-0000-92.png
00000014,840,0,1449160352785,1449160353315,416,495,0,0,0,4,3,1,7,0001-00-0000-77.png,0002-00-0001-45.png
00000014,841,0,1449160356326,1449160356903,427,437,0,0,0,4,3,1,7,0001-00-0000-53.png,0002-00-0001-92.png
00000014,842,1,1449160360014,1449160360712,903,453,0,0,0,1,0,1,1,0004-00-0001-02.png,0005-00-0001-67.png
00000014,843,0,1449160361763,1449160362677,873,560,0,0,0,1,2,1,3,0004-00-0000-30.png,0003-00-0000-24.png
00000014,844,0,1449160367102,1449160367587,979,468,0,0,0,3,4,1,7,0002-00-0000-63.png,0001-00-0001-40.png
00000014,845,0,1449160370484,1449160371006,964,490,0,0,0,0,1,1,1,0005-00-0001-08.png,0004-00-0001-08.png
00000014,846,0,1449160373914,1449160374377,367,324,0,0,0,3,2,1,5,0002-00-0001-11.png,0003-00-0001-61.png
00000014,847,1,1449160377224,1449160377706,921,505,0,0,0,2,1,1,3,0003-00-0001-31.png,0004-00-0000-64.png
00000014,848,1,1449160378694,1449160379114,437,511,0,0,0,2,3,1,5,0003-00-0000-27.png,0002-00-0001-52.png
00000014,849,1,1449160380119,1449160380780,901,502,0,0,0,3,2,1,5,0002-00-0001-09.png,0003-00-0001-58.png
00000014,850,1,1449160381850,1449160382373,899,489,0,0,0,2,1,1,3,0003-00-0000-66.png,0004-00-0001-13.png
00000014,851,0,1449160383392,1449160383921,872,484,0,0,0,0,1,1,1,0005-00-0001-81.png,0004-00-0000-85.png
00000014,852,1,1449160386904,1449160387386,961,473,0,0,0,1,0,1,1,0004-00-0001-85.png,0005-00-0001-47.png
00000014,853,1,1449160388388,1449160389662,370,410,0,0,0,1,2,1,3,0004-00-0000-20.png,0003-00-0000-53.png
00000014,854,0,1449160390702,1449160391272,916,500,0,0,0,3,4,1,7,0002-00-0000-15.png,0001-00-0000-57.png
00000014,855,0,1449160394407,1449160394860,960,474,0,0,0,2,3,1,5,0003-00-0000-50.png,0002-00-0000-77.png
00000014,856,1,1449160397796,1449160398321,976,517,0,0,0,4,3,1,7,0001-00-0001-21.png,0002-00-0001-01.png
00000014,857,1,1449160399327,1449160399758,440,488,0,0,0,0,1,1,1,0005-00-0000-59.png,0004-00-0001-74.png
00000014,858,1,1449160400814,1449160401531,923,482,0,0,0,3,2,1,5,0002-00-0000-02.png,0003-00-0000-48.png
00000014,859,1,1449160402630,1449160403133,901,495,0,0,0,1,0,1,1,0004-00-0000-92.png,0005-00-0000-13.png
00000014,860,0,1449160404233,1449160404742,350,462,0,0,0,4,3,1,7,0001-00-0000-81.png,0002-00-0000-77.png
00000014,861,0,1449160407903,1449160408357,932,473,0,0,0,3,4,1,7,0002-00-0001-61.png,0001-00-0000-28.png
00000014,862,0,1449160411484,1449160412099,990,449,0,0,0,1,2,1,3,0004-00-0001-96.png,0003-00-0000-65.png
00000014,863,0,1449160414981,1449160415412,951,438,0,0,0,2,3,1,5,0003-00-0001-80.png,0002-00-0000-39.png
00000014,864,1,1449160418440,1449160418911,915,528,0,0,0,2,1,1,3,0003-00-0000-59.png,0004-00-0001-93.png
00000014,865,1,1449160419889,1449160420722,401,450,0,0,0,1,2,1,3,0004-00-0000-90.png,0003-00-0000-79.png
00000014,866,0,1449160421707,1449160422113,384,469,0,0,0,4,3,1,7,0001-00-0001-10.png,0002-00-0000-83.png
00000014,867,0,1449160425795,1449160426294,954,473,0,0,0,3,4,1,7,0002-00-0001-16.png,0001-00-0001-22.png
00000014,868,1,1449160429291,1449160429796,952,475,0,0,0,3,2,1,5,0002-00-0001-51.png,0003-00-0000-20.png
00000014,869,1,1449160430740,1449160431203,458,490,0,0,0,0,1,1,1,0005-00-0001-67.png,0004-00-0001-48.png
00000014,870,1,1449160432156,1449160432707,901,513,0,0,0,1,0,1,1,0004-00-0001-33.png,0005-00-0000-70.png
00000014,871,1,1449160433700,1449160434117,443,520,0,0,0,2,3,1,5,0003-00-0001-95.png,0002-00-0000-95.png
00000014,872,1,1449160435123,1449160435640,901,494,0,0,0,2,1,1,3,0003-00-0000-62.png,0004-00-0000-86.png
00000014,873,0,1449160436731,1449160437214,418,428,0,0,0,4,3,1,7,0001-00-0001-38.png,0002-00-0000-90.png
00000014,874,1,1449160440289,1449160440337,504,488,0,0,0,0,1,1,1,0005-00-0000-75.png,0004-00-0001-42.png
00000014,875,0,1449160441366,1449160441850,931,500,0,0,0,2,3,1,5,0003-00-0000-52.png,0002-00-0000-50.png
00000014,876,1,1449160444806,1449160445297,943,481,0,0,0,1,0,1,1,0004-00-0001-04.png,0005-00-0000-60.png
00000014,877,1,1449160446392,1449160446930,924,483,0,0,0,3,2,1,5,0002-00-0001-92.png,0003-00-0000-53.png
00000014,878,1,1449160448700,1449160449138,925,490,0,0,0,2,1,1,3,0003-00-0001-34.png,0004-00-0001-13.png
00000014,879,0,1449160450157,1449160450678,899,491,0,0,0,3,4,1,7,0002-00-0000-10.png,0001-00-0001-56.png
00000014,880,0,1449160453673,1449160454343,926,449,0,0,0,1,2,1,3,0004-00-0000-11.png,0003-00-0001-67.png
00000014,881,0,1449160457546,1449160458133,442,416,0,0,0,4,3,1,7,0001-00-0000-01.png,0002-00-0001-17.png
00000014,882,0,1449160461314,1449160462300,385,401,0,0,0,3,2,1,5,0002-00-0001-65.png,0003-00-0000-43.png
00000014,883,0,1449160465191,1449160465707,950,483,0,0,0,3,4,1,7,0002-00-0001-18.png,0001-00-0001-39.png
00000014,884,1,1449160468553,1449160469071,420,393,0,0,0,2,3,1,5,0003-00-0000-87.png,0002-00-0001-44.png
00000014,885,1,1449160470035,1449160470545,925,489,0,0,0,1,0,1,1,0004-00-0000-53.png,0005-00-0000-54.png
00000014,886,1,1449160471500,1449160471947,333,497,0,0,0,0,1,1,1,0005-00-0000-52.png,0004-00-0000-79.png
00000014,887,1,1449160473060,1449160473673,924,485,0,0,0,2,1,1,3,0003-00-0000-25.png,0004-00-0001-16.png
00000014,888,0,1449160475186,1449160475715,906,499,0,0,0,1,2,1,3,0004-00-0001-94.png,0003-00-0000-71.png
00000014,889,1,1449160478558,1449160479010,952,398,0,0,0,4,3,1,7,0001-00-0001-22.png,0002-00-0000-06.png
00000014,890,0,1449160480156,1449160480630,873,436,0,0,0,3,4,1,7,0002-00-0000-10.png,0001-00-0001-80.png
00000014,891,0,1449160483786,1449160484269,964,476,0,0,0,2,3,1,5,0003-00-0001-02.png,0002-00-0000-99.png
00000014,892,1,1449160487536,1449160488019,952,462,0,0,0,2,1,1,3,0003-00-0000-08.png,0004-00-0001-45.png
00000014,893,1,1449160489004,1449160489439,337,475,0,0,0,1,2,1,3,0004-00-0001-06.png,0003-00-0001-99.png
00000014,894,0,1449160490673,1449160491123,432,465,0,0,0,3,2,1,5,0002-00-0000-62.png,0003-00-0001-11.png
00000014,895,0,1449160494799,1449160495313,974,536,0,0,0,0,1,1,1,0005-00-0001-68.png,0004-00-0001-18.png
00000014,896,1,1449160498306,1449160498861,900,410,0,0,0,1,0,1,1,0004-00-0001-63.png,0005-00-0000-75.png
00000014,897,1,1449160499877,1449160500917,924,456,0,0,0,1,0,1,1,0004-00-0000-16.png,0005-00-0001-52.png
00000014,898,1,1449160502006,1449160502477,391,458,0,0,0,3,4,1,7,0002-00-0001-50.png,0001-00-0000-66.png
00000014,899,1,1449160503616,1449160504155,902,495,0,0,0,2,1,1,3,0003-00-0001-35.png,0004-00-0000-22.png
00000014,900,0,1449160505227,1449160506308,952,488,0,0,0,2,3,1,5,0003-00-0001-76.png,0002-00-0000-21.png
00000014,901,0,1449160511526,1449160511962,950,484,0,0,0,0,1,1,1,0005-00-0001-80.png,0004-00-0001-63.png
00000014,902,1,1449160515374,1449160515876,924,482,0,0,0,4,3,1,7,0001-00-0001-47.png,0002-00-0001-36.png
00000014,903,0,1449160516886,1449160517430,907,474,0,0,0,1,2,1,3,0004-00-0000-85.png,0003-00-0001-38.png
00000014,904,1,1449160520694,1449160521169,951,475,0,0,0,3,2,1,5,0002-00-0000-80.png,0003-00-0001-54.png
00000014,905,1,1449160522227,1449160522728,896,497,0,0,0,2,1,1,3,0003-00-0000-35.png,0004-00-0000-79.png
00000014,906,0,1449160523823,1449160524209,407,486,0,0,0,4,3,1,7,0001-00-0001-96.png,0002-00-0001-96.png
00000014,907,1,1449160527128,1449160527714,898,534,0,0,0,3,2,1,5,0002-00-0000-82.png,0003-00-0001-78.png
00000014,908,1,1449160528739,1449160529264,927,513,0,0,0,1,0,1,1,0004-00-0000-85.png,0005-00-0000-12.png
00000014,909,1,1449160530293,1449160530725,350,449,0,0,0,0,1,1,1,0005-00-0000-74.png,0004-00-0000-79.png
00000014,910,1,1449160531919,1449160532373,350,488,0,0,0,1,2,1,3,0004-00-0001-29.png,0003-00-0000-86.png
00000014,911,0,1449160533530,1449160534050,894,497,0,0,0,3,4,1,7,0002-00-0001-74.png,0001-00-0001-41.png
00000014,912,0,1449160537019,1449160537848,925,439,0,0,0,2,3,1,5,0003-00-0001-21.png,0002-00-0000-39.png
00000014,913,1,1449160540944,1449160541407,960,490,0,0,0,4,3,1,7,0001-00-0000-41.png,0002-00-0000-86.png
00000014,914,0,1449160542888,1449160543488,404,424,0,0,0,2,1,1,3,0003-00-0000-91.png,0004-00-0000-10.png
00000014,915,1,1449160546420,1449160546942,977,475,0,0,0,3,2,1,5,0002-00-0000-43.png,0003-00-0000-41.png
00000014,916,1,1449160547964,1449160548435,427,514,0,0,0,3,4,1,7,0002-00-0001-53.png,0001-00-0001-75.png
00000014,917,0,1449160549501,1449160550062,913,476,0,0,0,2,3,1,5,0003-00-0001-31.png,0002-00-0000-21.png
00000014,918,1,1449160552949,1449160554027,878,409,0,0,0,1,0,1,1,0004-00-0000-98.png,0005-00-0001-38.png
00000014,919,0,1449160555028,1449160555547,901,494,0,0,0,1,2,1,3,0004-00-0000-47.png,0003-00-0000-35.png
00000014,920,0,1449160558515,1449160559088,951,501,0,0,0,0,1,1,1,0005-00-0001-81.png,0004-00-0001-05.png
00000014,921,0,1449160562512,1449160562974,877,441,0,0,0,3,4,1,7,0002-00-0000-47.png,0001-00-0001-26.png
00000014,922,1,1449160566176,1449160566636,931,527,0,0,0,2,1,1,3,0003-00-0000-20.png,0004-00-0001-52.png
00000014,923,0,1449160567638,1449160568110,401,436,0,0,0,4,3,1,7,0001-00-0001-47.png,0002-00-0000-37.png
00000014,924,1,1449160571265,1449160571761,951,476,0,0,0,1,0,1,1,0004-00-0001-65.png,0005-00-0000-41.png
00000014,925,0,1449160572766,1449160573334,904,507,0,0,0,0,1,1,1,0005-00-0001-08.png,0004-00-0001-54.png
00000014,926,0,1449160576201,1449160576824,951,474,0,0,0,2,3,1,5,0003-00-0001-94.png,0002-00-0001-50.png
00000014,927,0,1449160579791,1449160580266,888,436,0,0,0,1,2,1,3,0004-00-0001-54.png,0003-00-0000-29.png
00000014,928,1,1449160583162,1449160583701,963,476,0,0,0,3,2,1,5,0002-00-0001-61.png,0003-00-0000-94.png
00000014,929,1,1449160584690,1449160585284,925,490,0,0,0,4,3,1,7,0001-00-0001-05.png,0002-00-0001-14.png
00000014,930,1,1449160586304,1449160586849,898,511,0,0,0,1,0,1,1,0004-00-0001-68.png,0005-00-0000-31.png
00000014,931,0,1449160587999,1449160588511,891,484,0,0,0,2,3,1,5,0003-00-0000-95.png,0002-00-0000-06.png
00000014,932,1,1449160591751,1449160592267,898,553,0,0,0,2,1,1,3,0003-00-0001-63.png,0004-00-0001-36.png
00000014,933,1,1449160593318,1449160593831,380,427,0,0,0,0,1,1,1,0005-00-0000-20.png,0004-00-0001-12.png
00000014,934,0,1449160594999,1449160595808,896,420,0,0,0,1,2,1,3,0004-00-0001-24.png,0003-00-0000-59.png
00000014,935,0,1449160598975,1449160599457,961,491,0,0,0,3,4,1,7,0002-00-0001-72.png,0001-00-0001-86.png
00000014,936,0,1449160602863,1449160603444,388,415,0,0,0,3,2,1,5,0002-00-0000-39.png,0003-00-0000-24.png
00000014,937,1,1449160606575,1449160607173,977,476,0,0,0,4,3,1,7,0001-00-0001-32.png,0002-00-0000-25.png
00000014,938,1,1449160608388,1449160609088,950,515,0,0,0,1,0,1,1,0004-00-0000-12.png,0005-00-0001-93.png
00000014,939,1,1449160610804,1449160611278,912,503,0,0,0,2,1,1,3,0003-00-0001-77.png,0004-00-0001-07.png
00000014,940,1,1449160612464,1449160612993,914,501,0,0,0,3,2,1,5,0002-00-0000-34.png,0003-00-0001-62.png
00000014,941,0,1449160614130,1449160614598,861,476,0,0,0,2,3,1,5,0003-00-0001-58.png,0002-00-0001-22.png
00000014,942,0,1449160617729,1449160618512,914,450,0,0,0,0,1,1,1,0005-00-0001-13.png,0004-00-0000-37.png
00000014,943,1,1449160621562,1449160622176,409,396,0,0,0,3,4,1,7,0002-00-0001-10.png,0001-00-0001-78.png
00000014,944,0,1449160623661,1449160624183,899,510,0,0,0,1,2,1,3,0004-00-0000-70.png,0003-00-0001-16.png
00000014,945,0,1449160627422,1449160627893,440,410,0,0,0,3,2,1,5,0002-00-0000-19.png,0003-00-0001-05.png
00000014,946,1,1449160631086,1449160631554,922,445,0,0,0,4,3,1,7,0001-00-0001-71.png,0002-00-0000-35.png
00000014,947,0,1449160632606,1449160633369,904,480,0,0,0,1,2,1,3,0004-00-0001-09.png,0003-00-0000-56.png
00000014,948,0,1449160636325,1449160636839,975,458,0,0,0,3,4,1,7,0002-00-0000-33.png,0001-00-0000-93.png
00000014,949,1,1449160639901,1449160640394,977,423,0,0,0,2,1,1,3,0003-00-0001-67.png,0004-00-0001-34.png
00000014,950,0,1449160641393,1449160641986,926,489,0,0,0,0,1,1,1,0005-00-0000-26.png,0004-00-0000-56.png
00000014,951,0,1449160645142,1449160645613,944,441,0,0,0,2,3,1,5,0003-00-0000-64.png,0002-00-0001-74.png
