subject_id,trial,correct_response,stim_time,response_time,x_coord,y_coord,trial_timeout,timeout_time,interTrial_timeout,left_rank,right_rank,distance,joint_rank,left_image,right_image
00000014,1,1,1449589685118,1449589685870,1003,361,0,0,0,2,1,1,3,0003-00-0000-38.png,0004-00-0001-67.png
00000014,2,0,1449589686850,1449589687316,926,460,0,0,0,3,4,1,7,0002-00-0000-55.png,0001-00-0001-81.png
00000014,3,0,1449589690358,1449589690784,968,387,0,0,0,1,2,1,3,0004-00-0001-02.png,0003-00-0000-42.png
00000014,4,1,1449589694098,1449589694901,409,497,0,0,0,0,1,1,1,0005-00-0000-98.png,0004-00-0001-55.png
00000014,5,0,1449589695932,1449589696388,392,457,0,0,0,3,2,1,5,0002-00-0000-46.png,0003-00-0001-67.png
00000014,6,0,1449589699251,1449589699611,888,358,0,0,0,2,3,1,5,0003-00-0001-49.png,0002-00-0001-45.png
00000014,7,1,1449589702698,1449589703112,952,514,0,0,0,4,3,1,7,0001-00-0000-02.png,0002-00-0001-64.png
00000014,8,1,1449589703971,1449589704476,888,462,0,0,0,1,0,1,1,0004-00-0000-60.png,0005-00-0000-32.png
00000014,9,0,1449589705343,1449589705862,869,564,0,0,0,2,3,1,5,0003-00-0000-48.png,0002-00-0001-70.png
00000014,10,0,1449589708824,1449589709221,1017,423,0,0,0,0,1,1,1,0005-00-0000-28.png,0004-00-0001-20.png
00000014,11,0,1449589712363,1449589713305,407,378,0,0,0,4,3,1,7,0001-00-0000-94.png,0002-00-0000-04.png
00000014,12,1,1449589716197,1449589716609,955,426,0,0,0,2,1,1,3,0003-00-0001-12.png,0004-00-0001-79.png
00000014,13,1,1449589717438,1449589717934,862,410,0,0,0,1,0,1,1,0004-00-0001-19.png,0005-00-0000-83.png
00000014,14,0,1449589718798,1449589719225,402,565,0,0,0,3,2,1,5,0002-00-0001-29.png,0003-00-0001-61.png
00000014,15,0,1449589722450,1449589722821,902,468,0,0,0,1,2,1,3,0004-00-0001-00.png,0003-00-0001-29.png
00000014,16,0,1449589725883,1449589726254,950,490,0,0,0,3,4,1,7,0002-00-0000-17.png,0001-00-0001-94.png
00000014,17,1,1449589729196,1449589729640,889,383,0,0,0,4,3,1,7,0001-00-0001-69.png,0002-00-0001-40.png
00000014,18,0,1449589730628,1449589731165,879,428,0,0,0,3,4,1,7,0002-00-0000-37.png,0001-00-0000-48.png
00000014,19,0,1449589734087,1449589734519,946,477,0,0,0,0,1,1,1,0005-00-0000-32.png,0004-00-0001-49.png
00000014,20,1,1449589738322,1449589738737,959,445,0,0,0,3,2,1,5,0002-00-0000-36.png,0003-00-0001-00.png
00000014,21,1,1449589739581,1449589740118,927,501,0,0,0,1,0,1,1,0004-00-0001-54.png,0005-00-0001-67.png
00000014,22,0,1449589740991,1449589741459,390,476,0,0,0,2,1,1,3,0003-00-0000-09.png,0004-00-0000-05.png
00000014,23,0,1449589744289,1449589744686,975,431,0,0,0,2,3,1,5,0003-00-0000-71.png,0002-00-0000-83.png
00000014,24,0,1449589755239,1449589755676,951,514,0,0,0,1,2,1,3,0004-00-0001-33.png,0003-00-0000-53.png
00000014,25,1,1449589758551,1449589758969,921,498,0,0,0,3,2,1,5,0002-00-0001-50.png,0003-00-0001-18.png
00000014,26,0,1449589759858,1449589760375,876,555,0,0,0,2,3,1,5,0003-00-0000-58.png,0002-00-0001-54.png
00000014,27,1,1449589764230,1449589764627,1010,455,0,0,0,1,0,1,1,0004-00-0000-00.png,0005-00-0000-71.png
00000014,28,1,1449589765500,1449589765996,900,475,0,0,0,2,1,1,3,0003-00-0001-91.png,0004-00-0001-43.png
00000014,29,0,1449589766971,1449589767422,358,446,0,0,0,4,3,1,7,0001-00-0001-42.png,0002-00-0000-74.png
00000014,30,0,1449589770710,1449589771142,931,479,0,0,0,0,1,1,1,0005-00-0000-82.png,0004-00-0000-16.png
00000014,31,0,1449589774066,1449589774434,926,319,0,0,0,1,2,1,3,0004-00-0000-32.png,0003-00-0001-29.png
00000014,32,0,1449589777295,1449589777713,964,449,0,0,0,3,4,1,7,0002-00-0000-99.png,0001-00-0000-85.png
00000014,33,0,1449589780649,1449589781015,998,419,0,0,0,0,1,1,1,0005-00-0001-11.png,0004-00-0001-96.png
00000014,34,1,1449589783853,1449589784292,927,495,0,0,0,3,2,1,5,0002-00-0000-67.png,0003-00-0001-86.png
00000014,35,1,1449589785152,1449589785634,387,462,0,0,0,1,2,1,3,0004-00-0001-38.png,0003-00-0000-66.png
00000014,36,1,1449589786650,1449589787116,376,401,0,0,0,3,4,1,7,0002-00-0000-86.png,0001-00-0001-53.png
00000014,37,1,1449589788141,1449589788614,926,436,0,0,0,2,1,1,3,0003-00-0000-80.png,0004-00-0000-33.png
00000014,38,0,1449589789619,1449589790125,925,449,0,0,0,2,3,1,5,0003-00-0000-47.png,0002-00-0001-25.png
00000014,39,1,1449589794453,1449589794852,931,526,0,0,0,1,0,1,1,0004-00-0001-47.png,0005-00-0000-24.png
00000014,40,0,1449589795775,1449589796306,380,445,0,0,0,4,3,1,7,0001-00-0001-23.png,0002-00-0000-70.png
00000014,41,0,1449589800205,1449589800579,1023,470,0,0,0,3,4,1,7,0002-00-0000-15.png,0001-00-0001-33.png
00000014,42,1,1449589804670,1449589805076,1004,415,0,0,0,1,0,1,1,0004-00-0001-97.png,0005-00-0000-70.png
00000014,43,1,1449589805964,1449589806427,924,481,0,0,0,2,1,1,3,0003-00-0001-54.png,0004-00-0000-88.png
00000014,44,1,1449589807463,1449589808132,414,476,0,0,0,0,1,1,1,0005-00-0001-24.png,0004-00-0001-39.png
00000014,45,1,1449589809311,1449589809777,376,436,0,0,0,1,2,1,3,0004-00-0000-29.png,0003-00-0001-96.png
00000014,46,0,1449589810933,1449589811396,403,464,0,0,0,3,2,1,5,0002-00-0001-31.png,0003-00-0000-54.png
00000014,47,0,1449589814417,1449589814789,870,497,0,0,0,2,3,1,5,0003-00-0001-18.png,0002-00-0001-19.png
00000014,48,1,1449589818107,1449589818500,964,436,0,0,0,4,3,1,7,0001-00-0000-56.png,0002-00-0001-16.png
00000014,49,1,1449589819368,1449589819831,406,542,0,0,0,2,3,1,5,0003-00-0000-16.png,0002-00-0001-50.png
00000014,50,0,1449589820791,1449589821213,338,450,0,0,0,1,0,1,1,0004-00-0000-60.png,0005-00-0000-35.png
00000014,51,1,1449589824419,1449589824823,975,482,0,0,0,3,2,1,5,0002-00-0001-33.png,0003-00-0000-48.png
00000014,52,1,1449589825772,1449589826197,354,480,0,0,0,1,2,1,3,0004-00-0000-90.png,0003-00-0000-06.png
00000014,53,0,1449589827201,1449589827779,952,460,0,0,0,3,4,1,7,0002-00-0001-34.png,0001-00-0001-54.png
00000014,54,1,1449589833890,1449589834236,990,410,0,0,0,2,1,1,3,0003-00-0000-66.png,0004-00-0000-60.png
00000014,55,1,1449589835157,1449589835534,367,454,0,0,0,0,1,1,1,0005-00-0001-87.png,0004-00-0001-14.png
00000014,56,0,1449589836515,1449589836896,427,450,0,0,0,4,3,1,7,0001-00-0001-61.png,0002-00-0001-64.png
00000014,57,1,1449589839877,1449589840272,917,454,0,0,0,2,1,1,3,0003-00-0000-38.png,0004-00-0001-58.png
00000014,58,0,1449589841236,1449589841641,373,467,0,0,0,4,3,1,7,0001-00-0001-28.png,0002-00-0000-31.png
00000014,59,0,1449589844674,1449589845094,954,468,0,0,0,0,1,1,1,0005-00-0000-84.png,0004-00-0001-74.png
00000014,60,0,1449589848533,1449589848980,913,554,0,0,0,3,4,1,7,0002-00-0000-89.png,0001-00-0000-69.png
00000014,61,1,1449589851855,1449589852252,953,383,0,0,0,3,2,1,5,0002-00-0000-93.png,0003-00-0001-64.png
00000014,62,0,1449589853192,1449589853678,923,455,0,0,0,1,2,1,3,0004-00-0001-54.png,0003-00-0001-96.png
00000014,63,0,1449589856819,1449589857209,977,463,0,0,0,2,3,1,5,0003-00-0000-15.png,0002-00-0000-40.png
00000014,64,1,1449589860257,1449589860610,1008,472,0,0,0,1,0,1,1,0004-00-0000-18.png,0005-00-0000-84.png
00000014,65,1,1449589861529,1449589862035,925,465,0,0,0,2,1,1,3,0003-00-0001-15.png,0004-00-0000-43.png
00000014,66,0,1449589862980,1449589863344,306,472,0,0,0,3,2,1,5,0002-00-0000-00.png,0003-00-0001-24.png
00000014,67,1,1449589866379,1449589866802,901,554,0,0,0,4,3,1,7,0001-00-0000-24.png,0002-00-0000-26.png
00000014,68,1,1449589867740,1449589868189,384,474,0,0,0,3,4,1,7,0002-00-0001-08.png,0001-00-0001-68.png
00000014,69,1,1449589869209,1449589869628,401,423,0,0,0,0,1,1,1,0005-00-0000-45.png,0004-00-0000-08.png
00000014,70,1,1449589870724,1449589871257,942,470,0,0,0,1,0,1,1,0004-00-0000-21.png,0005-00-0001-35.png
00000014,71,1,1449589872264,1449589872733,461,393,0,0,0,1,2,1,3,0004-00-0001-10.png,0003-00-0000-43.png
00000014,72,0,1449589873705,1449589874168,860,566,0,0,0,2,3,1,5,0003-00-0001-69.png,0002-00-0000-89.png
00000014,73,1,1449589877262,1449589877660,967,449,0,0,0,1,0,1,1,0004-00-0000-37.png,0005-00-0000-62.png
00000014,74,0,1449589878646,1449589879078,284,541,0,0,0,4,3,1,7,0001-00-0000-84.png,0002-00-0001-39.png
00000014,75,0,1449589882066,1449589882497,902,521,0,0,0,1,2,1,3,0004-00-0000-73.png,0003-00-0001-21.png
00000014,76,0,1449589885581,1449589885947,975,430,0,0,0,3,4,1,7,0002-00-0000-93.png,0001-00-0000-19.png
00000014,77,1,1449589890460,1449589891431,1013,448,0,0,0,3,2,1,5,0002-00-0000-72.png,0003-00-0001-55.png
00000014,78,0,1449589892321,1449589892826,901,474,0,0,0,2,3,1,5,0003-00-0000-41.png,0002-00-0001-50.png
00000014,79,1,1449589896779,1449589897174,925,488,0,0,0,2,1,1,3,0003-00-0000-76.png,0004-00-0000-92.png
00000014,80,1,1449589898087,1449589898520,395,515,0,0,0,0,1,1,1,0005-00-0001-23.png,0004-00-0001-36.png
00000014,81,1,1449589899566,1449589899996,371,562,0,0,0,0,1,1,1,0005-00-0000-88.png,0004-00-0001-11.png
00000014,82,1,1449589901125,1449589901556,364,443,0,0,0,1,2,1,3,0004-00-0001-23.png,0003-00-0001-26.png
00000014,83,0,1449589902587,1449589903011,364,468,0,0,0,1,0,1,1,0004-00-0001-02.png,0005-00-0001-34.png
00000014,84,1,1449589905914,1449589906281,925,527,0,0,0,3,2,1,5,0002-00-0001-90.png,0003-00-0000-24.png
00000014,85,0,1449589907248,1449589907692,939,475,0,0,0,3,4,1,7,0002-00-0001-84.png,0001-00-0001-48.png
00000014,86,1,1449589910565,1449589910977,884,417,0,0,0,4,3,1,7,0001-00-0000-40.png,0002-00-0000-15.png
00000014,87,0,1449589911970,1449589912790,904,520,0,0,0,2,3,1,5,0003-00-0000-51.png,0002-00-0001-31.png
00000014,88,1,1449589915736,1449589916154,1003,463,0,0,0,2,1,1,3,0003-00-0001-53.png,0004-00-0000-69.png
00000014,89,1,1449589917126,1449589917485,399,473,0,0,0,2,3,1,5,0003-00-0000-45.png,0002-00-0000-22.png
00000014,90,1,1449589918550,1449589919033,397,461,0,0,0,0,1,1,1,0005-00-0001-25.png,0004-00-0000-75.png
00000014,91,0,1449589920047,1449589921025,889,423,0,0,0,1,2,1,3,0004-00-0001-56.png,0003-00-0001-76.png
00000014,92,0,1449589926170,1449589926578,985,473,0,0,0,3,4,1,7,0002-00-0000-59.png,0001-00-0001-92.png
00000014,93,1,1449589929472,1449589929874,892,508,0,0,0,4,3,1,7,0001-00-0001-89.png,0002-00-0000-67.png
00000014,94,0,1449589930823,1449589931181,364,472,0,0,0,1,0,1,1,0004-00-0001-97.png,0005-00-0001-22.png
00000014,95,1,1449589934586,1449589934962,964,462,0,0,0,3,2,1,5,0002-00-0000-19.png,0003-00-0000-73.png
00000014,96,1,1449589935920,1449589936372,925,457,0,0,0,2,1,1,3,0003-00-0000-13.png,0004-00-0001-78.png
00000014,97,1,1449589937432,1449589937799,412,548,0,0,0,1,2,1,3,0004-00-0001-85.png,0003-00-0001-65.png
00000014,98,1,1449589938862,1449589939313,898,454,0,0,0,1,0,1,1,0004-00-0001-33.png,0005-00-0000-52.png
00000014,99,1,1449589940584,1449589941063,923,456,0,0,0,2,1,1,3,0003-00-0001-31.png,0004-00-0001-97.png
00000014,100,0,1449589942144,1449589942521,427,488,0,0,0,4,3,1,7,0001-00-0000-32.png,0002-00-0000-20.png
00000014,101,1,1449589945607,1449589945998,902,442,0,0,0,3,2,1,5,0002-00-0000-29.png,0003-00-0000-18.png
00000014,102,1,1449589946995,1449589947318,432,473,0,0,0,0,1,1,1,0005-00-0000-98.png,0004-00-0001-42.png
00000014,103,0,1449589948386,1449589948876,905,480,0,0,0,2,3,1,5,0003-00-0001-79.png,0002-00-0000-86.png
00000014,104,0,1449589952073,1449589952512,923,489,0,0,0,3,4,1,7,0002-00-0001-52.png,0001-00-0001-63.png
00000014,105,1,1449589956128,1449589956559,977,475,0,0,0,3,2,1,5,0002-00-0001-81.png,0003-00-0000-16.png
00000014,106,0,1449589957479,1449589957939,347,396,0,0,0,4,3,1,7,0001-00-0000-53.png,0002-00-0001-26.png
00000014,107,1,1449589960838,1449589961210,953,381,0,0,0,2,1,1,3,0003-00-0001-07.png,0004-00-0000-38.png
00000014,108,0,1449589962170,1449589962660,925,476,0,0,0,3,4,1,7,0002-00-0000-89.png,0001-00-0001-25.png
00000014,109,0,1449589965629,1449589966064,976,457,0,0,0,2,3,1,5,0003-00-0000-39.png,0002-00-0001-55.png
00000014,110,0,1449589969705,1449589970095,1003,475,0,0,0,0,1,1,1,0005-00-0000-49.png,0004-00-0001-84.png
00000014,111,1,1449589973131,1449589973507,991,449,0,0,0,1,0,1,1,0004-00-0000-66.png,0005-00-0000-07.png
00000014,112,1,1449589974514,1449589974922,350,475,0,0,0,1,2,1,3,0004-00-0001-92.png,0003-00-0001-16.png
00000014,113,1,1449589975996,1449589976587,401,436,0,0,0,3,4,1,7,0002-00-0001-72.png,0001-00-0000-10.png
00000014,114,1,1449589977708,1449589978222,945,453,0,0,0,1,0,1,1,0004-00-0001-44.png,0005-00-0000-17.png
00000014,115,1,1449589979296,1449589979710,376,462,0,0,0,0,1,1,1,0005-00-0001-30.png,0004-00-0001-98.png
00000014,116,0,1449589980816,1449589981362,925,464,0,0,0,2,3,1,5,0003-00-0000-14.png,0002-00-0000-47.png
00000014,117,0,1449589985024,1449589985433,955,468,0,0,0,1,2,1,3,0004-00-0000-77.png,0003-00-0000-38.png
00000014,118,1,1449589991962,1449589992365,1028,461,0,0,0,2,1,1,3,0003-00-0001-43.png,0004-00-0000-35.png
00000014,119,0,1449589993267,1449589993703,385,535,0,0,0,3,2,1,5,0002-00-0001-80.png,0003-00-0000-20.png
00000014,120,1,1449589996695,1449589997091,1003,455,0,0,0,4,3,1,7,0001-00-0001-89.png,0002-00-0001-14.png
00000014,121,1,1449589998039,1449589998471,401,384,0,0,0,0,1,1,1,0005-00-0001-86.png,0004-00-0001-00.png
00000014,122,1,1449589999521,1449590000005,940,475,0,0,0,2,1,1,3,0003-00-0000-94.png,0004-00-0001-11.png
00000014,123,1,1449590001089,1449590001478,397,462,0,0,0,3,4,1,7,0002-00-0000-69.png,0001-00-0000-05.png
00000014,124,1,1449590002582,1449590002955,358,470,0,0,0,1,2,1,3,0004-00-0001-90.png,0003-00-0000-78.png
00000014,125,1,1449590004040,1449590004906,950,491,0,0,0,3,2,1,5,0002-00-0001-32.png,0003-00-0000-14.png
00000014,126,0,1449590005971,1449590006389,389,463,0,0,0,1,0,1,1,0004-00-0001-24.png,0005-00-0000-90.png
00000014,127,1,1449590009379,1449590009773,981,453,0,0,0,4,3,1,7,0001-00-0001-49.png,0002-00-0001-49.png
00000014,128,0,1449590010690,1449590011213,934,499,0,0,0,2,3,1,5,0003-00-0000-60.png,0002-00-0001-24.png
00000014,129,1,1449590014289,1449590014691,875,423,0,0,0,4,3,1,7,0001-00-0000-87.png,0002-00-0001-96.png
00000014,130,0,1449590015629,1449590016022,433,488,0,0,0,3,2,1,5,0002-00-0000-31.png,0003-00-0001-56.png
00000014,131,0,1449590019268,1449590019674,974,453,0,0,0,3,4,1,7,0002-00-0001-40.png,0001-00-0001-48.png
00000014,132,0,1449590024291,1449590024694,1006,523,0,0,0,2,3,1,5,0003-00-0001-33.png,0002-00-0000-45.png
00000014,133,0,1449590029124,1449590029577,943,541,0,0,0,1,2,1,3,0004-00-0000-44.png,0003-00-0001-06.png
00000014,134,0,1449590032616,1449590033042,1000,442,0,0,0,0,1,1,1,0005-00-0001-36.png,0004-00-0001-32.png
00000014,135,1,1449590036170,1449590036543,951,515,0,0,0,2,1,1,3,0003-00-0001-41.png,0004-00-0001-50.png
00000014,136,1,1449590037526,1449590037991,889,554,0,0,0,1,0,1,1,0004-00-0000-33.png,0005-00-0000-92.png
00000014,137,0,1449590039052,1449590039424,338,450,0,0,0,4,3,1,7,0001-00-0000-98.png,0002-00-0000-69.png
00000014,138,0,1449590042932,1449590043889,364,356,0,0,0,2,1,1,3,0003-00-0000-89.png,0004-00-0000-21.png
00000014,139,1,1449590047323,1449590047736,976,430,0,0,0,3,2,1,5,0002-00-0000-35.png,0003-00-0001-39.png
00000014,140,0,1449590048644,1449590049180,876,546,0,0,0,1,2,1,3,0004-00-0000-44.png,0003-00-0001-58.png
00000014,141,1,1449590052463,1449590052865,985,437,0,0,0,1,0,1,1,0004-00-0001-89.png,0005-00-0001-86.png
00000014,142,1,1449590053804,1449590054264,369,439,0,0,0,0,1,1,1,0005-00-0001-53.png,0004-00-0001-34.png
00000014,143,0,1449590055555,1449590056038,926,449,0,0,0,2,3,1,5,0003-00-0000-87.png,0002-00-0000-50.png
00000014,144,0,1449590059116,1449590059528,984,447,0,0,0,3,4,1,7,0002-00-0001-70.png,0001-00-0001-74.png
00000014,145,0,1449590062590,1449590062997,975,431,0,0,0,0,1,1,1,0005-00-0000-72.png,0004-00-0000-46.png
00000014,146,0,1449590066080,1449590066498,875,385,0,0,0,2,3,1,5,0003-00-0001-27.png,0002-00-0001-40.png
00000014,147,1,1449590069427,1449590069805,916,508,0,0,0,3,2,1,5,0002-00-0001-74.png,0003-00-0001-75.png
00000014,148,1,1449590070801,1449590071276,875,397,0,0,0,1,0,1,1,0004-00-0001-63.png,0005-00-0000-94.png
00000014,149,0,1449590072220,1449590072625,433,482,0,0,0,4,3,1,7,0001-00-0000-63.png,0002-00-0000-05.png
00000014,150,1,1449590075679,1449590076061,976,437,0,0,0,2,1,1,3,0003-00-0001-64.png,0004-00-0000-26.png
00000014,151,0,1449590076981,1449590077532,899,491,0,0,0,3,4,1,7,0002-00-0000-14.png,0001-00-0000-62.png
00000014,152,0,1449590080612,1449590080998,998,444,0,0,0,1,2,1,3,0004-00-0001-90.png,0003-00-0001-16.png
00000014,153,0,1449590084098,1449590084513,996,436,0,0,0,3,4,1,7,0002-00-0000-04.png,0001-00-0000-07.png
00000014,154,1,1449590088005,1449590088370,939,384,0,0,0,1,0,1,1,0004-00-0001-27.png,0005-00-0000-52.png
00000014,155,0,1449590089293,1449590089762,875,554,0,0,0,2,3,1,5,0003-00-0001-41.png,0002-00-0001-97.png
00000014,156,1,1449590092965,1449590093367,966,468,0,0,0,4,3,1,7,0001-00-0001-54.png,0002-00-0001-67.png
00000014,157,1,1449590094316,1449590094761,868,561,0,0,0,2,1,1,3,0003-00-0000-13.png,0004-00-0001-19.png
00000014,158,0,1449590095857,1449590096410,929,470,0,0,0,1,2,1,3,0004-00-0001-00.png,0003-00-0001-51.png
00000014,159,0,1449590099305,1449590099667,959,447,0,0,0,0,1,1,1,0005-00-0001-60.png,0004-00-0001-53.png
00000014,160,1,1449590102754,1449590103185,900,428,0,0,0,3,2,1,5,0002-00-0001-26.png,0003-00-0001-66.png
00000014,161,1,1449590104185,1449590104648,900,476,0,0,0,2,1,1,3,0003-00-0000-94.png,0004-00-0001-75.png
00000014,162,1,1449590105738,1449590106148,388,555,0,0,0,0,1,1,1,0005-00-0001-85.png,0004-00-0000-39.png
00000014,163,0,1449590107416,1449590107901,422,457,0,0,0,4,3,1,7,0001-00-0000-09.png,0002-00-0001-21.png
00000014,164,1,1449590110762,1449590111644,988,398,0,0,0,1,0,1,1,0004-00-0000-23.png,0005-00-0001-63.png
00000014,165,0,1449590112695,1449590113179,379,428,0,0,0,3,2,1,5,0002-00-0001-26.png,0003-00-0000-78.png
00000014,166,0,1449590116163,1449590116591,1029,476,0,0,0,2,3,1,5,0003-00-0001-82.png,0002-00-0000-21.png
00000014,167,0,1449590119855,1449590120254,958,421,0,0,0,1,2,1,3,0004-00-0000-59.png,0003-00-0001-83.png
00000014,168,0,1449590123408,1449590124289,925,476,0,0,0,3,4,1,7,0002-00-0001-74.png,0001-00-0001-71.png
00000014,169,1,1449590127235,1449590127654,916,509,0,0,0,3,2,1,5,0002-00-0000-13.png,0003-00-0000-48.png
00000014,170,1,1449590128615,1449590129253,947,445,0,0,0,4,3,1,7,0001-00-0000-60.png,0002-00-0000-99.png
00000014,171,1,1449590130286,1449590130725,329,465,0,0,0,1,2,1,3,0004-00-0001-35.png,0003-00-0000-46.png
00000014,172,0,1449590131758,1449590132181,365,450,0,0,0,2,1,1,3,0003-00-0000-97.png,0004-00-0000-51.png
00000014,173,0,1449590135227,1449590135610,965,423,0,0,0,3,4,1,7,0002-00-0001-39.png,0001-00-0000-70.png
00000014,174,0,1449590138625,1449590139078,965,449,0,0,0,0,1,1,1,0005-00-0000-10.png,0004-00-0001-82.png
00000014,175,1,1449590143415,1449590143773,925,387,0,0,0,1,0,1,1,0004-00-0001-39.png,0005-00-0000-04.png
00000014,176,0,1449590144756,1449590145209,927,450,0,0,0,2,3,1,5,0003-00-0000-83.png,0002-00-0000-95.png
00000014,177,0,1449590149504,1449590149921,957,499,0,0,0,1,2,1,3,0004-00-0001-39.png,0003-00-0000-02.png
00000014,178,1,1449590156610,1449590156994,1011,499,0,0,0,4,3,1,7,0001-00-0000-24.png,0002-00-0001-31.png
00000014,179,0,1449590157883,1449590158346,882,540,0,0,0,2,3,1,5,0003-00-0000-02.png,0002-00-0000-82.png
00000014,180,1,1449590161707,1449590162204,320,419,0,0,0,0,1,1,1,0005-00-0000-32.png,0004-00-0000-58.png
00000014,181,1,1449590163099,1449590163599,403,460,0,0,0,3,4,1,7,0002-00-0001-70.png,0001-00-0001-22.png
00000014,182,1,1449590164638,1449590165177,928,516,0,0,0,1,0,1,1,0004-00-0000-71.png,0005-00-0000-69.png
00000014,183,1,1449590166149,1449590166663,900,488,0,0,0,2,1,1,3,0003-00-0001-23.png,0004-00-0000-90.png
00000014,184,0,1449590167650,1449590168511,405,545,0,0,0,3,2,1,5,0002-00-0001-30.png,0003-00-0001-24.png
00000014,185,1,1449590173782,1449590174223,953,466,0,0,0,3,2,1,5,0002-00-0001-58.png,0003-00-0000-74.png
00000014,186,0,1449590175153,1449590175741,944,509,0,0,0,2,3,1,5,0003-00-0000-20.png,0002-00-0001-58.png
00000014,187,0,1449590179297,1449590179702,965,468,0,0,0,1,2,1,3,0004-00-0000-51.png,0003-00-0001-05.png
00000014,188,1,1449590182613,1449590183292,389,408,0,0,0,0,1,1,1,0005-00-0000-00.png,0004-00-0001-27.png
00000014,189,0,1449590184206,1449590184743,907,500,0,0,0,3,4,1,7,0002-00-0000-97.png,0001-00-0000-49.png
00000014,190,1,1449590187786,1449590188249,951,463,0,0,0,1,0,1,1,0004-00-0001-59.png,0005-00-0001-32.png
00000014,191,1,1449590189158,1449590189721,923,482,0,0,0,4,3,1,7,0001-00-0000-55.png,0002-00-0001-53.png
00000014,192,1,1449590190827,1449590191259,875,437,0,0,0,2,1,1,3,0003-00-0000-06.png,0004-00-0000-06.png
00000014,193,0,1449590192460,1449590192852,382,466,0,0,0,4,3,1,7,0001-00-0001-08.png,0002-00-0001-89.png
00000014,194,0,1449590196057,1449590196480,901,539,0,0,0,2,3,1,5,0003-00-0000-16.png,0002-00-0000-78.png
00000014,195,0,1449590199514,1449590199948,951,449,0,0,0,3,4,1,7,0002-00-0000-93.png,0001-00-0000-52.png
00000014,196,1,1449590203174,1449590203625,900,540,0,0,0,3,2,1,5,0002-00-0000-26.png,0003-00-0000-85.png
00000014,197,1,1449590204643,1449590205183,919,492,0,0,0,2,1,1,3,0003-00-0001-56.png,0004-00-0001-41.png
00000014,198,1,1449590206253,1449590206671,362,456,0,0,0,0,1,1,1,0005-00-0001-83.png,0004-00-0001-49.png
00000014,199,0,1449590207805,1449590208276,914,476,0,0,0,1,2,1,3,0004-00-0001-74.png,0003-00-0001-89.png
00000014,200,0,1449590211303,1449590211333,520,455,0,0,0,1,0,1,1,0004-00-0000-56.png,0005-00-0001-14.png
00000014,201,1,1449590214619,1449590215042,989,405,0,0,0,2,1,1,3,0003-00-0000-37.png,0004-00-0001-19.png
00000014,202,1,1449590216035,1449590216753,891,561,0,0,0,1,0,1,1,0004-00-0001-82.png,0005-00-0001-31.png
00000014,203,1,1449590217782,1449590218180,346,468,0,0,0,1,2,1,3,0004-00-0000-22.png,0003-00-0000-18.png
00000014,204,0,1449590219234,1449590219805,900,489,0,0,0,2,3,1,5,0003-00-0000-97.png,0002-00-0001-39.png
00000014,205,1,1449590223050,1449590223617,370,447,0,0,0,3,4,1,7,0002-00-0000-55.png,0001-00-0001-03.png
00000014,206,1,1449590224600,1449590225260,916,436,0,0,0,3,2,1,5,0002-00-0001-99.png,0003-00-0000-29.png
00000014,207,0,1449590226341,1449590226744,339,475,0,0,0,4,3,1,7,0001-00-0000-65.png,0002-00-0001-07.png
00000014,208,0,1449590230347,1449590230802,975,483,0,0,0,0,1,1,1,0005-00-0001-61.png,0004-00-0001-15.png
00000014,209,0,1449590233718,1449590234172,915,547,0,0,0,2,3,1,5,0003-00-0000-53.png,0002-00-0001-83.png
00000014,210,1,1449590237036,1449590237431,975,404,0,0,0,2,1,1,3,0003-00-0000-70.png,0004-00-0000-38.png
00000014,211,0,1449590238335,1449590239074,947,498,0,0,0,1,2,1,3,0004-00-0000-17.png,0003-00-0000-56.png
00000014,212,1,1449590242253,1449590242689,991,475,0,0,0,3,2,1,5,0002-00-0000-24.png,0003-00-0001-99.png
00000014,213,1,1449590243629,1449590244167,371,437,0,0,0,0,1,1,1,0005-00-0001-02.png,0004-00-0000-86.png
00000014,214,0,1449590245238,1449590245646,346,478,0,0,0,4,3,1,7,0001-00-0001-05.png,0002-00-0000-77.png
00000014,215,1,1449590248665,1449590249141,958,454,0,0,0,1,0,1,1,0004-00-0001-89.png,0005-00-0001-94.png
00000014,216,1,1449590250080,1449590250976,437,508,0,0,0,3,4,1,7,0002-00-0000-25.png,0001-00-0000-81.png
00000014,217,0,1449590251994,1449590252404,369,481,0,0,0,4,3,1,7,0001-00-0001-57.png,0002-00-0001-61.png
00000014,218,0,1449590255819,1449590256253,907,439,0,0,0,3,4,1,7,0002-00-0001-67.png,0001-00-0001-82.png
00000014,219,0,1449590260608,1449590260997,950,465,0,0,0,1,2,1,3,0004-00-0001-82.png,0003-00-0001-21.png
00000014,220,1,1449590263940,1449590264381,972,465,0,0,0,1,0,1,1,0004-00-0000-98.png,0005-00-0001-30.png
00000014,221,1,1449590265310,1449590265764,386,440,0,0,0,2,3,1,5,0003-00-0000-74.png,0002-00-0001-83.png
00000014,222,1,1449590266973,1449590267402,356,449,0,0,0,0,1,1,1,0005-00-0001-00.png,0004-00-0000-17.png
00000014,223,1,1449590269106,1449590269527,914,475,0,0,0,2,1,1,3,0003-00-0001-81.png,0004-00-0001-42.png
00000014,224,0,1449590270618,1449590271002,391,479,0,0,0,3,2,1,5,0002-00-0001-73.png,0003-00-0001-10.png
00000014,225,1,1449590273845,1449590274366,977,451,0,0,0,4,3,1,7,0001-00-0001-18.png,0002-00-0001-02.png
00000014,226,0,1449590275360,1449590275955,919,481,0,0,0,1,2,1,3,0004-00-0000-85.png,0003-00-0000-03.png
00000014,227,0,1449590279544,1449590280009,900,449,0,0,0,3,4,1,7,0002-00-0001-85.png,0001-00-0000-64.png
00000014,228,0,1449590283122,1449590283554,976,464,0,0,0,2,3,1,5,0003-00-0001-73.png,0002-00-0000-76.png
00000014,229,1,1449590286436,1449590286928,363,449,0,0,0,0,1,1,1,0005-00-0000-64.png,0004-00-0000-44.png
00000014,230,0,1449590287853,1449590288304,361,453,0,0,0,3,2,1,5,0002-00-0000-65.png,0003-00-0001-86.png
00000014,231,1,1449590291222,1449590291654,978,461,0,0,0,2,1,1,3,0003-00-0000-83.png,0004-00-0001-49.png
00000014,232,1,1449590292644,1449590293198,917,486,0,0,0,1,0,1,1,0004-00-0000-06.png,0005-00-0001-75.png
00000014,233,0,1449590294326,1449590294818,913,475,0,0,0,3,4,1,7,0002-00-0001-40.png,0001-00-0000-10.png
00000014,234,0,1449590297972,1449590298429,959,497,0,0,0,1,2,1,3,0004-00-0000-37.png,0003-00-0000-13.png
00000014,235,0,1449590301496,1449590302009,977,478,0,0,0,0,1,1,1,0005-00-0001-03.png,0004-00-0001-97.png
00000014,236,1,1449590305256,1449590305668,977,462,0,0,0,3,2,1,5,0002-00-0001-54.png,0003-00-0001-93.png
00000014,237,1,1449590306707,1449590307220,941,467,0,0,0,2,1,1,3,0003-00-0000-19.png,0004-00-0000-53.png
00000014,238,1,1449590308369,1449590309130,894,561,0,0,0,1,0,1,1,0004-00-0000-53.png,0005-00-0000-52.png
00000014,239,0,1449590310125,1449590310621,895,480,0,0,0,2,3,1,5,0003-00-0001-05.png,0002-00-0000-08.png
00000014,240,1,1449590313694,1449590314091,986,438,0,0,0,4,3,1,7,0001-00-0000-63.png,0002-00-0000-64.png
00000014,241,1,1449590315048,1449590315632,900,489,0,0,0,4,3,1,7,0001-00-0000-52.png,0002-00-0000-44.png
00000014,242,1,1449590316697,1449590317263,927,477,0,0,0,1,0,1,1,0004-00-0001-40.png,0005-00-0000-85.png
00000014,243,0,1449590318367,1449590318883,923,459,0,0,0,2,3,1,5,0003-00-0001-42.png,0002-00-0001-12.png
00000014,244,1,1449590321851,1449590322302,963,450,0,0,0,3,2,1,5,0002-00-0001-35.png,0003-00-0000-57.png
00000014,245,1,1449590323256,1449590323678,340,453,0,0,0,0,1,1,1,0005-00-0001-53.png,0004-00-0000-94.png
00000014,246,1,1449590324818,1449590325287,373,432,0,0,0,1,2,1,3,0004-00-0001-13.png,0003-00-0000-68.png
00000014,247,1,1449590326625,1449590327112,901,477,0,0,0,2,1,1,3,0003-00-0001-49.png,0004-00-0001-43.png
00000014,248,1,1449590328287,1449590328679,350,503,0,0,0,3,4,1,7,0002-00-0001-58.png,0001-00-0001-85.png
00000014,249,1,1449590329788,1449590330165,367,506,0,0,0,0,1,1,1,0005-00-0001-81.png,0004-00-0000-14.png
00000014,250,1,1449590331309,1449590331663,338,476,0,0,0,3,4,1,7,0002-00-0001-34.png,0001-00-0000-61.png
00000014,251,1,1449590332813,1449590333343,892,496,0,0,0,1,0,1,1,0004-00-0000-95.png,0005-00-0000-88.png
00000014,252,1,1449590334450,1449590334984,918,495,0,0,0,2,1,1,3,0003-00-0000-41.png,0004-00-0000-69.png
00000014,253,0,1449590336142,1449590336520,368,480,0,0,0,3,2,1,5,0002-00-0000-11.png,0003-00-0000-80.png
00000014,254,1,1449590340074,1449590340527,968,501,0,0,0,4,3,1,7,0001-00-0000-74.png,0002-00-0000-71.png
00000014,255,0,1449590341496,1449590342029,902,493,0,0,0,2,3,1,5,0003-00-0000-53.png,0002-00-0000-96.png
00000014,256,0,1449590345034,1449590345458,970,461,0,0,0,1,2,1,3,0004-00-0001-29.png,0003-00-0000-01.png
00000014,257,1,1449590348610,1449590349017,969,476,0,0,0,4,3,1,7,0001-00-0000-46.png,0002-00-0001-82.png
00000014,258,0,1449590350004,1449590350541,924,471,0,0,0,1,2,1,3,0004-00-0000-21.png,0003-00-0001-72.png
00000014,259,1,1449590353682,1449590354105,950,484,0,0,0,1,0,1,1,0004-00-0000-94.png,0005-00-0001-92.png
00000014,260,1,1449590355072,1449590355618,898,483,0,0,0,2,1,1,3,0003-00-0001-74.png,0004-00-0000-53.png
00000014,261,1,1449590356706,1449590357085,372,442,0,0,0,0,1,1,1,0005-00-0000-07.png,0004-00-0001-40.png
00000014,262,0,1449590358266,1449590358637,419,481,0,0,0,3,2,1,5,0002-00-0000-93.png,0003-00-0000-85.png
00000014,263,0,1449590361533,1449590361979,951,449,0,0,0,2,3,1,5,0003-00-0001-81.png,0002-00-0000-14.png
00000014,264,0,1449590365072,1449590365493,961,481,0,0,0,3,4,1,7,0002-00-0000-71.png,0001-00-0000-02.png
00000014,265,1,1449590368720,1449590369093,953,442,0,0,0,1,0,1,1,0004-00-0000-99.png,0005-00-0001-81.png
00000014,266,1,1449590370172,1449590370568,406,467,0,0,0,2,3,1,5,0003-00-0000-92.png,0002-00-0001-59.png
00000014,267,0,1449590371662,1449590372277,884,473,0,0,0,1,2,1,3,0004-00-0001-18.png,0003-00-0000-39.png
00000014,268,1,1449590375142,1449590375688,966,468,0,0,0,3,2,1,5,0002-00-0001-56.png,0003-00-0000-10.png
00000014,269,0,1449590376790,1449590377160,382,460,0,0,0,4,3,1,7,0001-00-0001-08.png,0002-00-0000-18.png
00000014,270,0,1449590380140,1449590380562,989,472,0,0,0,0,1,1,1,0005-00-0000-41.png,0004-00-0000-23.png
00000014,271,1,1449590383498,1449590383526,523,470,0,0,0,3,4,1,7,0002-00-0000-03.png,0001-00-0000-58.png
00000014,272,1,1449590384692,1449590385161,900,450,0,0,0,2,1,1,3,0003-00-0000-43.png,0004-00-0000-64.png
00000014,273,0,1449590386343,1449590386733,396,471,0,0,0,3,2,1,5,0002-00-0001-28.png,0003-00-0001-53.png
00000014,274,0,1449590389911,1449590390363,983,473,0,0,0,0,1,1,1,0005-00-0000-40.png,0004-00-0001-86.png
00000014,275,0,1449590393427,1449590393988,977,462,0,0,0,1,2,1,3,0004-00-0000-57.png,0003-00-0000-84.png
00000014,276,0,1449590397029,1449590397432,983,474,0,0,0,3,4,1,7,0002-00-0001-84.png,0001-00-0001-33.png
00000014,277,0,1449590400385,1449590400817,959,474,0,0,0,2,3,1,5,0003-00-0001-91.png,0002-00-0001-91.png
00000014,278,1,1449590403914,1449590404318,947,446,0,0,0,4,3,1,7,0001-00-0001-42.png,0002-00-0000-16.png
00000014,279,1,1449590405234,1449590405859,905,480,0,0,0,1,0,1,1,0004-00-0000-47.png,0005-00-0001-74.png
00000014,280,0,1449590406920,1449590407311,356,487,0,0,0,2,1,1,3,0003-00-0000-91.png,0004-00-0000-69.png
00000014,281,0,1449590410346,1449590410799,966,449,0,0,0,3,4,1,7,0002-00-0001-50.png,0001-00-0001-45.png
00000014,282,1,1449590414101,1449590414564,989,464,0,0,0,4,3,1,7,0001-00-0000-19.png,0002-00-0001-12.png
00000014,283,1,1449590415562,1449590416008,366,429,0,0,0,0,1,1,1,0005-00-0000-70.png,0004-00-0001-81.png
00000014,284,1,1449590417128,1449590418097,935,490,0,0,0,2,1,1,3,0003-00-0001-81.png,0004-00-0001-64.png
00000014,285,1,1449590419111,1449590419491,433,456,0,0,0,2,3,1,5,0003-00-0000-92.png,0002-00-0001-63.png
00000014,286,1,1449590420592,1449590421177,895,497,0,0,0,3,2,1,5,0002-00-0001-62.png,0003-00-0001-35.png
00000014,287,0,1449590422244,1449590422602,435,497,0,0,0,1,0,1,1,0004-00-0000-48.png,0005-00-0000-69.png
00000014,288,0,1449590426696,1449590427125,965,514,0,0,0,1,2,1,3,0004-00-0001-44.png,0003-00-0001-07.png
00000014,289,1,1449590430559,1449590431027,958,525,0,0,0,2,1,1,3,0003-00-0001-44.png,0004-00-0000-83.png
00000014,290,0,1449590432455,1449590432914,355,416,0,0,0,1,0,1,1,0004-00-0000-39.png,0005-00-0000-50.png
00000014,291,1,1449590436127,1449590436155,522,481,0,0,0,2,3,1,5,0003-00-0000-89.png,0002-00-0000-58.png
00000014,292,0,1449590437161,1449590437701,913,476,0,0,0,1,2,1,3,0004-00-0001-71.png,0003-00-0000-89.png
00000014,293,0,1449590441125,1449590441680,960,471,0,0,0,0,1,1,1,0005-00-0001-37.png,0004-00-0000-51.png
00000014,294,1,1449590444616,1449590445154,961,498,0,0,0,4,3,1,7,0001-00-0001-09.png,0002-00-0000-43.png
00000014,295,0,1449590446103,1449590446675,908,500,0,0,0,3,4,1,7,0002-00-0000-81.png,0001-00-0000-14.png
00000014,296,0,1449590449846,1449590450313,466,437,0,0,0,3,2,1,5,0002-00-0000-58.png,0003-00-0001-18.png
00000014,297,0,1449590453448,1449590453897,926,546,0,0,0,3,4,1,7,0002-00-0000-22.png,0001-00-0001-31.png
00000014,298,0,1449590457197,1449590457644,983,499,0,0,0,2,3,1,5,0003-00-0001-23.png,0002-00-0001-21.png
00000014,299,1,1449590460637,1449590460997,1003,488,0,0,0,1,0,1,1,0004-00-0000-02.png,0005-00-0000-32.png
00000014,300,1,1449590462374,1449590462845,338,423,0,0,0,1,2,1,3,0004-00-0000-76.png,0003-00-0001-06.png
00000014,301,1,1449590463869,1449590464381,921,473,0,0,0,4,3,1,7,0001-00-0001-51.png,0002-00-0001-62.png
00000014,302,0,1449590465437,1449590465795,401,477,0,0,0,3,2,1,5,0002-00-0000-36.png,0003-00-0000-83.png
00000014,303,1,1449590469235,1449590469624,949,482,0,0,0,2,1,1,3,0003-00-0001-75.png,0004-00-0000-61.png
00000014,304,1,1449590470579,1449590470973,401,462,0,0,0,0,1,1,1,0005-00-0000-41.png,0004-00-0000-00.png
00000014,305,1,1449590472126,1449590472668,908,500,0,0,0,3,2,1,5,0002-00-0000-73.png,0003-00-0000-84.png
00000014,306,1,1449590473727,1449590474098,415,477,0,0,0,1,2,1,3,0004-00-0000-56.png,0003-00-0000-88.png
00000014,307,0,1449590475199,1449590475632,371,463,0,0,0,4,3,1,7,0001-00-0000-54.png,0002-00-0000-80.png
00000014,308,1,1449590478814,1449590479222,964,449,0,0,0,1,0,1,1,0004-00-0001-37.png,0005-00-0000-82.png
00000014,309,1,1449590480126,1449590480549,427,436,0,0,0,3,4,1,7,0002-00-0000-65.png,0001-00-0001-50.png
00000014,310,1,1449590481628,1449590482021,389,469,0,0,0,0,1,1,1,0005-00-0001-97.png,0004-00-0000-67.png
00000014,311,1,1449590483129,1449590483646,901,476,0,0,0,2,1,1,3,0003-00-0000-72.png,0004-00-0001-33.png
00000014,312,1,1449590484710,1449590485051,413,475,0,0,0,2,3,1,5,0003-00-0001-37.png,0002-00-0001-43.png
00000014,313,0,1449590486090,1449590486503,383,498,0,0,0,4,3,1,7,0001-00-0000-30.png,0002-00-0001-44.png
00000014,314,0,1449590490140,1449590490529,974,483,0,0,0,0,1,1,1,0005-00-0000-78.png,0004-00-0000-92.png
00000014,315,1,1449590494689,1449590495093,927,462,0,0,0,3,2,1,5,0002-00-0001-02.png,0003-00-0000-98.png
00000014,316,1,1449590496143,1449590496680,381,541,0,0,0,3,4,1,7,0002-00-0000-39.png,0001-00-0001-05.png
00000014,317,0,1449590497849,1449590498364,867,558,0,0,0,2,3,1,5,0003-00-0000-95.png,0002-00-0000-78.png
00000014,318,1,1449590501319,1449590501769,999,446,0,0,0,2,1,1,3,0003-00-0000-04.png,0004-00-0000-87.png
00000014,319,1,1449590502768,1449590503212,350,450,0,0,0,1,2,1,3,0004-00-0000-59.png,0003-00-0001-37.png
00000014,320,1,1449590504450,1449590504903,922,497,0,0,0,1,0,1,1,0004-00-0000-48.png,0005-00-0000-25.png
00000014,321,1,1449590506256,1449590506840,901,501,0,0,0,2,1,1,3,0003-00-0000-56.png,0004-00-0001-57.png
00000014,322,0,1449590507788,1449590508154,395,489,0,0,0,1,0,1,1,0004-00-0000-53.png,0005-00-0000-89.png
00000014,323,0,1449590511780,1449590512298,385,473,0,0,0,4,3,1,7,0001-00-0001-28.png,0002-00-0001-61.png
00000014,324,0,1449590515469,1449590515865,936,462,0,0,0,0,1,1,1,0005-00-0001-47.png,0004-00-0001-18.png
00000014,325,0,1449590518868,1449590519348,900,440,0,0,0,2,3,1,5,0003-00-0001-10.png,0002-00-0001-22.png
00000014,326,0,1449590522535,1449590522960,981,466,0,0,0,3,4,1,7,0002-00-0001-00.png,0001-00-0001-47.png
00000014,327,0,1449590525809,1449590525853,489,513,0,0,0,3,2,1,5,0002-00-0000-57.png,0003-00-0001-94.png
00000014,328,0,1449590528950,1449590529361,964,423,0,0,0,1,2,1,3,0004-00-0000-51.png,0003-00-0000-96.png
00000014,329,1,1449590532492,1449590533147,473,393,0,0,0,0,1,1,1,0005-00-0000-48.png,0004-00-0000-16.png
00000014,330,0,1449590534232,1449590534867,926,461,0,0,0,3,4,1,7,0002-00-0001-37.png,0001-00-0000-67.png
00000014,331,1,1449590538111,1449590538633,427,462,0,0,0,1,2,1,3,0004-00-0000-77.png,0003-00-0000-62.png
00000014,332,0,1449590539650,1449590540011,354,479,0,0,0,3,2,1,5,0002-00-0001-97.png,0003-00-0001-39.png
00000014,333,0,1449590542970,1449590542990,497,480,0,0,0,2,1,1,3,0003-00-0000-99.png,0004-00-0000-89.png
00000014,334,0,1449590545951,1449590546379,981,480,0,0,0,2,3,1,5,0003-00-0000-23.png,0002-00-0000-93.png
00000014,335,0,1449590549565,1449590550101,392,414,0,0,0,4,3,1,7,0001-00-0001-76.png,0002-00-0001-17.png
00000014,336,0,1449590553089,1449590553612,381,499,0,0,0,1,0,1,1,0004-00-0001-35.png,0005-00-0001-38.png
00000014,337,1,1449590556465,1449590556884,925,515,0,0,0,3,2,1,5,0002-00-0000-88.png,0003-00-0000-89.png
00000014,338,1,1449590557871,1449590558469,923,483,0,0,0,4,3,1,7,0001-00-0001-33.png,0002-00-0000-66.png
00000014,339,1,1449590559478,1449590559891,333,483,0,0,0,0,1,1,1,0005-00-0001-40.png,0004-00-0001-43.png
00000014,340,0,1449590560990,1449590561536,912,502,0,0,0,2,3,1,5,0003-00-0000-45.png,0002-00-0000-34.png
00000014,341,1,1449590564517,1449590564995,899,438,0,0,0,1,0,1,1,0004-00-0001-61.png,0005-00-0000-21.png
00000014,342,0,1449590565939,1449590566472,901,476,0,0,0,1,2,1,3,0004-00-0000-44.png,0003-00-0001-30.png
00000014,343,0,1449590569585,1449590570020,1002,488,0,0,0,3,4,1,7,0002-00-0000-52.png,0001-00-0000-37.png
00000014,344,1,1449590573084,1449590573546,968,470,0,0,0,2,1,1,3,0003-00-0000-09.png,0004-00-0000-63.png
00000014,345,0,1449590574468,1449590574953,391,477,0,0,0,4,3,1,7,0001-00-0001-79.png,0002-00-0001-65.png
00000014,346,0,1449590577995,1449590578395,904,444,0,0,0,3,4,1,7,0002-00-0000-23.png,0001-00-0000-98.png
00000014,347,0,1449590582487,1449590582902,922,558,0,0,0,1,2,1,3,0004-00-0000-16.png,0003-00-0000-85.png
00000014,348,1,1449590586381,1449590586842,983,499,0,0,0,2,1,1,3,0003-00-0000-01.png,0004-00-0000-94.png
00000014,349,1,1449590587784,1449590588336,911,488,0,0,0,1,0,1,1,0004-00-0000-57.png,0005-00-0000-21.png
00000014,350,1,1449590589291,1449590589704,369,487,0,0,0,0,1,1,1,0005-00-0001-73.png,0004-00-0000-38.png
00000014,351,1,1449590590761,1449590591169,445,479,0,0,0,2,3,1,5,0003-00-0000-17.png,0002-00-0000-93.png
00000014,352,0,1449590592278,1449590593166,401,516,0,0,0,3,2,1,5,0002-00-0001-78.png,0003-00-0001-17.png
00000014,353,1,1449590601416,1449590601805,1028,465,0,0,0,1,0,1,1,0004-00-0000-48.png,0005-00-0000-41.png
00000014,354,1,1449590602719,1449590603149,397,475,0,0,0,1,2,1,3,0004-00-0000-52.png,0003-00-0000-55.png
00000014,355,0,1449590604182,1449590604718,900,489,0,0,0,2,3,1,5,0003-00-0001-65.png,0002-00-0000-34.png
00000014,356,0,1449590608095,1449590608511,979,518,0,0,0,0,1,1,1,0005-00-0001-34.png,0004-00-0000-46.png
00000014,357,0,1449590611604,1449590612090,982,526,0,0,0,3,4,1,7,0002-00-0001-03.png,0001-00-0000-78.png
00000014,358,1,1449590615148,1449590615522,976,431,0,0,0,3,2,1,5,0002-00-0001-49.png,0003-00-0001-81.png
00000014,359,1,1449590616472,1449590617080,901,476,0,0,0,4,3,1,7,0001-00-0001-02.png,0002-00-0001-59.png
00000014,360,1,1449590618033,1449590618517,874,484,0,0,0,2,1,1,3,0003-00-0000-18.png,0004-00-0001-39.png
00000014,361,1,1449590619505,1449590619886,325,464,0,0,0,0,1,1,1,0005-00-0001-23.png,0004-00-0000-05.png
00000014,362,1,1449590620973,1449590621578,922,497,0,0,0,1,0,1,1,0004-00-0000-22.png,0005-00-0001-75.png
00000014,363,0,1449590622547,1449590623117,875,463,0,0,0,3,4,1,7,0002-00-0000-85.png,0001-00-0000-10.png
00000014,364,1,1449590626189,1449590626593,981,480,0,0,0,3,2,1,5,0002-00-0001-36.png,0003-00-0000-82.png
00000014,365,1,1449590627565,1449590628109,900,475,0,0,0,4,3,1,7,0001-00-0000-78.png,0002-00-0001-99.png
00000014,366,0,1449590629236,1449590629727,873,483,0,0,0,1,2,1,3,0004-00-0001-44.png,0003-00-0001-98.png
00000014,367,0,1449590632662,1449590633119,960,474,0,0,0,2,3,1,5,0003-00-0001-76.png,0002-00-0000-66.png
00000014,368,1,1449590636350,1449590636785,951,475,0,0,0,2,1,1,3,0003-00-0000-56.png,0004-00-0000-51.png
00000014,369,1,1449590637735,1449590638548,925,483,0,0,0,4,3,1,7,0001-00-0000-50.png,0002-00-0000-08.png
00000014,370,1,1449590639561,1449590640148,900,490,0,0,0,3,2,1,5,0002-00-0000-48.png,0003-00-0001-59.png
00000014,371,1,1449590641262,1449590641794,915,480,0,0,0,2,1,1,3,0003-00-0000-32.png,0004-00-0001-46.png
00000014,372,1,1449590642822,1449590643356,872,479,0,0,0,1,0,1,1,0004-00-0000-42.png,0005-00-0001-46.png
00000014,373,0,1449590644451,1449590644983,874,489,0,0,0,1,2,1,3,0004-00-0001-19.png,0003-00-0001-99.png
00000014,374,0,1449590647999,1449590648426,945,468,0,0,0,3,4,1,7,0002-00-0001-62.png,0001-00-0000-45.png
00000014,375,1,1449590651341,1449590651939,436,436,0,0,0,0,1,1,1,0005-00-0001-90.png,0004-00-0000-98.png
00000014,376,1,1449590653018,1449590653664,415,435,0,0,0,2,3,1,5,0003-00-0001-92.png,0002-00-0001-65.png
00000014,377,0,1449590654689,1449590655049,338,495,0,0,0,4,3,1,7,0001-00-0000-45.png,0002-00-0000-58.png
00000014,378,0,1449590657980,1449590658443,957,421,0,0,0,2,3,1,5,0003-00-0001-80.png,0002-00-0001-17.png
00000014,379,0,1449590661426,1449590661914,951,449,0,0,0,3,4,1,7,0002-00-0000-01.png,0001-00-0000-02.png
00000014,380,1,1449590664994,1449590665398,972,445,0,0,0,3,2,1,5,0002-00-0000-79.png,0003-00-0001-67.png
00000014,381,1,1449590666361,1449590667070,924,470,0,0,0,2,1,1,3,0003-00-0001-77.png,0004-00-0000-38.png
00000014,382,0,1449590668055,1449590668860,888,450,0,0,0,0,1,1,1,0005-00-0000-97.png,0004-00-0000-10.png
00000014,383,0,1449590671943,1449590672398,891,453,0,0,0,1,2,1,3,0004-00-0001-09.png,0003-00-0000-51.png
00000014,384,1,1449590675674,1449590676108,990,450,0,0,0,1,0,1,1,0004-00-0001-30.png,0005-00-0001-73.png
00000014,385,0,1449590677059,1449590677627,924,483,0,0,0,3,4,1,7,0002-00-0000-10.png,0001-00-0001-37.png
00000014,386,0,1449590680518,1449590680989,952,436,0,0,0,1,2,1,3,0004-00-0001-55.png,0003-00-0000-67.png
00000014,387,1,1449590683889,1449590684336,951,436,0,0,0,3,2,1,5,0002-00-0001-63.png,0003-00-0000-38.png
00000014,388,1,1449590685341,1449590686081,925,491,0,0,0,2,1,1,3,0003-00-0000-41.png,0004-00-0001-17.png
00000014,389,0,1449590687164,1449590687581,350,501,0,0,0,1,0,1,1,0004-00-0001-25.png,0005-00-0001-93.png
00000014,390,0,1449590690603,1449590691043,978,461,0,0,0,0,1,1,1,0005-00-0001-54.png,0004-00-0001-96.png
00000014,391,1,1449590694205,1449590694559,977,437,0,0,0,4,3,1,7,0001-00-0001-28.png,0002-00-0000-26.png
00000014,392,1,1449590695560,1449590696052,364,456,0,0,0,2,3,1,5,0003-00-0001-70.png,0002-00-0001-49.png
00000014,393,0,1449590697246,1449590697682,411,501,0,0,0,3,2,1,5,0002-00-0000-30.png,0003-00-0001-39.png
00000014,394,0,1449590700924,1449590701372,970,451,0,0,0,0,1,1,1,0005-00-0000-16.png,0004-00-0001-96.png
00000014,395,0,1449590704534,1449590704978,973,445,0,0,0,2,3,1,5,0003-00-0000-81.png,0002-00-0000-87.png
00000014,396,1,1449590708711,1449590709133,970,452,0,0,0,1,0,1,1,0004-00-0001-06.png,0005-00-0001-03.png
00000014,397,0,1449590710067,1449590710680,901,464,0,0,0,3,4,1,7,0002-00-0000-01.png,0001-00-0001-69.png
00000014,398,1,1449590713795,1449590714218,901,540,0,0,0,2,1,1,3,0003-00-0000-98.png,0004-00-0000-16.png
00000014,399,0,1449590715199,1449590715758,925,491,0,0,0,1,2,1,3,0004-00-0001-42.png,0003-00-0000-70.png
00000014,400,1,1449590718722,1449590719165,940,465,0,0,0,4,3,1,7,0001-00-0001-56.png,0002-00-0001-01.png
00000014,401,1,1449590720137,1449590721040,444,402,0,0,0,1,2,1,3,0004-00-0001-72.png,0003-00-0000-27.png
00000014,402,0,1449590722184,1449590722694,874,491,0,0,0,3,4,1,7,0002-00-0000-12.png,0001-00-0000-10.png
00000014,403,0,1449590725643,1449590726076,906,422,0,0,0,2,3,1,5,0003-00-0001-10.png,0002-00-0000-92.png
00000014,404,1,1449590728939,1449590729379,977,411,0,0,0,2,1,1,3,0003-00-0000-34.png,0004-00-0001-65.png
00000014,405,1,1449590730335,1449590730917,905,507,0,0,0,3,2,1,5,0002-00-0001-03.png,0003-00-0000-71.png
00000014,406,1,1449590731944,1449590732359,349,486,0,0,0,0,1,1,1,0005-00-0001-55.png,0004-00-0001-39.png
00000014,407,0,1449590733474,1449590733955,374,480,0,0,0,4,3,1,7,0001-00-0000-00.png,0002-00-0000-42.png
00000014,408,1,1449590737529,1449590737963,872,462,0,0,0,1,0,1,1,0004-00-0000-87.png,0005-00-0001-83.png
00000014,409,1,1449590738970,1449590739517,899,501,0,0,0,1,0,1,1,0004-00-0001-33.png,0005-00-0000-89.png
00000014,410,1,1449590740610,1449590741130,888,475,0,0,0,2,1,1,3,0003-00-0001-69.png,0004-00-0000-16.png
00000014,411,0,1449590742302,1449590742780,396,557,0,0,0,4,3,1,7,0001-00-0001-22.png,0002-00-0001-93.png
00000014,412,1,1449590745723,1449590746260,413,436,0,0,0,1,2,1,3,0004-00-0001-63.png,0003-00-0000-95.png
00000014,413,0,1449590747271,1449590747824,896,472,0,0,0,3,4,1,7,0002-00-0001-38.png,0001-00-0001-72.png
00000014,414,1,1449590751110,1449590751666,360,414,0,0,0,0,1,1,1,0005-00-0001-89.png,0004-00-0001-80.png
00000014,415,0,1449590752737,1449590753300,919,482,0,0,0,2,3,1,5,0003-00-0000-47.png,0002-00-0001-00.png
00000014,416,1,1449590756459,1449590757145,932,450,0,0,0,3,2,1,5,0002-00-0001-83.png,0003-00-0000-07.png
00000014,417,1,1449590758134,1449590758655,905,480,0,0,0,2,1,1,3,0003-00-0001-16.png,0004-00-0000-79.png
00000014,418,0,1449590759715,1449590760057,340,456,0,0,0,1,0,1,1,0004-00-0001-57.png,0005-00-0000-32.png
00000014,419,0,1449590762913,1449590763489,414,528,0,0,0,4,3,1,7,0001-00-0001-08.png,0002-00-0000-29.png
00000014,420,0,1449590766978,1449590767377,977,476,0,0,0,2,3,1,5,0003-00-0000-10.png,0002-00-0000-70.png
00000014,421,1,1449590770480,1449590771011,879,444,0,0,0,3,2,1,5,0002-00-0000-12.png,0003-00-0000-24.png
00000014,422,1,1449590771973,1449590772437,401,461,0,0,0,0,1,1,1,0005-00-0001-91.png,0004-00-0001-49.png
00000014,423,0,1449590773551,1449590774211,867,556,0,0,0,1,2,1,3,0004-00-0000-61.png,0003-00-0000-72.png
00000014,424,0,1449590777116,1449590777548,977,436,0,0,0,3,4,1,7,0002-00-0001-85.png,0001-00-0000-37.png
00000014,425,1,1449590780646,1449590781206,362,426,0,0,0,0,1,1,1,0005-00-0001-54.png,0004-00-0000-88.png
00000014,426,0,1449590782264,1449590783011,908,499,0,0,0,3,4,1,7,0002-00-0000-68.png,0001-00-0000-60.png
00000014,427,0,1449590785953,1449590786366,975,483,0,0,0,1,2,1,3,0004-00-0000-14.png,0003-00-0001-82.png
00000014,428,0,1449590789536,1449590789959,970,451,0,0,0,2,3,1,5,0003-00-0000-91.png,0002-00-0000-28.png
00000014,429,1,1449590792981,1449590793446,951,449,0,0,0,3,2,1,5,0002-00-0000-15.png,0003-00-0000-01.png
00000014,430,1,1449590794372,1449590794980,899,501,0,0,0,2,1,1,3,0003-00-0000-34.png,0004-00-0000-94.png
00000014,431,0,1449590796109,1449590796536,378,467,0,0,0,4,3,1,7,0001-00-0000-23.png,0002-00-0000-88.png
00000014,432,1,1449590799765,1449590800219,959,455,0,0,0,1,0,1,1,0004-00-0000-01.png,0005-00-0000-13.png
00000014,433,1,1449590801119,1449590801835,876,548,0,0,0,3,2,1,5,0002-00-0000-57.png,0003-00-0000-41.png
00000014,434,1,1449590802988,1449590803540,907,474,0,0,0,4,3,1,7,0001-00-0000-16.png,0002-00-0000-17.png
00000014,435,1,1449590805168,1449590805611,896,498,0,0,0,2,1,1,3,0003-00-0001-76.png,0004-00-0000-16.png
00000014,436,0,1449590806555,1449590806907,401,505,0,0,0,1,0,1,1,0004-00-0000-52.png,0005-00-0000-57.png
00000014,437,1,1449590810042,1449590810527,401,436,0,0,0,0,1,1,1,0005-00-0000-80.png,0004-00-0001-34.png
00000014,438,0,1449590811556,1449590812130,903,493,0,0,0,2,3,1,5,0003-00-0000-50.png,0002-00-0001-67.png
00000014,439,1,1449590815003,1449590815031,510,495,0,0,0,3,4,1,7,0002-00-0001-96.png,0001-00-0000-67.png
00000014,440,1,1449590816189,1449590816690,382,458,0,0,0,1,2,1,3,0004-00-0001-18.png,0003-00-0001-09.png
00000014,441,0,1449590817905,1449590818451,900,488,0,0,0,2,3,1,5,0003-00-0000-54.png,0002-00-0000-28.png
00000014,442,1,1449590821659,1449590822082,960,489,0,0,0,4,3,1,7,0001-00-0001-65.png,0002-00-0001-22.png
00000014,443,0,1449590823062,1449590823484,364,472,0,0,0,1,0,1,1,0004-00-0001-86.png,0005-00-0000-71.png
00000014,444,0,1449590826503,1449590826982,928,519,0,0,0,3,4,1,7,0002-00-0001-82.png,0001-00-0000-73.png
00000014,445,1,1449590829809,1449590830203,982,428,0,0,0,2,1,1,3,0003-00-0001-50.png,0004-00-0001-59.png
00000014,446,1,1449590831195,1449590831692,338,475,0,0,0,1,2,1,3,0004-00-0001-55.png,0003-00-0000-98.png
00000014,447,1,1449590832822,1449590833223,352,441,0,0,0,0,1,1,1,0005-00-0001-27.png,0004-00-0000-69.png
00000014,448,0,1449590834405,1449590834948,401,488,0,0,0,3,2,1,5,0002-00-0000-39.png,0003-00-0000-06.png
00000014,449,0,1449590838080,1449590838523,959,448,0,0,0,2,3,1,5,0003-00-0000-39.png,0002-00-0001-09.png
00000014,450,0,1449590841697,1449590842107,975,432,0,0,0,3,4,1,7,0002-00-0001-69.png,0001-00-0000-65.png
00000014,451,0,1449590845504,1449590846135,940,423,0,0,0,1,2,1,3,0004-00-0001-18.png,0003-00-0001-18.png
00000014,452,1,1449590849195,1449590849650,973,446,0,0,0,2,1,1,3,0003-00-0000-26.png,0004-00-0000-41.png
00000014,453,1,1449590850673,1449590851195,367,437,0,0,0,0,1,1,1,0005-00-0000-49.png,0004-00-0001-11.png
00000014,454,1,1449590852353,1449590853374,924,457,0,0,0,4,3,1,7,0001-00-0001-24.png,0002-00-0000-89.png
00000014,455,0,1449590854388,1449590854828,350,410,0,0,0,1,0,1,1,0004-00-0000-90.png,0005-00-0000-54.png
00000014,456,1,1449590858287,1449590858948,967,422,0,0,0,3,2,1,5,0002-00-0000-23.png,0003-00-0001-51.png
00000014,457,1,1449590860029,1449590860600,915,475,0,0,0,4,3,1,7,0001-00-0000-66.png,0002-00-0000-35.png
00000014,458,0,1449590861674,1449590862208,897,482,0,0,0,2,3,1,5,0003-00-0001-77.png,0002-00-0000-12.png
00000014,459,0,1449590865353,1449590865828,975,482,0,0,0,3,4,1,7,0002-00-0001-73.png,0001-00-0001-08.png
00000014,460,0,1449590869140,1449590869605,921,441,0,0,0,0,1,1,1,0005-00-0001-38.png,0004-00-0000-08.png
00000014,461,1,1449590872548,1449590872981,926,528,0,0,0,1,0,1,1,0004-00-0001-23.png,0005-00-0000-16.png
00000014,462,1,1449590874062,1449590874501,925,449,0,0,0,2,1,1,3,0003-00-0000-41.png,0004-00-0000-83.png
00000014,463,1,1449590875569,1449590876130,870,446,0,0,0,3,2,1,5,0002-00-0000-78.png,0003-00-0000-93.png
00000014,464,0,1449590877172,1449590877687,875,463,0,0,0,1,2,1,3,0004-00-0001-81.png,0003-00-0000-33.png
00000014,465,1,1449590880570,1449590881101,404,429,0,0,0,1,2,1,3,0004-00-0001-77.png,0003-00-0000-61.png
00000014,466,0,1449590882083,1449590882615,899,465,0,0,0,2,3,1,5,0003-00-0001-11.png,0002-00-0000-32.png
00000014,467,1,1449590885489,1449590885974,976,436,0,0,0,4,3,1,7,0001-00-0001-40.png,0002-00-0001-46.png
00000014,468,0,1449590887011,1449590888034,899,463,0,0,0,0,1,1,1,0005-00-0001-59.png,0004-00-0000-33.png
00000014,469,1,1449590890950,1449590891413,951,504,0,0,0,3,2,1,5,0002-00-0001-80.png,0003-00-0000-48.png
00000014,470,0,1449590892408,1449590892986,895,498,0,0,0,3,4,1,7,0002-00-0000-83.png,0001-00-0001-98.png
00000014,471,1,1449590896544,1449590896931,930,506,0,0,0,1,0,1,1,0004-00-0000-57.png,0005-00-0000-49.png
00000014,472,1,1449590897904,1449590898420,913,488,0,0,0,2,1,1,3,0003-00-0001-60.png,0004-00-0001-84.png
00000014,473,1,1449590899537,1449590899999,880,479,0,0,0,2,1,1,3,0003-00-0001-16.png,0004-00-0000-12.png
00000014,474,1,1449590901136,1449590901518,431,566,0,0,0,3,4,1,7,0002-00-0000-26.png,0001-00-0001-02.png
00000014,475,0,1449590903303,1449590903785,369,415,0,0,0,1,0,1,1,0004-00-0000-32.png,0005-00-0000-02.png
00000014,476,0,1449590906741,1449590907236,941,492,0,0,0,2,3,1,5,0003-00-0001-49.png,0002-00-0001-25.png
00000014,477,1,1449590910476,1449590910884,913,561,0,0,0,3,2,1,5,0002-00-0000-88.png,0003-00-0000-02.png
00000014,478,1,1449590911899,1449590912529,862,449,0,0,0,4,3,1,7,0001-00-0001-26.png,0002-00-0001-65.png
00000014,479,1,1449590913640,1449590914114,340,419,0,0,0,1,2,1,3,0004-00-0000-78.png,0003-00-0001-94.png
00000014,480,1,1449590915347,1449590915836,401,410,0,0,0,0,1,1,1,0005-00-0001-45.png,0004-00-0000-27.png
00000014,481,0,1449590917009,1449590917594,912,488,0,0,0,2,3,1,5,0003-00-0000-09.png,0002-00-0001-91.png
00000014,482,1,1449590920585,1449590921119,921,550,0,0,0,2,1,1,3,0003-00-0001-84.png,0004-00-0001-32.png
00000014,483,1,1449590922177,1449590922566,361,472,0,0,0,0,1,1,1,0005-00-0000-80.png,0004-00-0000-53.png
00000014,484,1,1449590923716,1449590924228,875,476,0,0,0,1,0,1,1,0004-00-0001-99.png,0005-00-0001-76.png
00000014,485,1,1449590925330,1449590925711,376,514,0,0,0,1,2,1,3,0004-00-0001-31.png,0003-00-0000-01.png
00000014,486,1,1449590926991,1449590927500,893,507,0,0,0,3,2,1,5,0002-00-0000-93.png,0003-00-0001-69.png
00000014,487,1,1449590929155,1449590929749,899,475,0,0,0,4,3,1,7,0001-00-0001-21.png,0002-00-0001-94.png
00000014,488,0,1449590930762,1449590931256,861,476,0,0,0,3,4,1,7,0002-00-0000-48.png,0001-00-0000-54.png
00000014,489,1,1449590934430,1449590935033,416,442,0,0,0,3,4,1,7,0002-00-0001-31.png,0001-00-0001-58.png
00000014,490,0,1449590936153,1449590936615,366,472,0,0,0,1,0,1,1,0004-00-0000-07.png,0005-00-0001-56.png
00000014,491,0,1449590939490,1449590939993,358,427,0,0,0,3,2,1,5,0002-00-0001-73.png,0003-00-0000-72.png
00000014,492,1,1449590942976,1449590943494,896,441,0,0,0,4,3,1,7,0001-00-0000-29.png,0002-00-0001-99.png
00000014,493,1,1449590944480,1449590944968,365,430,0,0,0,0,1,1,1,0005-00-0000-20.png,0004-00-0000-88.png
00000014,494,0,1449590946093,1449590946693,885,501,0,0,0,1,2,1,3,0004-00-0000-62.png,0003-00-0000-99.png
00000014,495,0,1449590949747,1449590950218,978,469,0,0,0,2,3,1,5,0003-00-0000-62.png,0002-00-0000-77.png
00000014,496,1,1449590953363,1449590953778,954,465,0,0,0,2,1,1,3,0003-00-0001-59.png,0004-00-0000-83.png
00000014,497,1,1449590954758,1449590955230,361,446,0,0,0,0,1,1,1,0005-00-0001-44.png,0004-00-0000-70.png
00000014,498,0,1449590956375,1449590956872,880,480,0,0,0,1,2,1,3,0004-00-0001-79.png,0003-00-0000-53.png
00000014,499,1,1449590960044,1449590960494,901,453,0,0,0,3,2,1,5,0002-00-0001-19.png,0003-00-0001-57.png
00000014,500,1,1449590961567,1449590962561,917,474,0,0,0,1,0,1,1,0004-00-0001-08.png,0005-00-0001-16.png
00000014,501,0,1449590963683,1449590964064,359,449,0,0,0,4,3,1,7,0001-00-0000-62.png,0002-00-0000-37.png
00000014,502,1,1449590967180,1449590968074,963,450,0,0,0,2,1,1,3,0003-00-0001-01.png,0004-00-0000-72.png
00000014,503,0,1449590969059,1449590969598,898,483,0,0,0,2,3,1,5,0003-00-0001-20.png,0002-00-0001-56.png
00000014,504,0,1449590972747,1449590973252,957,469,0,0,0,3,4,1,7,0002-00-0001-12.png,0001-00-0000-79.png
00000014,505,0,1449590976438,1449590976450,522,508,0,0,0,3,2,1,5,0002-00-0001-26.png,0003-00-0001-14.png
00000014,506,1,1449590979694,1449590980122,964,476,0,0,0,1,0,1,1,0004-00-0000-72.png,0005-00-0000-98.png
00000014,507,0,1449590981086,1449590981702,926,488,0,0,0,3,4,1,7,0002-00-0000-07.png,0001-00-0000-53.png
00000014,508,0,1449590984863,1449590985315,939,475,0,0,0,2,3,1,5,0003-00-0001-30.png,0002-00-0001-10.png
00000014,509,0,1449590988331,1449590988817,939,491,0,0,0,1,2,1,3,0004-00-0001-25.png,0003-00-0001-38.png
00000014,510,1,1449590992400,1449590992863,950,484,0,0,0,2,1,1,3,0003-00-0001-73.png,0004-00-0000-70.png
00000014,511,1,1449590993917,1449590994337,368,454,0,0,0,0,1,1,1,0005-00-0001-74.png,0004-00-0001-87.png
00000014,512,0,1449590995512,1449590995922,382,480,0,0,0,4,3,1,7,0001-00-0000-56.png,0002-00-0001-54.png
00000014,513,1,1449590999256,1449590999733,960,497,0,0,0,2,1,1,3,0003-00-0001-85.png,0004-00-0000-63.png
00000014,514,0,1449591000820,1449591001375,904,480,0,0,0,1,2,1,3,0004-00-0000-54.png,0003-00-0000-79.png
00000014,515,0,1449591004594,1449591005039,940,475,0,0,0,2,3,1,5,0003-00-0001-11.png,0002-00-0000-23.png
00000014,516,1,1449591009034,1449591009599,382,393,0,0,0,0,1,1,1,0005-00-0001-65.png,0004-00-0000-93.png
00000014,517,0,1449591010518,1449591010938,409,480,0,0,0,4,3,1,7,0001-00-0000-65.png,0002-00-0001-42.png
00000014,518,1,1449591013943,1449591014351,965,474,0,0,0,1,0,1,1,0004-00-0000-78.png,0005-00-0000-13.png
00000014,519,1,1449591015298,1449591015903,875,464,0,0,0,3,2,1,5,0002-00-0001-44.png,0003-00-0000-93.png
00000014,520,1,1449591017148,1449591017615,346,453,0,0,0,3,4,1,7,0002-00-0000-87.png,0001-00-0001-08.png
00000014,521,1,1449591018845,1449591019339,881,488,0,0,0,3,2,1,5,0002-00-0000-80.png,0003-00-0001-87.png
00000014,522,1,1449591020599,1449591021149,896,474,0,0,0,2,1,1,3,0003-00-0000-12.png,0004-00-0000-16.png
00000014,523,1,1449591022238,1449591022632,344,487,0,0,0,0,1,1,1,0005-00-0001-07.png,0004-00-0000-38.png
00000014,524,0,1449591023856,1449591024386,894,493,0,0,0,1,2,1,3,0004-00-0000-58.png,0003-00-0001-12.png
00000014,525,1,1449591027470,1449591027868,870,419,0,0,0,4,3,1,7,0001-00-0001-43.png,0002-00-0000-81.png
00000014,526,1,1449591029006,1449591030047,447,437,0,0,0,2,3,1,5,0003-00-0000-40.png,0002-00-0000-63.png
00000014,527,0,1449591031210,1449591031903,929,489,0,0,0,3,4,1,7,0002-00-0000-90.png,0001-00-0001-94.png
00000014,528,1,1449591035045,1449591035504,947,446,0,0,0,1,0,1,1,0004-00-0000-46.png,0005-00-0001-04.png
00000014,529,1,1449591036498,1449591036939,356,462,0,0,0,0,1,1,1,0005-00-0000-52.png,0004-00-0000-37.png
00000014,530,0,1449591038081,1449591038708,889,501,0,0,0,1,2,1,3,0004-00-0001-94.png,0003-00-0000-71.png
00000014,531,0,1449591041664,1449591042117,952,490,0,0,0,3,4,1,7,0002-00-0000-39.png,0001-00-0000-62.png
00000014,532,1,1449591045054,1449591045479,900,540,0,0,0,4,3,1,7,0001-00-0001-09.png,0002-00-0000-74.png
00000014,533,1,1449591046450,1449591047004,900,456,0,0,0,1,0,1,1,0004-00-0001-94.png,0005-00-0001-78.png
00000014,534,0,1449591048068,1449591048655,918,484,0,0,0,2,3,1,5,0003-00-0000-69.png,0002-00-0001-31.png
00000014,535,1,1449591051662,1449591052109,961,420,0,0,0,3,2,1,5,0002-00-0001-76.png,0003-00-0000-95.png
00000014,536,1,1449591053104,1449591053597,898,456,0,0,0,2,1,1,3,0003-00-0001-80.png,0004-00-0001-35.png
00000014,537,0,1449591054835,1449591055400,876,488,0,0,0,3,4,1,7,0002-00-0001-51.png,0001-00-0001-16.png
00000014,538,0,1449591058539,1449591058980,973,471,0,0,0,0,1,1,1,0005-00-0001-25.png,0004-00-0000-88.png
00000014,539,1,1449591062181,1449591062654,880,414,0,0,0,2,1,1,3,0003-00-0000-02.png,0004-00-0001-95.png
00000014,540,1,1449591063629,1449591064352,900,475,0,0,0,4,3,1,7,0001-00-0000-42.png,0002-00-0000-10.png
00000014,541,0,1449591065490,1449591065973,364,450,0,0,0,3,2,1,5,0002-00-0000-74.png,0003-00-0001-36.png
00000014,542,1,1449591068886,1449591069350,950,438,0,0,0,1,0,1,1,0004-00-0000-81.png,0005-00-0000-30.png
00000014,543,0,1449591070358,1449591070856,876,475,0,0,0,2,3,1,5,0003-00-0001-20.png,0002-00-0000-34.png
00000014,544,0,1449591074105,1449591074531,951,490,0,0,0,1,2,1,3,0004-00-0001-58.png,0003-00-0000-12.png
00000014,545,1,1449591077445,1449591077909,898,440,0,0,0,2,1,1,3,0003-00-0001-36.png,0004-00-0000-14.png
00000014,546,1,1449591078899,1449591079403,897,458,0,0,0,1,0,1,1,0004-00-0000-62.png,0005-00-0001-94.png
00000014,547,0,1449591081141,1449591081760,891,463,0,0,0,2,3,1,5,0003-00-0001-43.png,0002-00-0001-68.png
00000014,548,1,1449591084898,1449591085313,926,481,0,0,0,3,2,1,5,0002-00-0000-82.png,0003-00-0001-76.png
00000014,549,1,1449591086320,1449591086712,344,451,0,0,0,1,2,1,3,0004-00-0001-35.png,0003-00-0001-92.png
00000014,550,1,1449591087923,1449591088362,357,472,0,0,0,0,1,1,1,0005-00-0000-09.png,0004-00-0001-63.png
00000014,551,0,1449591089682,1449591090128,390,454,0,0,0,4,3,1,7,0001-00-0001-17.png,0002-00-0001-71.png
00000014,552,0,1449591093149,1449591093540,974,468,0,0,0,3,4,1,7,0002-00-0000-81.png,0001-00-0001-21.png
00000014,553,0,1449591096561,1449591097081,365,422,0,0,0,3,2,1,5,0002-00-0001-97.png,0003-00-0000-27.png
00000014,554,1,1449591100264,1449591100697,959,447,0,0,0,1,0,1,1,0004-00-0000-11.png,0005-00-0000-86.png
00000014,555,0,1449591102229,1449591102719,899,483,0,0,0,1,2,1,3,0004-00-0001-38.png,0003-00-0001-37.png
00000014,556,1,1449591105782,1449591106260,956,480,0,0,0,4,3,1,7,0001-00-0000-62.png,0002-00-0000-72.png
00000014,557,1,1449591107331,1449591107904,430,425,0,0,0,2,3,1,5,0003-00-0001-96.png,0002-00-0000-46.png
00000014,558,0,1449591108934,1449591109458,873,456,0,0,0,3,4,1,7,0002-00-0000-15.png,0001-00-0001-38.png
00000014,559,0,1449591113534,1449591113992,953,450,0,0,0,0,1,1,1,0005-00-0001-33.png,0004-00-0001-36.png
00000014,560,1,1449591117141,1449591117599,976,436,0,0,0,2,1,1,3,0003-00-0000-25.png,0004-00-0000-00.png
00000014,561,1,1449591118592,1449591119063,908,473,0,0,0,2,1,1,3,0003-00-0000-32.png,0004-00-0001-19.png
00000014,562,0,1449591120181,1449591120706,866,470,0,0,0,3,4,1,7,0002-00-0000-99.png,0001-00-0001-13.png
00000014,563,1,1449591123591,1449591124430,368,413,0,0,0,0,1,1,1,0005-00-0001-70.png,0004-00-0001-58.png
00000014,564,1,1449591125497,1449591125890,367,427,0,0,0,1,2,1,3,0004-00-0000-59.png,0003-00-0001-49.png
00000014,565,0,1449591127043,1449591127531,876,469,0,0,0,2,3,1,5,0003-00-0000-93.png,0002-00-0001-18.png
00000014,566,0,1449591130646,1449591131199,420,425,0,0,0,1,0,1,1,0004-00-0001-90.png,0005-00-0001-02.png
00000014,567,1,1449591134084,1449591134523,959,447,0,0,0,3,2,1,5,0002-00-0001-59.png,0003-00-0000-64.png
00000014,568,0,1449591135984,1449591136415,427,436,0,0,0,4,3,1,7,0001-00-0001-45.png,0002-00-0000-35.png
00000014,569,0,1449591139279,1449591139786,939,462,0,0,0,3,4,1,7,0002-00-0000-91.png,0001-00-0001-30.png
00000014,570,1,1449591142861,1449591143311,927,384,0,0,0,3,2,1,5,0002-00-0000-60.png,0003-00-0000-57.png
00000014,571,1,1449591144363,1449591145047,940,475,0,0,0,1,0,1,1,0004-00-0001-44.png,0005-00-0000-36.png
00000014,572,1,1449591146117,1449591146563,372,471,0,0,0,1,2,1,3,0004-00-0000-20.png,0003-00-0001-10.png
00000014,573,1,1449591147873,1449591148352,382,462,0,0,0,0,1,1,1,0005-00-0001-21.png,0004-00-0000-19.png
00000014,574,0,1449591149611,1449591150116,900,502,0,0,0,2,3,1,5,0003-00-0001-67.png,0002-00-0001-76.png
00000014,575,1,1449591153495,1449591153896,951,463,0,0,0,2,1,1,3,0003-00-0000-56.png,0004-00-0001-27.png
00000014,576,0,1449591154911,1449591155304,363,473,0,0,0,4,3,1,7,0001-00-0001-01.png,0002-00-0001-78.png
00000014,577,1,1449591158428,1449591158911,914,444,0,0,0,4,3,1,7,0001-00-0001-19.png,0002-00-0001-33.png
00000014,578,1,1449591159958,1449591160450,398,560,0,0,0,0,1,1,1,0005-00-0000-53.png,0004-00-0000-93.png
00000014,579,1,1449591161827,1449591162445,897,473,0,0,0,3,2,1,5,0002-00-0000-99.png,0003-00-0000-28.png
00000014,580,1,1449591163539,1449591164093,879,474,0,0,0,2,1,1,3,0003-00-0000-17.png,0004-00-0000-59.png
00000014,581,0,1449591165218,1449591165703,864,475,0,0,0,2,3,1,5,0003-00-0000-83.png,0002-00-0001-73.png
00000014,582,1,1449591168871,1449591169294,959,438,0,0,0,1,0,1,1,0004-00-0000-33.png,0005-00-0000-67.png
00000014,583,1,1449591170326,1449591170362,504,514,0,0,0,1,2,1,3,0004-00-0000-40.png,0003-00-0000-62.png
00000014,584,0,1449591171756,1449591172350,873,511,0,0,0,3,4,1,7,0002-00-0000-78.png,0001-00-0000-61.png
00000014,585,1,1449591175752,1449591176386,966,449,0,0,0,3,2,1,5,0002-00-0000-53.png,0003-00-0001-33.png
00000014,586,1,1449591177435,1449591178015,876,512,0,0,0,2,1,1,3,0003-00-0000-35.png,0004-00-0000-41.png
00000014,587,1,1449591179113,1449591179581,350,481,0,0,0,0,1,1,1,0005-00-0001-88.png,0004-00-0001-36.png
00000014,588,0,1449591180802,1449591181325,882,474,0,0,0,2,3,1,5,0003-00-0000-90.png,0002-00-0000-44.png
00000014,589,1,1449591184468,1449591185049,427,488,0,0,0,1,2,1,3,0004-00-0001-11.png,0003-00-0000-08.png
00000014,590,0,1449591186059,1449591186088,516,492,0,0,0,1,0,1,1,0004-00-0001-15.png,0005-00-0001-68.png
00000014,591,0,1449591189177,1449591189604,958,459,0,0,0,3,4,1,7,0002-00-0001-61.png,0001-00-0000-51.png
00000014,592,1,1449591192735,1449591193180,926,450,0,0,0,4,3,1,7,0001-00-0000-02.png,0002-00-0000-40.png
00000014,593,0,1449591194188,1449591194706,896,497,0,0,0,2,3,1,5,0003-00-0001-61.png,0002-00-0000-57.png
00000014,594,0,1449591197793,1449591198490,939,466,0,0,0,3,4,1,7,0002-00-0000-64.png,0001-00-0000-78.png
00000014,595,1,1449591201602,1449591202058,921,550,0,0,0,3,2,1,5,0002-00-0000-99.png,0003-00-0000-26.png
00000014,596,1,1449591203076,1449591203753,942,489,0,0,0,4,3,1,7,0001-00-0000-79.png,0002-00-0000-76.png
00000014,597,1,1449591204832,1449591205194,367,453,0,0,0,0,1,1,1,0005-00-0000-61.png,0004-00-0000-86.png
00000014,598,1,1449591206351,1449591206711,427,462,0,0,0,1,2,1,3,0004-00-0000-71.png,0003-00-0001-78.png
00000014,599,1,1449591207847,1449591208418,890,475,0,0,0,2,1,1,3,0003-00-0000-10.png,0004-00-0001-84.png
00000014,600,0,1449591209476,1449591209949,416,472,0,0,0,1,0,1,1,0004-00-0000-97.png,0005-00-0001-57.png
00000014,601,0,1449591213091,1449591213526,982,463,0,0,0,3,4,1,7,0002-00-0000-59.png,0001-00-0000-30.png
00000014,602,1,1449591216541,1449591217026,972,498,0,0,0,4,3,1,7,0001-00-0000-63.png,0002-00-0000-16.png
00000014,603,1,1449591218021,1449591218080,517,488,0,0,0,2,3,1,5,0003-00-0000-84.png,0002-00-0000-58.png
00000014,604,1,1449591219452,1449591220068,900,475,0,0,0,2,1,1,3,0003-00-0000-55.png,0004-00-0001-41.png
00000014,605,1,1449591221311,1449591221741,414,544,0,0,0,0,1,1,1,0005-00-0000-94.png,0004-00-0000-54.png
00000014,606,1,1449591223064,1449591224064,908,447,0,0,0,1,0,1,1,0004-00-0001-25.png,0005-00-0001-46.png
00000014,607,1,1449591225277,1449591225628,385,502,0,0,0,1,2,1,3,0004-00-0001-79.png,0003-00-0001-20.png
00000014,608,1,1449591226817,1449591227399,893,495,0,0,0,3,2,1,5,0002-00-0000-13.png,0003-00-0001-10.png
00000014,609,0,1449591228487,1449591229208,936,496,0,0,0,2,3,1,5,0003-00-0000-37.png,0002-00-0001-72.png
00000014,610,0,1449591232275,1449591232723,985,474,0,0,0,0,1,1,1,0005-00-0001-63.png,0004-00-0001-02.png
00000014,611,0,1449591236021,1449591236478,965,475,0,0,0,3,4,1,7,0002-00-0000-13.png,0001-00-0001-73.png
00000014,612,1,1449591239916,1449591240318,964,475,0,0,0,4,3,1,7,0001-00-0001-85.png,0002-00-0001-00.png
00000014,613,1,1449591241299,1449591241853,870,460,0,0,0,2,1,1,3,0003-00-0001-04.png,0004-00-0001-67.png
00000014,614,1,1449591243039,1449591243631,900,463,0,0,0,1,0,1,1,0004-00-0000-17.png,0005-00-0001-66.png
00000014,615,1,1449591244732,1449591245238,875,475,0,0,0,3,2,1,5,0002-00-0001-64.png,0003-00-0000-56.png
00000014,616,1,1449591246379,1449591246792,375,463,0,0,0,1,2,1,3,0004-00-0001-27.png,0003-00-0001-66.png
00000014,617,0,1449591247959,1449591248388,394,465,0,0,0,3,2,1,5,0002-00-0000-25.png,0003-00-0001-62.png
00000014,618,1,1449591251290,1449591251785,407,430,0,0,0,3,4,1,7,0002-00-0000-98.png,0001-00-0001-63.png
00000014,619,0,1449591252833,1449591253390,876,488,0,0,0,2,3,1,5,0003-00-0001-63.png,0002-00-0001-14.png
00000014,620,0,1449591256432,1449591256911,950,516,0,0,0,1,2,1,3,0004-00-0000-75.png,0003-00-0000-23.png
00000014,621,0,1449591259777,1449591260250,958,474,0,0,0,0,1,1,1,0005-00-0000-29.png,0004-00-0001-78.png
00000014,622,1,1449591263126,1449591263758,940,520,0,0,0,2,1,1,3,0003-00-0000-00.png,0004-00-0000-42.png
00000014,623,1,1449591265211,1449591265734,916,485,0,0,0,4,3,1,7,0001-00-0001-65.png,0002-00-0000-31.png
00000014,624,1,1449591266843,1449591267399,916,478,0,0,0,1,0,1,1,0004-00-0000-99.png,0005-00-0000-88.png
00000014,625,0,1449591268620,1449591269174,901,476,0,0,0,1,2,1,3,0004-00-0001-74.png,0003-00-0001-83.png
00000014,626,1,1449591272170,1449591272639,939,476,0,0,0,4,3,1,7,0001-00-0001-43.png,0002-00-0001-49.png
00000014,627,1,1449591274247,1449591274735,429,437,0,0,0,3,4,1,7,0002-00-0000-25.png,0001-00-0000-11.png
00000014,628,0,1449591275798,1449591276273,389,475,0,0,0,1,0,1,1,0004-00-0000-61.png,0005-00-0001-26.png
00000014,629,1,1449591279299,1449591279783,427,410,0,0,0,0,1,1,1,0005-00-0001-55.png,0004-00-0000-20.png
00000014,630,1,1449591281303,1449591281766,898,459,0,0,0,2,1,1,3,0003-00-0000-97.png,0004-00-0000-08.png
00000014,631,0,1449591282839,1449591283369,861,477,0,0,0,2,3,1,5,0003-00-0001-18.png,0002-00-0001-80.png
00000014,632,1,1449591286810,1449591287238,951,463,0,0,0,3,2,1,5,0002-00-0001-62.png,0003-00-0000-26.png
00000014,633,1,1449591288324,1449591289122,875,449,0,0,0,4,3,1,7,0001-00-0001-54.png,0002-00-0000-75.png
00000014,634,0,1449591290111,1449591290518,376,488,0,0,0,3,2,1,5,0002-00-0001-47.png,0003-00-0001-69.png
00000014,635,1,1449591293351,1449591293800,407,529,0,0,0,0,1,1,1,0005-00-0000-24.png,0004-00-0001-90.png
00000014,636,1,1449591294826,1449591295389,904,506,0,0,0,2,1,1,3,0003-00-0000-33.png,0004-00-0001-62.png
00000014,637,0,1449591296479,1449591297028,865,497,0,0,0,3,4,1,7,0002-00-0000-11.png,0001-00-0001-30.png
00000014,638,0,1449591300123,1449591300617,960,474,0,0,0,2,3,1,5,0003-00-0001-99.png,0002-00-0000-65.png
00000014,639,1,1449591303559,1449591304010,977,475,0,0,0,1,0,1,1,0004-00-0001-57.png,0005-00-0001-29.png
00000014,640,1,1449591304974,1449591305370,384,478,0,0,0,1,2,1,3,0004-00-0001-84.png,0003-00-0001-40.png
00000014,641,0,1449591306582,1449591307157,887,502,0,0,0,3,4,1,7,0002-00-0001-99.png,0001-00-0000-46.png
00000014,642,0,1449591310719,1449591311151,943,475,0,0,0,1,2,1,3,0004-00-0000-58.png,0003-00-0000-69.png
00000014,643,1,1449591314414,1449591314942,938,476,0,0,0,4,3,1,7,0001-00-0001-56.png,0002-00-0001-91.png
00000014,644,1,1449591315947,1449591316594,899,474,0,0,0,3,2,1,5,0002-00-0001-26.png,0003-00-0000-21.png
00000014,645,1,1449591317734,1449591318479,900,423,0,0,0,2,1,1,3,0003-00-0001-07.png,0004-00-0001-26.png
00000014,646,0,1449591319541,1449591319565,507,498,0,0,0,1,0,1,1,0004-00-0001-22.png,0005-00-0000-73.png
00000014,647,0,1449591322793,1449591323218,939,450,0,0,0,2,3,1,5,0003-00-0001-43.png,0002-00-0000-33.png
00000014,648,1,1449591326130,1449591326631,430,509,0,0,0,0,1,1,1,0005-00-0001-35.png,0004-00-0000-07.png
00000014,649,1,1449591327701,1449591328160,365,445,0,0,0,1,2,1,3,0004-00-0000-28.png,0003-00-0000-07.png
00000014,650,0,1449591329389,1449591329773,382,469,0,0,0,3,2,1,5,0002-00-0001-18.png,0003-00-0001-05.png
00000014,651,0,1449591332879,1449591333306,937,443,0,0,0,2,3,1,5,0003-00-0001-01.png,0002-00-0000-18.png
00000014,652,1,1449591337560,1449591337945,945,446,0,0,0,4,3,1,7,0001-00-0000-80.png,0002-00-0000-96.png
00000014,653,1,1449591339003,1449591339485,900,475,0,0,0,1,0,1,1,0004-00-0000-97.png,0005-00-0001-59.png
00000014,654,0,1449591340542,1449591341096,888,540,0,0,0,3,4,1,7,0002-00-0000-72.png,0001-00-0000-03.png
00000014,655,1,1449591343932,1449591344454,972,446,0,0,0,2,1,1,3,0003-00-0001-78.png,0004-00-0000-51.png
00000014,656,1,1449591345535,1449591346026,356,437,0,0,0,0,1,1,1,0005-00-0000-66.png,0004-00-0001-14.png
00000014,657,0,1449591347137,1449591347791,875,423,0,0,0,2,3,1,5,0003-00-0000-67.png,0002-00-0000-22.png
00000014,658,0,1449591350890,1449591350930,486,484,0,0,0,3,2,1,5,0002-00-0000-32.png,0003-00-0000-60.png
00000014,659,1,1449591353980,1449591354396,1004,416,0,0,0,4,3,1,7,0001-00-0000-37.png,0002-00-0001-58.png
00000014,660,0,1449591355363,1449591356009,914,476,0,0,0,1,2,1,3,0004-00-0000-40.png,0003-00-0000-87.png
00000014,661,1,1449591359049,1449591359069,489,441,0,0,0,0,1,1,1,0005-00-0001-19.png,0004-00-0000-27.png
00000014,662,0,1449591360650,1449591361273,898,483,0,0,0,3,4,1,7,0002-00-0000-61.png,0001-00-0001-62.png
00000014,663,1,1449591364554,1449591364944,926,528,0,0,0,1,0,1,1,0004-00-0000-89.png,0005-00-0001-30.png
00000014,664,1,1449591365918,1449591366419,900,463,0,0,0,2,1,1,3,0003-00-0001-58.png,0004-00-0001-65.png
00000014,665,0,1449591367638,1449591368179,895,475,0,0,0,3,4,1,7,0002-00-0001-04.png,0001-00-0000-52.png
00000014,666,0,1449591371031,1449591371446,881,515,0,0,0,1,2,1,3,0004-00-0000-87.png,0003-00-0000-86.png
00000014,667,0,1449591374532,1449591374984,991,449,0,0,0,2,3,1,5,0003-00-0000-37.png,0002-00-0001-15.png
00000014,668,1,1449591378181,1449591378680,979,495,0,0,0,4,3,1,7,0001-00-0000-39.png,0002-00-0001-32.png
00000014,669,1,1449591379735,1449591380207,372,458,0,0,0,0,1,1,1,0005-00-0001-57.png,0004-00-0000-69.png
00000014,670,1,1449591381346,1449591381885,894,481,0,0,0,2,1,1,3,0003-00-0000-01.png,0004-00-0000-90.png
00000014,671,0,1449591382933,1449591383354,376,489,0,0,0,3,2,1,5,0002-00-0000-70.png,0003-00-0001-78.png
00000014,672,1,1449591386313,1449591386735,949,484,0,0,0,1,0,1,1,0004-00-0000-61.png,0005-00-0000-57.png
00000014,673,0,1449591387792,1449591388226,401,488,0,0,0,4,3,1,7,0001-00-0001-68.png,0002-00-0000-02.png
00000014,674,1,1449591391191,1449591391638,973,471,0,0,0,1,0,1,1,0004-00-0000-07.png,0005-00-0001-54.png
00000014,675,1,1449591392742,1449591393227,401,565,0,0,0,1,2,1,3,0004-00-0001-13.png,0003-00-0000-00.png
00000014,676,1,1449591394391,1449591394870,866,466,0,0,0,3,2,1,5,0002-00-0000-05.png,0003-00-0000-36.png
00000014,677,0,1449591396136,1449591396710,890,475,0,0,0,3,4,1,7,0002-00-0000-29.png,0001-00-0000-98.png
00000014,678,1,1449591399578,1449591400025,984,474,0,0,0,2,1,1,3,0003-00-0001-00.png,0004-00-0001-46.png
00000014,679,1,1449591401041,1449591401463,352,472,0,0,0,0,1,1,1,0005-00-0000-39.png,0004-00-0001-85.png
00000014,680,0,1449591402696,1449591403334,875,476,0,0,0,2,3,1,5,0003-00-0000-48.png,0002-00-0000-43.png
00000014,681,1,1449591406178,1449591406623,950,432,0,0,0,1,0,1,1,0004-00-0000-96.png,0005-00-0000-01.png
00000014,682,1,1449591407675,1449591408195,900,489,0,0,0,2,1,1,3,0003-00-0000-60.png,0004-00-0001-02.png
00000014,683,1,1449591409441,1449591409823,376,462,0,0,0,0,1,1,1,0005-00-0000-97.png,0004-00-0001-57.png
00000014,684,1,1449591411477,1449591411948,390,438,0,0,0,1,2,1,3,0004-00-0000-72.png,0003-00-0001-80.png
00000014,685,0,1449591413263,1449591413832,875,475,0,0,0,2,3,1,5,0003-00-0000-78.png,0002-00-0001-06.png
00000014,686,1,1449591416755,1449591417202,976,449,0,0,0,3,2,1,5,0002-00-0001-15.png,0003-00-0000-43.png
00000014,687,0,1449591418271,1449591418710,398,468,0,0,0,4,3,1,7,0001-00-0000-23.png,0002-00-0000-94.png
00000014,688,0,1449591421787,1449591422206,888,384,0,0,0,3,4,1,7,0002-00-0000-66.png,0001-00-0001-04.png
00000014,689,1,1449591425175,1449591425667,967,469,0,0,0,2,1,1,3,0003-00-0001-90.png,0004-00-0001-34.png
00000014,690,0,1449591426698,1449591427196,427,548,0,0,0,4,3,1,7,0001-00-0000-59.png,0002-00-0000-92.png
00000014,691,0,1449591430223,1449591430255,510,495,0,0,0,1,0,1,1,0004-00-0000-52.png,0005-00-0000-44.png
00000014,692,0,1449591433484,1449591433944,877,436,0,0,0,1,2,1,3,0004-00-0001-18.png,0003-00-0000-43.png
00000014,693,1,1449591437370,1449591437865,968,504,0,0,0,3,2,1,5,0002-00-0000-52.png,0003-00-0001-62.png
00000014,694,0,1449591438941,1449591439674,905,495,0,0,0,2,3,1,5,0003-00-0000-07.png,0002-00-0000-46.png
00000014,695,0,1449591442587,1449591443072,976,449,0,0,0,0,1,1,1,0005-00-0000-76.png,0004-00-0001-22.png
00000014,696,0,1449591446135,1449591446650,951,475,0,0,0,3,4,1,7,0002-00-0000-82.png,0001-00-0000-75.png
00000014,697,0,1449591451703,1449591452140,956,480,0,0,0,3,4,1,7,0002-00-0000-62.png,0001-00-0000-01.png
00000014,698,0,1449591455237,1449591455639,937,439,0,0,0,0,1,1,1,0005-00-0001-26.png,0004-00-0001-38.png
00000014,699,1,1449591458735,1449591459156,956,460,0,0,0,4,3,1,7,0001-00-0000-26.png,0002-00-0001-81.png
00000014,700,0,1449591460092,1449591460863,901,470,0,0,0,1,2,1,3,0004-00-0001-51.png,0003-00-0001-88.png
00000014,701,1,1449591463885,1449591464376,960,479,0,0,0,2,1,1,3,0003-00-0000-74.png,0004-00-0000-43.png
00000014,702,1,1449591465369,1449591466137,914,466,0,0,0,1,0,1,1,0004-00-0000-59.png,0005-00-0000-40.png
00000014,703,0,1449591467156,1449591467606,370,479,0,0,0,3,2,1,5,0002-00-0001-82.png,0003-00-0000-21.png
00000014,704,1,1449591471668,1449591472533,453,358,0,0,0,2,3,1,5,0003-00-0001-04.png,0002-00-0001-00.png
00000014,705,1,1449591474054,1449591474539,401,488,0,0,0,2,3,1,5,0003-00-0001-45.png,0002-00-0000-58.png
00000014,706,0,1449591475555,1449591475936,401,462,0,0,0,4,3,1,7,0001-00-0000-14.png,0002-00-0000-87.png
00000014,707,1,1449591481319,1449591481749,878,466,0,0,0,3,2,1,5,0002-00-0001-90.png,0003-00-0000-21.png
00000014,708,1,1449591482681,1449591483272,905,467,0,0,0,2,1,1,3,0003-00-0001-67.png,0004-00-0000-26.png
00000014,709,1,1449591484304,1449591484805,895,476,0,0,0,1,0,1,1,0004-00-0000-37.png,0005-00-0001-85.png
00000014,710,0,1449591485871,1449591486417,897,485,0,0,0,3,4,1,7,0002-00-0001-56.png,0001-00-0000-64.png
00000014,711,0,1449591489336,1449591489721,976,432,0,0,0,1,2,1,3,0004-00-0000-14.png,0003-00-0001-73.png
00000014,712,0,1449591492597,1449591493042,981,441,0,0,0,0,1,1,1,0005-00-0000-65.png,0004-00-0000-76.png
00000014,713,1,1449591496008,1449591496421,1001,429,0,0,0,1,0,1,1,0004-00-0000-19.png,0005-00-0001-59.png
00000014,714,1,1449591497373,1449591497903,873,456,0,0,0,2,1,1,3,0003-00-0001-78.png,0004-00-0000-57.png
00000014,715,0,1449591498943,1449591499501,886,476,0,0,0,2,3,1,5,0003-00-0000-25.png,0002-00-0000-19.png
00000014,716,1,1449591502557,1449591503025,898,398,0,0,0,4,3,1,7,0001-00-0001-72.png,0002-00-0001-20.png
00000014,717,1,1449591503990,1449591504421,332,445,0,0,0,0,1,1,1,0005-00-0000-73.png,0004-00-0000-05.png
00000014,718,0,1449591505936,1449591506564,898,456,0,0,0,1,2,1,3,0004-00-0000-04.png,0003-00-0000-41.png
00000014,719,0,1449591510112,1449591510521,964,450,0,0,0,3,4,1,7,0002-00-0001-78.png,0001-00-0000-57.png
00000014,720,1,1449591513868,1449591514278,951,476,0,0,0,3,2,1,5,0002-00-0001-63.png,0003-00-0000-49.png
00000014,721,1,1449591515203,1449591515629,408,493,0,0,0,1,2,1,3,0004-00-0000-07.png,0003-00-0001-27.png
00000014,722,1,1449591516665,1449591517287,925,475,0,0,0,1,0,1,1,0004-00-0001-07.png,0005-00-0000-16.png
00000014,723,1,1449591518341,1449591518958,871,566,0,0,0,3,2,1,5,0002-00-0001-00.png,0003-00-0001-96.png
00000014,724,1,1449591520045,1449591520616,875,487,0,0,0,4,3,1,7,0001-00-0001-60.png,0002-00-0001-95.png
00000014,725,0,1449591521641,1449591522030,395,500,0,0,0,2,1,1,3,0003-00-0000-93.png,0004-00-0001-85.png
00000014,726,1,1449591525077,1449591525636,427,401,0,0,0,0,1,1,1,0005-00-0000-35.png,0004-00-0000-88.png
00000014,727,0,1449591527096,1449591527524,876,451,0,0,0,2,3,1,5,0003-00-0000-72.png,0002-00-0000-31.png
00000014,728,0,1449591530554,1449591530979,977,449,0,0,0,3,4,1,7,0002-00-0000-66.png,0001-00-0001-99.png
00000014,729,0,1449591533915,1449591533947,511,517,0,0,0,4,3,1,7,0001-00-0001-13.png,0002-00-0000-08.png
00000014,730,1,1449591536886,1449591537300,1010,447,0,0,0,3,2,1,5,0002-00-0001-81.png,0003-00-0001-13.png
00000014,731,0,1449591538188,1449591538580,444,479,0,0,0,2,1,1,3,0003-00-0000-44.png,0004-00-0001-44.png
00000014,732,0,1449591541883,1449591542300,939,475,0,0,0,2,3,1,5,0003-00-0001-91.png,0002-00-0001-66.png
00000014,733,0,1449591545448,1449591545867,914,485,0,0,0,1,2,1,3,0004-00-0000-04.png,0003-00-0000-50.png
00000014,734,1,1449591549171,1449591549726,363,428,0,0,0,0,1,1,1,0005-00-0000-73.png,0004-00-0000-62.png
00000014,735,1,1449591550861,1449591551409,897,497,0,0,0,1,0,1,1,0004-00-0001-07.png,0005-00-0000-34.png
00000014,736,0,1449591552374,1449591552970,901,487,0,0,0,3,4,1,7,0002-00-0001-87.png,0001-00-0000-69.png
00000014,737,1,1449591555849,1449591556254,952,449,0,0,0,2,1,1,3,0003-00-0001-63.png,0004-00-0000-60.png
00000014,738,1,1449591557232,1449591557855,899,475,0,0,0,1,0,1,1,0004-00-0000-52.png,0005-00-0001-77.png
00000014,739,0,1449591558861,1449591559918,927,468,0,0,0,3,4,1,7,0002-00-0001-79.png,0001-00-0000-66.png
00000014,740,0,1449591562748,1449591563186,979,442,0,0,0,1,2,1,3,0004-00-0000-32.png,0003-00-0000-02.png
00000014,741,1,1449591566143,1449591566640,975,483,0,0,0,4,3,1,7,0001-00-0001-70.png,0002-00-0001-48.png
00000014,742,1,1449591567622,1449591568023,344,445,0,0,0,0,1,1,1,0005-00-0001-96.png,0004-00-0000-47.png
00000014,743,0,1449591569153,1449591569680,889,501,0,0,0,2,3,1,5,0003-00-0001-23.png,0002-00-0001-76.png
00000014,744,1,1449591572565,1449591573008,976,438,0,0,0,3,2,1,5,0002-00-0001-45.png,0003-00-0000-10.png
00000014,745,1,1449591574033,1449591574579,898,486,0,0,0,1,0,1,1,0004-00-0001-47.png,0005-00-0001-75.png
00000014,746,1,1449591575654,1449591576175,877,468,0,0,0,2,1,1,3,0003-00-0001-15.png,0004-00-0000-17.png
00000014,747,0,1449591577272,1449591577789,901,476,0,0,0,3,4,1,7,0002-00-0000-48.png,0001-00-0000-37.png
00000014,748,1,1449591580779,1449591581245,900,427,0,0,0,3,2,1,5,0002-00-0001-85.png,0003-00-0000-08.png
00000014,749,0,1449591582199,1449591583302,916,443,0,0,0,1,2,1,3,0004-00-0000-14.png,0003-00-0000-60.png
00000014,750,1,1449591586285,1449591586728,342,419,0,0,0,0,1,1,1,0005-00-0000-41.png,0004-00-0000-88.png
00000014,751,0,1449591587693,1449591588163,344,472,0,0,0,4,3,1,7,0001-00-0000-41.png,0002-00-0000-84.png
00000014,752,0,1449591592250,1449591592712,907,442,0,0,0,2,3,1,5,0003-00-0001-18.png,0002-00-0000-90.png
00000014,753,1,1449591599036,1449591599618,436,500,0,0,0,0,1,1,1,0005-00-0000-74.png,0004-00-0000-27.png
00000014,754,1,1449591600519,1449591601029,888,475,0,0,0,1,0,1,1,0004-00-0000-16.png,0005-00-0001-50.png
00000014,755,1,1449591602008,1449591602549,862,476,0,0,0,2,1,1,3,0003-00-0001-41.png,0004-00-0000-93.png
00000014,756,1,1449591603996,1449591604016,504,462,0,0,0,2,3,1,5,0003-00-0001-63.png,0002-00-0001-72.png
00000014,757,0,1449591605090,1449591605512,438,462,0,0,0,4,3,1,7,0001-00-0000-69.png,0002-00-0001-72.png
00000014,758,0,1449591608367,1449591608800,976,436,0,0,0,1,2,1,3,0004-00-0001-01.png,0003-00-0001-99.png
00000014,759,0,1449591611752,1449591612217,962,474,0,0,0,3,4,1,7,0002-00-0001-26.png,0001-00-0000-94.png
00000014,760,1,1449591615347,1449591615768,874,438,0,0,0,3,2,1,5,0002-00-0000-15.png,0003-00-0001-00.png
00000014,761,1,1449591616733,1449591617401,903,469,0,0,0,1,0,1,1,0004-00-0001-54.png,0005-00-0000-77.png
00000014,762,1,1449591618478,1449591618901,387,398,0,0,0,2,3,1,5,0003-00-0001-19.png,0002-00-0001-06.png
00000014,763,1,1449591620446,1449591620972,418,454,0,0,0,3,4,1,7,0002-00-0000-49.png,0001-00-0001-11.png
00000014,764,1,1449591621977,1449591622402,337,496,0,0,0,1,2,1,3,0004-00-0001-83.png,0003-00-0001-75.png
00000014,765,1,1449591623489,1449591624029,892,470,0,0,0,2,1,1,3,0003-00-0000-22.png,0004-00-0001-29.png
00000014,766,0,1449591625118,1449591625793,913,476,0,0,0,0,1,1,1,0005-00-0001-69.png,0004-00-0001-35.png
00000014,767,1,1449591629084,1449591629573,928,496,0,0,0,3,2,1,5,0002-00-0001-89.png,0003-00-0000-56.png
00000014,768,0,1449591630575,1449591631048,385,476,0,0,0,4,3,1,7,0001-00-0001-18.png,0002-00-0001-94.png
00000014,769,1,1449591634589,1449591635054,959,474,0,0,0,3,2,1,5,0002-00-0000-97.png,0003-00-0001-94.png
00000014,770,0,1449591636071,1449591636630,889,502,0,0,0,1,2,1,3,0004-00-0001-31.png,0003-00-0001-11.png
00000014,771,1,1449591639737,1449591640400,951,438,0,0,0,4,3,1,7,0001-00-0001-05.png,0002-00-0001-07.png
00000014,772,0,1449591641354,1449591641947,872,486,0,0,0,2,3,1,5,0003-00-0001-80.png,0002-00-0001-37.png
00000014,773,1,1449591644865,1449591645268,926,494,0,0,0,1,0,1,1,0004-00-0001-08.png,0005-00-0001-13.png
00000014,774,1,1449591646247,1449591646678,416,466,0,0,0,0,1,1,1,0005-00-0001-67.png,0004-00-0000-49.png
00000014,775,0,1449591647869,1449591647904,507,531,0,0,0,2,1,1,3,0003-00-0000-57.png,0004-00-0000-22.png
00000014,776,0,1449591653009,1449591653445,951,463,0,0,0,3,4,1,7,0002-00-0001-00.png,0001-00-0000-54.png
00000014,777,1,1449591656433,1449591656910,994,493,0,0,0,2,1,1,3,0003-00-0001-08.png,0004-00-0001-86.png
00000014,778,1,1449591657854,1449591658651,938,476,0,0,0,3,2,1,5,0002-00-0000-89.png,0003-00-0001-07.png
00000014,779,1,1449591659735,1449591660209,344,455,0,0,0,0,1,1,1,0005-00-0001-12.png,0004-00-0000-74.png
00000014,780,1,1449591661298,1449591661676,376,460,0,0,0,1,2,1,3,0004-00-0001-82.png,0003-00-0000-00.png
00000014,781,1,1449591662767,1449591663167,344,479,0,0,0,2,3,1,5,0003-00-0001-57.png,0002-00-0001-02.png
00000014,782,0,1449591664376,1449591664741,329,478,0,0,0,4,3,1,7,0001-00-0000-41.png,0002-00-0000-62.png
00000014,783,1,1449591667824,1449591668247,964,450,0,0,0,1,0,1,1,0004-00-0000-14.png,0005-00-0001-27.png
00000014,784,0,1449591669198,1449591669763,896,472,0,0,0,3,4,1,7,0002-00-0001-21.png,0001-00-0000-90.png
00000014,785,1,1449591672816,1449591672828,472,470,0,0,0,3,4,1,7,0002-00-0001-65.png,0001-00-0000-80.png
00000014,786,0,1449591673977,1449591674582,901,487,0,0,0,0,1,1,1,0005-00-0001-62.png,0004-00-0000-46.png
00000014,787,0,1449591677736,1449591678140,896,435,0,0,0,2,3,1,5,0003-00-0001-26.png,0002-00-0000-19.png
00000014,788,0,1449591681699,1449591682244,959,474,0,0,0,1,2,1,3,0004-00-0001-01.png,0003-00-0001-51.png
00000014,789,1,1449591685254,1449591685673,920,509,0,0,0,4,3,1,7,0001-00-0000-67.png,0002-00-0000-18.png
00000014,790,1,1449591686608,1449591687176,901,488,0,0,0,3,2,1,5,0002-00-0000-12.png,0003-00-0001-43.png
00000014,791,1,1449591688230,1449591688770,878,463,0,0,0,2,1,1,3,0003-00-0001-51.png,0004-00-0000-49.png
00000014,792,1,1449591689890,1449591690433,901,476,0,0,0,1,0,1,1,0004-00-0000-03.png,0005-00-0000-24.png
00000014,793,1,1449591691529,1449591691888,376,486,0,0,0,0,1,1,1,0005-00-0001-21.png,0004-00-0001-87.png
00000014,794,0,1449591692950,1449591693385,387,463,0,0,0,1,0,1,1,0004-00-0001-94.png,0005-00-0001-95.png
00000014,795,0,1449591696400,1449591696467,504,477,0,0,0,3,2,1,5,0002-00-0000-89.png,0003-00-0001-62.png
00000014,796,1,1449591699531,1449591699977,931,418,0,0,0,4,3,1,7,0001-00-0000-86.png,0002-00-0000-85.png
00000014,797,0,1449591700985,1449591701455,913,476,0,0,0,3,4,1,7,0002-00-0001-15.png,0001-00-0001-84.png
00000014,798,0,1449591705693,1449591706139,952,489,0,0,0,2,3,1,5,0003-00-0001-99.png,0002-00-0000-15.png
00000014,799,1,1449591709412,1449591709989,950,500,0,0,0,2,1,1,3,0003-00-0000-00.png,0004-00-0001-92.png
00000014,800,1,1449591710950,1449591711403,390,474,0,0,0,1,2,1,3,0004-00-0000-25.png,0003-00-0001-03.png
00000014,801,0,1449591712570,1449591713251,923,492,0,0,0,2,3,1,5,0003-00-0001-55.png,0002-00-0001-73.png
00000014,802,1,1449591716329,1449591716930,440,512,0,0,0,0,1,1,1,0005-00-0000-24.png,0004-00-0001-06.png
00000014,803,1,1449591717967,1449591718562,901,492,0,0,0,2,1,1,3,0003-00-0001-23.png,0004-00-0000-52.png
00000014,804,1,1449591719611,1449591720001,388,482,0,0,0,3,4,1,7,0002-00-0001-50.png,0001-00-0000-29.png
00000014,805,1,1449591721098,1449591721636,899,464,0,0,0,1,0,1,1,0004-00-0000-82.png,0005-00-0000-00.png
00000014,806,0,1449591722681,1449591723032,392,506,0,0,0,4,3,1,7,0001-00-0000-24.png,0002-00-0000-01.png
00000014,807,0,1449591726197,1449591726681,893,442,0,0,0,1,2,1,3,0004-00-0001-36.png,0003-00-0001-62.png
00000014,808,0,1449591729707,1449591730280,493,548,0,0,0,3,2,1,5,0002-00-0000-36.png,0003-00-0000-69.png
00000014,809,0,1449591733274,1449591733307,520,449,0,0,0,1,0,1,1,0004-00-0001-78.png,0005-00-0001-83.png
00000014,810,0,1449591736345,1449591736832,902,464,0,0,0,3,4,1,7,0002-00-0001-74.png,0001-00-0000-35.png
00000014,811,0,1449591739712,1449591740219,914,397,0,0,0,2,3,1,5,0003-00-0000-69.png,0002-00-0001-63.png
00000014,812,0,1449591743122,1449591743154,509,474,0,0,0,4,3,1,7,0001-00-0000-64.png,0002-00-0001-64.png
00000014,813,1,1449591746175,1449591746616,900,412,0,0,0,3,2,1,5,0002-00-0001-45.png,0003-00-0000-16.png
00000014,814,1,1449591747625,1449591748064,339,437,0,0,0,0,1,1,1,0005-00-0001-17.png,0004-00-0001-47.png
00000014,815,1,1449591749150,1449591749694,888,500,0,0,0,2,1,1,3,0003-00-0000-90.png,0004-00-0001-59.png
00000014,816,0,1449591750838,1449591751399,893,469,0,0,0,1,2,1,3,0004-00-0001-15.png,0003-00-0001-92.png
00000014,817,1,1449591754513,1449591754928,896,418,0,0,0,1,0,1,1,0004-00-0000-97.png,0005-00-0000-05.png
00000014,818,1,1449591755937,1449591756388,408,457,0,0,0,0,1,1,1,0005-00-0001-75.png,0004-00-0001-70.png
00000014,819,0,1449591757480,1449591758014,897,483,0,0,0,3,4,1,7,0002-00-0000-57.png,0001-00-0001-01.png
00000014,820,1,1449591763138,1449591763572,951,469,0,0,0,4,3,1,7,0001-00-0000-47.png,0002-00-0000-69.png
00000014,821,1,1449591764492,1449591764966,875,475,0,0,0,2,1,1,3,0003-00-0000-78.png,0004-00-0000-69.png
00000014,822,0,1449591766013,1449591766417,371,491,0,0,0,3,2,1,5,0002-00-0001-59.png,0003-00-0001-87.png
00000014,823,0,1449591772235,1449591772637,905,401,0,0,0,1,2,1,3,0004-00-0000-96.png,0003-00-0001-73.png
00000014,824,0,1449591787620,1449591788020,956,439,0,0,0,2,3,1,5,0003-00-0000-32.png,0002-00-0001-32.png
00000014,825,0,1449591791142,1449591791559,868,457,0,0,0,3,4,1,7,0002-00-0000-77.png,0001-00-0001-45.png
00000014,826,1,1449591794949,1449591795418,974,469,0,0,0,4,3,1,7,0001-00-0000-17.png,0002-00-0001-57.png
00000014,827,1,1449591796488,1449591797095,950,463,0,0,0,2,1,1,3,0003-00-0000-59.png,0004-00-0000-75.png
00000014,828,1,1449591798099,1449591798517,395,485,0,0,0,2,3,1,5,0003-00-0001-93.png,0002-00-0000-12.png
00000014,829,1,1449591799535,1449591800076,876,461,0,0,0,1,0,1,1,0004-00-0001-01.png,0005-00-0000-35.png
00000014,830,1,1449591801018,1449591801419,359,456,0,0,0,1,2,1,3,0004-00-0000-77.png,0003-00-0000-64.png
00000014,831,0,1449591802384,1449591802746,392,481,0,0,0,3,2,1,5,0002-00-0000-15.png,0003-00-0001-18.png
00000014,832,0,1449591805881,1449591806352,976,475,0,0,0,0,1,1,1,0005-00-0001-99.png,0004-00-0000-26.png
00000014,833,1,1449591809398,1449591809878,972,444,0,0,0,2,1,1,3,0003-00-0001-83.png,0004-00-0001-71.png
00000014,834,0,1449591810860,1449591811440,913,476,0,0,0,3,4,1,7,0002-00-0001-86.png,0001-00-0001-10.png
00000014,835,0,1449591814370,1449591814782,946,394,0,0,0,1,2,1,3,0004-00-0000-03.png,0003-00-0000-52.png
00000014,836,0,1449591818982,1449591819414,955,480,0,0,0,0,1,1,1,0005-00-0000-15.png,0004-00-0000-51.png
00000014,837,0,1449591822943,1449591823363,952,481,0,0,0,2,3,1,5,0003-00-0000-75.png,0002-00-0000-42.png
00000014,838,1,1449591826701,1449591827119,925,489,0,0,0,1,0,1,1,0004-00-0001-95.png,0005-00-0000-52.png
00000014,839,0,1449591827984,1449591828486,410,476,0,0,0,4,3,1,7,0001-00-0001-55.png,0002-00-0001-85.png
00000014,840,1,1449591831551,1449591831939,913,554,0,0,0,3,2,1,5,0002-00-0001-68.png,0003-00-0001-70.png
00000014,841,1,1449591832827,1449591833292,383,442,0,0,0,3,4,1,7,0002-00-0001-91.png,0001-00-0001-57.png
00000014,842,0,1449591834218,1449591834607,401,488,0,0,0,1,0,1,1,0004-00-0001-11.png,0005-00-0001-17.png
00000014,843,1,1449591837642,1449591838089,913,527,0,0,0,2,1,1,3,0003-00-0001-13.png,0004-00-0001-51.png
00000014,844,0,1449591839016,1449591839531,861,476,0,0,0,2,3,1,5,0003-00-0000-01.png,0002-00-0000-85.png
00000014,845,0,1449591842402,1449591842861,977,437,0,0,0,0,1,1,1,0005-00-0000-42.png,0004-00-0001-93.png
00000014,846,0,1449591846998,1449591847468,445,401,0,0,0,4,3,1,7,0001-00-0000-02.png,0002-00-0001-84.png
00000014,847,0,1449591850722,1449591851187,877,440,0,0,0,1,2,1,3,0004-00-0000-95.png,0003-00-0001-29.png
00000014,848,0,1449591854031,1449591854645,478,384,0,0,0,3,2,1,5,0002-00-0001-31.png,0003-00-0000-33.png
00000014,849,1,1449591857581,1449591858039,395,384,0,0,0,0,1,1,1,0005-00-0001-01.png,0004-00-0000-99.png
00000014,850,0,1449591858879,1449591859294,453,436,0,0,0,4,3,1,7,0001-00-0001-85.png,0002-00-0000-25.png
00000014,851,1,1449591863108,1449591863520,964,449,0,0,0,1,0,1,1,0004-00-0000-13.png,0005-00-0001-03.png
00000014,852,0,1449591864442,1449591864826,434,462,0,0,0,3,2,1,5,0002-00-0000-58.png,0003-00-0000-07.png
00000014,853,0,1449591868394,1449591868898,963,450,0,0,0,2,3,1,5,0003-00-0001-65.png,0002-00-0000-88.png
00000014,854,0,1449591872020,1449591872397,984,447,0,0,0,1,2,1,3,0004-00-0000-20.png,0003-00-0001-87.png
00000014,855,0,1449591875885,1449591875952,454,409,0,0,0,2,1,1,3,0003-00-0001-17.png,0004-00-0001-17.png
00000014,856,0,1449591879075,1449591879478,978,440,0,0,0,3,4,1,7,0002-00-0000-44.png,0001-00-0000-62.png
00000014,857,0,1449591882563,1449591882960,976,464,0,0,0,2,3,1,5,0003-00-0000-25.png,0002-00-0000-16.png
00000014,858,0,1449591886042,1449591886468,978,465,0,0,0,1,2,1,3,0004-00-0000-70.png,0003-00-0000-72.png
00000014,859,1,1449591890169,1449591890620,478,410,0,0,0,0,1,1,1,0005-00-0001-24.png,0004-00-0000-32.png
00000014,860,0,1449591891514,1449591891921,388,471,0,0,0,3,2,1,5,0002-00-0000-01.png,0003-00-0000-37.png
00000014,861,1,1449591895108,1449591895555,979,493,0,0,0,2,1,1,3,0003-00-0001-37.png,0004-00-0000-97.png
00000014,862,0,1449591896532,1449591897083,882,474,0,0,0,3,4,1,7,0002-00-0000-69.png,0001-00-0001-66.png
00000014,863,1,1449591900067,1449591900491,977,462,0,0,0,1,0,1,1,0004-00-0001-64.png,0005-00-0001-77.png
00000014,864,0,1449591901378,1449591901794,478,488,0,0,0,4,3,1,7,0001-00-0000-77.png,0002-00-0001-82.png
00000014,865,0,1449591905116,1449591905522,959,475,0,0,0,1,2,1,3,0004-00-0001-11.png,0003-00-0000-68.png
00000014,866,0,1449591911077,1449591911449,991,449,0,0,0,2,3,1,5,0003-00-0000-25.png,0002-00-0001-34.png
00000014,867,1,1449591914387,1449591914399,518,418,0,0,0,0,1,1,1,0005-00-0000-33.png,0004-00-0000-20.png
00000014,868,1,1449591915977,1449591916381,915,501,0,0,0,1,0,1,1,0004-00-0001-88.png,0005-00-0001-55.png
00000014,869,0,1449591917806,1449591918300,358,427,0,0,0,3,2,1,5,0002-00-0000-47.png,0003-00-0000-75.png
00000014,870,1,1449591921266,1449591921704,964,436,0,0,0,4,3,1,7,0001-00-0001-32.png,0002-00-0000-97.png
00000014,871,0,1449591922637,1449591923145,881,463,0,0,0,3,4,1,7,0002-00-0000-37.png,0001-00-0000-07.png
00000014,872,1,1449591931345,1449591931794,982,491,0,0,0,2,1,1,3,0003-00-0000-51.png,0004-00-0001-57.png
00000014,873,1,1449591932732,1449591933321,900,488,0,0,0,2,1,1,3,0003-00-0000-77.png,0004-00-0001-57.png
00000014,874,0,1449591934707,1449591935190,881,499,0,0,0,1,2,1,3,0004-00-0000-24.png,0003-00-0000-04.png
00000014,875,0,1449591938266,1449591938305,520,547,0,0,0,1,0,1,1,0004-00-0001-46.png,0005-00-0001-75.png
00000014,876,0,1449591941142,1449591941621,978,435,0,0,0,0,1,1,1,0005-00-0000-75.png,0004-00-0001-63.png
00000014,877,1,1449591944845,1449591945489,973,471,0,0,0,4,3,1,7,0001-00-0000-71.png,0002-00-0001-45.png
00000014,878,0,1449591946499,1449591947018,862,488,0,0,0,3,4,1,7,0002-00-0001-43.png,0001-00-0000-70.png
00000014,879,1,1449591950101,1449591950526,1003,449,0,0,0,3,2,1,5,0002-00-0000-56.png,0003-00-0001-40.png
00000014,880,0,1449591951488,1449591951998,886,476,0,0,0,2,3,1,5,0003-00-0000-24.png,0002-00-0001-79.png
00000014,881,1,1449591954922,1449591955411,950,447,0,0,0,4,3,1,7,0001-00-0000-08.png,0002-00-0001-16.png
00000014,882,0,1449591956809,1449591957385,900,450,0,0,0,1,2,1,3,0004-00-0000-41.png,0003-00-0000-60.png
00000014,883,0,1449591960538,1449591960975,977,411,0,0,0,3,4,1,7,0002-00-0001-29.png,0001-00-0001-69.png
00000014,884,1,1449591964026,1449591964991,994,401,0,0,0,1,0,1,1,0004-00-0000-97.png,0005-00-0001-38.png
00000014,885,1,1449591965965,1449591966529,904,480,0,0,0,2,1,1,3,0003-00-0001-62.png,0004-00-0001-71.png
00000014,886,1,1449591967476,1449591967905,376,478,0,0,0,2,3,1,5,0003-00-0000-31.png,0002-00-0001-17.png
00000014,887,1,1449591969015,1449591969585,889,440,0,0,0,3,2,1,5,0002-00-0001-12.png,0003-00-0001-48.png
00000014,888,1,1449591970808,1449591971256,416,549,0,0,0,0,1,1,1,0005-00-0001-09.png,0004-00-0001-44.png
00000014,889,1,1449591972349,1449591972820,405,450,0,0,0,0,1,1,1,0005-00-0000-28.png,0004-00-0000-27.png
00000014,890,1,1449591973900,1449591974305,410,475,0,0,0,1,2,1,3,0004-00-0000-38.png,0003-00-0000-72.png
00000014,891,1,1449591975328,1449591975712,364,495,0,0,0,3,4,1,7,0002-00-0000-22.png,0001-00-0001-83.png
00000014,892,1,1449591976832,1449591977310,871,446,0,0,0,3,2,1,5,0002-00-0000-75.png,0003-00-0001-67.png
00000014,893,0,1449591978364,1449591978749,366,493,0,0,0,1,0,1,1,0004-00-0000-55.png,0005-00-0000-68.png
00000014,894,1,1449591981706,1449591982139,974,456,0,0,0,2,1,1,3,0003-00-0000-29.png,0004-00-0000-52.png
00000014,895,1,1449591983145,1449591983767,899,450,0,0,0,4,3,1,7,0001-00-0000-12.png,0002-00-0001-10.png
00000014,896,1,1449591984746,1449591985134,376,475,0,0,0,2,3,1,5,0003-00-0001-52.png,0002-00-0000-35.png
00000014,897,1,1449591986169,1449591986597,427,462,0,0,0,1,2,1,3,0004-00-0001-69.png,0003-00-0000-09.png
00000014,898,1,1449591987656,1449591988178,874,475,0,0,0,3,2,1,5,0002-00-0001-53.png,0003-00-0001-77.png
00000014,899,0,1449591989216,1449591989588,364,488,0,0,0,4,3,1,7,0001-00-0000-13.png,0002-00-0001-93.png
00000014,900,1,1449591992612,1449591993082,976,462,0,0,0,1,0,1,1,0004-00-0001-01.png,0005-00-0001-55.png
00000014,901,0,1449591994453,1449591994922,876,486,0,0,0,2,3,1,5,0003-00-0000-30.png,0002-00-0001-39.png
00000014,902,0,1449591997820,1449591998234,964,410,0,0,0,0,1,1,1,0005-00-0000-94.png,0004-00-0000-11.png
00000014,903,0,1449592001606,1449592002025,947,471,0,0,0,3,4,1,7,0002-00-0000-02.png,0001-00-0001-73.png
00000014,904,1,1449592005564,1449592005971,1001,436,0,0,0,2,1,1,3,0003-00-0000-56.png,0004-00-0000-69.png
00000014,905,0,1449592006935,1449592007512,900,476,0,0,0,3,4,1,7,0002-00-0001-53.png,0001-00-0000-64.png
00000014,906,0,1449592010483,1449592010912,984,435,0,0,0,1,2,1,3,0004-00-0000-76.png,0003-00-0000-70.png
00000014,907,1,1449592013852,1449592014254,977,411,0,0,0,1,0,1,1,0004-00-0001-61.png,0005-00-0000-15.png
00000014,908,1,1449592015184,1449592015604,374,447,0,0,0,0,1,1,1,0005-00-0001-57.png,0004-00-0001-91.png
00000014,909,1,1449592016659,1449592017178,878,466,0,0,0,4,3,1,7,0001-00-0000-66.png,0002-00-0000-63.png
00000014,910,0,1449592018238,1449592018602,453,501,0,0,0,3,2,1,5,0002-00-0000-03.png,0003-00-0000-68.png
00000014,911,0,1449592021654,1449592022084,982,447,0,0,0,2,3,1,5,0003-00-0000-74.png,0002-00-0000-87.png
00000014,912,1,1449592024907,1449592025314,922,392,0,0,0,2,1,1,3,0003-00-0001-48.png,0004-00-0000-62.png
00000014,913,0,1449592026252,1449592026904,897,485,0,0,0,1,2,1,3,0004-00-0000-53.png,0003-00-0000-66.png
00000014,914,1,1449592029803,1449592030210,912,512,0,0,0,2,1,1,3,0003-00-0000-24.png,0004-00-0001-41.png
00000014,915,1,1449592031190,1449592031889,956,464,0,0,0,1,0,1,1,0004-00-0001-59.png,0005-00-0000-77.png
00000014,916,0,1449592032848,1449592033383,874,465,0,0,0,3,4,1,7,0002-00-0000-29.png,0001-00-0001-70.png
00000014,917,1,1449592036352,1449592036783,971,415,0,0,0,3,2,1,5,0002-00-0001-07.png,0003-00-0000-39.png
00000014,918,1,1449592038161,1449592038605,414,475,0,0,0,0,1,1,1,0005-00-0000-18.png,0004-00-0000-27.png
00000014,919,0,1449592039665,1449592040078,444,471,0,0,0,4,3,1,7,0001-00-0000-23.png,0002-00-0001-85.png
00000014,920,1,1449592042964,1449592043651,495,427,0,0,0,2,3,1,5,0003-00-0001-95.png,0002-00-0001-63.png
00000014,921,1,1449592044625,1449592045142,898,447,0,0,0,3,2,1,5,0002-00-0000-80.png,0003-00-0000-26.png
00000014,922,1,1449592046622,1449592047104,418,453,0,0,0,1,2,1,3,0004-00-0000-75.png,0003-00-0001-35.png
00000014,923,1,1449592048127,1449592049095,912,450,0,0,0,1,0,1,1,0004-00-0001-54.png,0005-00-0001-78.png
00000014,924,1,1449592050606,1449592051062,427,423,0,0,0,0,1,1,1,0005-00-0000-70.png,0004-00-0001-32.png
00000014,925,0,1449592052153,1449592052704,909,475,0,0,0,3,4,1,7,0002-00-0000-01.png,0001-00-0001-79.png
00000014,926,1,1449592055764,1449592056201,990,476,0,0,0,2,1,1,3,0003-00-0000-00.png,0004-00-0001-22.png
00000014,927,0,1449592057128,1449592057773,876,487,0,0,0,2,3,1,5,0003-00-0001-82.png,0002-00-0000-70.png
00000014,928,1,1449592060825,1449592061268,978,486,0,0,0,4,3,1,7,0001-00-0001-25.png,0002-00-0001-11.png
00000014,929,1,1449592062338,1449592062433,480,564,0,0,0,2,3,1,5,0003-00-0000-48.png,0002-00-0001-95.png
00000014,930,0,1449592063634,1449592064143,888,462,0,0,0,1,2,1,3,0004-00-0000-29.png,0003-00-0001-19.png
00000014,931,1,1449592067663,1449592068114,904,401,0,0,0,4,3,1,7,0001-00-0001-78.png,0002-00-0001-79.png
00000014,932,0,1449592069059,1449592069583,875,464,0,0,0,3,4,1,7,0002-00-0001-07.png,0001-00-0000-95.png
00000014,933,1,1449592072531,1449592073036,989,476,0,0,0,2,1,1,3,0003-00-0001-27.png,0004-00-0000-66.png
00000014,934,1,1449592073975,1449592074529,876,468,0,0,0,3,2,1,5,0002-00-0001-35.png,0003-00-0000-15.png
00000014,935,0,1449592075554,1449592076155,902,467,0,0,0,0,1,1,1,0005-00-0001-63.png,0004-00-0000-46.png
00000014,936,1,1449592079273,1449592079739,977,436,0,0,0,1,0,1,1,0004-00-0001-30.png,0005-00-0001-53.png
00000014,937,0,1449592080684,1449592081111,370,499,0,0,0,1,0,1,1,0004-00-0000-21.png,0005-00-0000-20.png
00000014,938,0,1449592084110,1449592084558,969,468,0,0,0,1,2,1,3,0004-00-0001-40.png,0003-00-0001-59.png
00000014,939,1,1449592087700,1449592088243,365,443,0,0,0,0,1,1,1,0005-00-0000-37.png,0004-00-0000-00.png
00000014,940,1,1449592089533,1449592090023,901,487,0,0,0,2,1,1,3,0003-00-0001-61.png,0004-00-0001-54.png
00000014,941,1,1449592091091,1449592091864,927,469,0,0,0,4,3,1,7,0001-00-0001-75.png,0002-00-0001-04.png
00000014,942,0,1449592092870,1449592093454,913,488,0,0,0,2,3,1,5,0003-00-0001-86.png,0002-00-0000-60.png
00000014,943,1,1449592096305,1449592096795,925,501,0,0,0,3,2,1,5,0002-00-0001-44.png,0003-00-0001-77.png
00000014,944,0,1449592097784,1449592098304,871,472,0,0,0,3,4,1,7,0002-00-0000-18.png,0001-00-0000-28.png
00000014,945,0,1449592101288,1449592101732,972,471,0,0,0,1,2,1,3,0004-00-0000-78.png,0003-00-0000-88.png
00000014,946,0,1449592104997,1449592105467,947,470,0,0,0,0,1,1,1,0005-00-0000-18.png,0004-00-0001-18.png
00000014,947,1,1449592108941,1449592109411,991,467,0,0,0,4,3,1,7,0001-00-0000-04.png,0002-00-0001-35.png
00000014,948,0,1449592110374,1449592110885,902,468,0,0,0,3,4,1,7,0002-00-0001-55.png,0001-00-0000-47.png
00000014,949,1,1449592114375,1449592114750,974,405,0,0,0,2,1,1,3,0003-00-0001-12.png,0004-00-0000-89.png
00000014,950,0,1449592115648,1449592116302,900,463,0,0,0,2,3,1,5,0003-00-0001-80.png,0002-00-0000-98.png
00000014,951,1,1449592119683,1449592120104,975,435,0,0,0,1,0,1,1,0004-00-0000-61.png,0005-00-0000-23.png
