subject_id,trial,correct_response,stim_time,response_time,x_coord,y_coord,trial_timeout,timeout_time,interTrial_timeout,left_rank,right_rank,distance,joint_rank,left_image,right_image
00000009,1,0,1449865569103,1449865569111,859,276,0,0,0,0,1,1,1,0005-00-0000-77.png,0004-00-0001-04.png
00000009,2,0,1449865572175,1449865572716,1080,332,0,0,0,3,4,1,7,0002-00-0000-58.png,0001-00-0000-70.png
00000009,3,1,1449865576026,1449865576528,1059,288,0,0,0,1,0,1,1,0004-00-0001-01.png,0005-00-0001-78.png
00000009,4,0,1449865577497,1449865578479,971,349,0,0,0,2,3,1,5,0003-00-0000-34.png,0002-00-0001-28.png
00000009,5,1,1449865581671,1449865581884,944,273,0,0,0,2,1,1,3,0003-00-0001-99.png,0004-00-0000-18.png
00000009,6,1,1449865582845,1449865583830,956,367,0,0,0,3,2,1,5,0002-00-0001-24.png,0003-00-0000-74.png
00000009,7,1,1449865584874,1449865585001,899,509,0,0,0,4,3,1,7,0001-00-0001-35.png,0002-00-0000-88.png
00000009,8,1,1449865586014,1449865586739,435,218,0,0,0,1,2,1,3,0004-00-0001-37.png,0003-00-0000-22.png
00000009,9,1,1449865587705,1449865588665,401,334,0,0,0,2,3,1,5,0003-00-0001-68.png,0002-00-0001-73.png
00000009,10,0,1449865589646,1449865589702,860,453,0,0,0,1,2,1,3,0004-00-0000-83.png,0003-00-0000-43.png
00000009,11,1,1449865592792,1449865592804,886,280,0,0,0,4,3,1,7,0001-00-0001-99.png,0002-00-0000-73.png
00000009,12,0,1449865593750,1449865594420,434,246,0,0,0,2,1,1,3,0003-00-0000-72.png,0004-00-0001-16.png
00000009,13,1,1449865597283,1449865597307,876,331,0,0,0,3,2,1,5,0002-00-0001-98.png,0003-00-0001-15.png
00000009,14,0,1449865598196,1449865598840,370,372,0,0,0,1,0,1,1,0004-00-0000-48.png,0005-00-0001-35.png
00000009,15,0,1449865667673,1449865668129,981,326,0,0,0,0,1,1,1,0005-00-0000-30.png,0004-00-0001-57.png
00000009,16,1,1449865671281,1449865671896,507,283,0,0,0,3,4,1,7,0002-00-0000-43.png,0001-00-0000-88.png
00000009,17,1,1449865672719,1449865673546,409,344,0,0,0,2,3,1,5,0003-00-0001-01.png,0002-00-0001-78.png
00000009,18,1,1449865674491,1449865675208,507,267,0,0,0,1,2,1,3,0004-00-0001-40.png,0003-00-0000-51.png
00000009,19,1,1449865676110,1449865676789,964,390,0,0,0,2,1,1,3,0003-00-0001-65.png,0004-00-0000-85.png
00000009,20,1,1449865677680,1449865678386,368,359,0,0,0,3,4,1,7,0002-00-0000-57.png,0001-00-0001-65.png
00000009,21,1,1449865679278,1449865679857,1041,263,0,0,0,1,0,1,1,0004-00-0000-18.png,0005-00-0000-35.png
00000009,22,1,1449865680764,1449865680800,869,437,0,0,0,3,2,1,5,0002-00-0001-68.png,0003-00-0000-05.png
00000009,23,1,1449865681793,1449865681920,872,515,0,0,0,4,3,1,7,0001-00-0000-21.png,0002-00-0000-21.png
00000009,24,1,1449865683452,1449865684010,408,356,0,0,0,0,1,1,1,0005-00-0000-85.png,0004-00-0000-19.png
00000009,25,0,1449865684917,1449865685519,924,273,0,0,0,3,4,1,7,0002-00-0000-95.png,0001-00-0001-23.png
00000009,26,1,1449865688472,1449865688951,939,332,0,0,0,1,0,1,1,0004-00-0000-29.png,0005-00-0001-49.png
00000009,27,1,1449865690308,1449865690801,1015,266,0,0,0,4,3,1,7,0001-00-0000-10.png,0002-00-0000-55.png
00000009,28,0,1449865691693,1449865691823,862,469,0,0,0,0,1,1,1,0005-00-0001-71.png,0004-00-0001-52.png
00000009,29,0,1449865694904,1449865695447,498,267,0,0,0,2,1,1,3,0003-00-0001-62.png,0004-00-0000-49.png
00000009,30,1,1449865698650,1449865699214,462,323,0,0,0,1,2,1,3,0004-00-0001-77.png,0003-00-0001-36.png
00000009,31,1,1449865700047,1449865700647,439,299,0,0,0,2,3,1,5,0003-00-0001-38.png,0002-00-0000-42.png
00000009,32,0,1449865701544,1449865702257,444,265,0,0,0,3,2,1,5,0002-00-0001-86.png,0003-00-0000-24.png
00000009,33,1,1449865705506,1449865706059,451,298,0,0,0,1,2,1,3,0004-00-0000-41.png,0003-00-0000-93.png
00000009,34,1,1449865706899,1449865707629,461,276,0,0,0,2,3,1,5,0003-00-0000-28.png,0002-00-0000-15.png
00000009,35,0,1449865709025,1449865709630,462,279,0,0,0,1,0,1,1,0004-00-0000-48.png,0005-00-0000-18.png
00000009,36,0,1449865715079,1449865715594,430,283,0,0,0,4,3,1,7,0001-00-0000-52.png,0002-00-0000-62.png
00000009,37,0,1449865718782,1449865719318,888,252,0,0,0,3,4,1,7,0002-00-0001-17.png,0001-00-0000-48.png
00000009,38,0,1449865763929,1449865764401,988,273,0,0,0,0,1,1,1,0005-00-0000-08.png,0004-00-0000-07.png
00000009,39,1,1449865767427,1449865767475,913,303,0,0,0,2,1,1,3,0003-00-0000-81.png,0004-00-0000-38.png
00000009,40,1,1449865768411,1449865769247,939,394,0,0,0,3,2,1,5,0002-00-0001-87.png,0003-00-0001-72.png
00000009,41,1,1449865770191,1449865770431,941,531,0,0,0,2,1,1,3,0003-00-0000-82.png,0004-00-0001-10.png
00000009,42,0,1449865771533,1449865772310,964,358,0,0,0,3,4,1,7,0002-00-0001-87.png,0001-00-0000-01.png
00000009,43,1,1449865775408,1449865775934,404,411,0,0,0,1,2,1,3,0004-00-0000-88.png,0003-00-0001-58.png
00000009,44,1,1449865776768,1449865777571,880,333,0,0,0,4,3,1,7,0001-00-0001-17.png,0002-00-0001-83.png
00000009,45,0,1449865778481,1449865779143,499,285,0,0,0,3,2,1,5,0002-00-0001-54.png,0003-00-0000-34.png
00000009,46,1,1449865781980,1449865782012,1002,407,0,0,0,1,0,1,1,0004-00-0000-88.png,0005-00-0001-04.png
00000009,47,0,1449865782942,1449865783704,1029,279,0,0,0,0,1,1,1,0005-00-0000-19.png,0004-00-0001-13.png
00000009,48,0,1449865786785,1449865787372,913,348,0,0,0,2,3,1,5,0003-00-0001-79.png,0002-00-0000-07.png
00000009,49,1,1449865790503,1449865790531,860,297,0,0,0,3,2,1,5,0002-00-0001-89.png,0003-00-0001-71.png
00000009,50,1,1449865791451,1449865792109,1016,265,0,0,0,1,0,1,1,0004-00-0001-63.png,0005-00-0000-75.png
00000009,51,0,1449865792959,1449865793081,876,475,0,0,0,1,2,1,3,0004-00-0001-06.png,0003-00-0001-68.png
00000009,52,0,1449865796128,1449865796781,403,375,0,0,0,2,1,1,3,0003-00-0000-67.png,0004-00-0001-66.png
00000009,53,0,1449865805056,1449865805648,951,344,0,0,0,3,4,1,7,0002-00-0000-63.png,0001-00-0000-39.png
00000009,54,1,1449865808579,1449865809212,939,332,0,0,0,4,3,1,7,0001-00-0000-26.png,0002-00-0000-53.png
00000009,55,0,1449865810065,1449865810176,860,485,0,0,0,2,3,1,5,0003-00-0000-76.png,0002-00-0000-53.png
00000009,56,1,1449865813219,1449865813737,490,304,0,0,0,0,1,1,1,0005-00-0001-97.png,0004-00-0000-26.png
00000009,57,1,1449865815107,1449865815608,1016,262,0,0,0,2,1,1,3,0003-00-0001-80.png,0004-00-0001-14.png
00000009,58,1,1449865816466,1449865816711,935,536,0,0,0,3,2,1,5,0002-00-0000-85.png,0003-00-0001-70.png
00000009,59,1,1449865817730,1449865818560,468,252,0,0,0,1,2,1,3,0004-00-0000-76.png,0003-00-0000-23.png
00000009,60,1,1449865819451,1449865820065,1049,268,0,0,0,1,0,1,1,0004-00-0000-37.png,0005-00-0000-08.png
00000009,61,1,1449865820909,1449865821048,911,488,0,0,0,4,3,1,7,0001-00-0001-73.png,0002-00-0001-71.png
00000009,62,0,1449865822044,1449865822116,883,469,0,0,0,0,1,1,1,0005-00-0000-85.png,0004-00-0000-77.png
00000009,63,1,1449865825331,1449865825850,486,265,0,0,0,3,4,1,7,0002-00-0001-29.png,0001-00-0001-55.png
00000009,64,1,1449865827181,1449865827938,443,406,0,0,0,2,3,1,5,0003-00-0000-47.png,0002-00-0000-70.png
00000009,65,0,1449865829287,1449865829801,1010,266,0,0,0,0,1,1,1,0005-00-0001-37.png,0004-00-0001-18.png
00000009,66,1,1449865832993,1449865833567,501,305,0,0,0,1,2,1,3,0004-00-0000-51.png,0003-00-0000-71.png
00000009,67,1,1449865834893,1449865835541,416,332,0,0,0,2,3,1,5,0003-00-0001-16.png,0002-00-0001-74.png
00000009,68,1,1449865836931,1449865837497,957,305,0,0,0,1,0,1,1,0004-00-0000-61.png,0005-00-0000-45.png
00000009,69,1,1449865838358,1449865838422,881,417,0,0,0,2,1,1,3,0003-00-0000-67.png,0004-00-0000-74.png
00000009,70,1,1449865839305,1449865839372,862,397,0,0,0,3,2,1,5,0002-00-0001-98.png,0003-00-0000-54.png
00000009,71,1,1449865840409,1449865840502,882,495,0,0,0,4,3,1,7,0001-00-0001-82.png,0002-00-0000-33.png
00000009,72,0,1449865841482,1449865841558,875,453,0,0,0,3,4,1,7,0002-00-0001-67.png,0001-00-0001-54.png
00000009,73,1,1449865852262,1449865852792,419,408,0,0,0,3,4,1,7,0002-00-0000-43.png,0001-00-0000-99.png
00000009,74,0,1449865853685,1449865853741,874,410,0,0,0,1,2,1,3,0004-00-0000-93.png,0003-00-0000-13.png
00000009,75,1,1449865856586,1449865857042,937,388,0,0,0,3,2,1,5,0002-00-0001-60.png,0003-00-0000-92.png
00000009,76,0,1449865858365,1449865859023,451,302,0,0,0,4,3,1,7,0001-00-0001-68.png,0002-00-0001-84.png
00000009,77,0,1449865861901,1449865862386,921,322,0,0,0,0,1,1,1,0005-00-0001-37.png,0004-00-0000-83.png
00000009,78,1,1449865865219,1449865865271,886,354,0,0,0,1,0,1,1,0004-00-0001-97.png,0005-00-0001-19.png
00000009,79,0,1449865866165,1449865867015,913,293,0,0,0,2,3,1,5,0003-00-0000-80.png,0002-00-0001-15.png
00000009,80,1,1449865869926,1449865870578,939,321,0,0,0,2,1,1,3,0003-00-0000-93.png,0004-00-0000-04.png
00000009,81,1,1449865871525,1449865872210,913,266,0,0,0,1,0,1,1,0004-00-0000-63.png,0005-00-0001-73.png
00000009,82,1,1449865873096,1449865873966,462,225,0,0,0,2,3,1,5,0003-00-0001-28.png,0002-00-0001-08.png
00000009,83,1,1449865874923,1449865876086,961,313,0,0,0,3,2,1,5,0002-00-0001-32.png,0003-00-0000-29.png
00000009,84,0,1449865877008,1449865877072,862,433,0,0,0,3,4,1,7,0002-00-0000-54.png,0001-00-0001-57.png
00000009,85,1,1449865880159,1449865880235,966,332,0,0,0,2,1,1,3,0003-00-0001-07.png,0004-00-0001-19.png
00000009,86,1,1449865881115,1449865881794,482,235,0,0,0,1,2,1,3,0004-00-0000-64.png,0003-00-0000-71.png
00000009,87,1,1449865882684,1449865883504,946,323,0,0,0,4,3,1,7,0001-00-0001-16.png,0002-00-0001-11.png
00000009,88,1,1449865884431,1449865885126,348,388,0,0,0,0,1,1,1,0005-00-0000-46.png,0004-00-0000-24.png
00000009,89,1,1449865886481,1449865887138,466,241,0,0,0,1,2,1,3,0004-00-0000-03.png,0003-00-0000-31.png
00000009,90,0,1449865887959,1449865888567,447,236,0,0,0,4,3,1,7,0001-00-0000-64.png,0002-00-0000-38.png
00000009,91,1,1449865891657,1449865891697,888,332,0,0,0,3,2,1,5,0002-00-0001-41.png,0003-00-0001-27.png
00000009,92,0,1449865892604,1449865893166,451,247,0,0,0,1,0,1,1,0004-00-0000-19.png,0005-00-0000-15.png
00000009,93,1,1449865896138,1449865896194,890,293,0,0,0,2,1,1,3,0003-00-0001-54.png,0004-00-0001-09.png
00000009,94,1,1449865897076,1449865897855,406,356,0,0,0,0,1,1,1,0005-00-0001-90.png,0004-00-0000-30.png
00000009,95,1,1449865899289,1449865899927,489,237,0,0,0,3,4,1,7,0002-00-0000-67.png,0001-00-0000-74.png
00000009,96,1,1449865900781,1449865901433,462,248,0,0,0,2,3,1,5,0003-00-0001-28.png,0002-00-0001-87.png
00000009,97,1,1449865902332,1449865903192,462,273,0,0,0,1,2,1,3,0004-00-0001-76.png,0003-00-0000-60.png
00000009,98,1,1449865904059,1449865904757,491,291,0,0,0,2,3,1,5,0003-00-0001-82.png,0002-00-0000-81.png
00000009,99,1,1449865905650,1449865906353,466,246,0,0,0,3,4,1,7,0002-00-0000-16.png,0001-00-0000-89.png
00000009,100,1,1449865907207,1449865907999,964,292,0,0,0,3,2,1,5,0002-00-0001-57.png,0003-00-0001-88.png
00000009,101,1,1449865908907,1449865909534,1067,227,0,0,0,1,0,1,1,0004-00-0001-56.png,0005-00-0000-30.png
00000009,102,1,1449865910369,1449865911164,494,233,0,0,0,0,1,1,1,0005-00-0000-71.png,0004-00-0001-54.png
00000009,103,0,1449865912038,1449865913021,424,360,0,0,0,2,1,1,3,0003-00-0001-65.png,0004-00-0001-64.png
00000009,104,1,1449865916174,1449865916340,862,322,0,0,0,4,3,1,7,0001-00-0000-33.png,0002-00-0000-35.png
00000009,105,1,1449865917306,1449865917922,993,257,0,0,0,2,1,1,3,0003-00-0000-52.png,0004-00-0000-25.png
00000009,106,0,1449865918869,1449865918945,894,445,0,0,0,1,2,1,3,0004-00-0001-17.png,0003-00-0000-86.png
00000009,107,1,1449865921959,1449865922493,990,279,0,0,0,4,3,1,7,0001-00-0001-11.png,0002-00-0000-10.png
00000009,108,1,1449865923321,1449865924048,964,367,0,0,0,1,0,1,1,0004-00-0001-83.png,0005-00-0001-92.png
00000009,109,0,1449865924879,1449865924939,862,384,0,0,0,0,1,1,1,0005-00-0001-69.png,0004-00-0001-18.png
00000009,110,0,1449865928130,1449865928646,939,396,0,0,0,3,4,1,7,0002-00-0000-99.png,0001-00-0001-48.png
00000009,111,1,1449865931797,1449865931903,859,281,0,0,0,3,2,1,5,0002-00-0001-74.png,0003-00-0000-52.png
00000009,112,1,1449865932812,1449865933437,373,352,0,0,0,2,3,1,5,0003-00-0001-63.png,0002-00-0000-12.png
00000009,113,0,1449865934371,1449865935034,475,240,0,0,0,1,0,1,1,0004-00-0001-84.png,0005-00-0000-44.png
00000009,114,1,1449865938158,1449865938642,1016,279,0,0,0,3,2,1,5,0002-00-0000-25.png,0003-00-0001-38.png
00000009,115,1,1449865939527,1449865940192,493,253,0,0,0,2,3,1,5,0003-00-0000-88.png,0002-00-0000-70.png
00000009,116,1,1449865941057,1449865941835,922,302,0,0,0,4,3,1,7,0001-00-0001-67.png,0002-00-0000-66.png
00000009,117,0,1449865942778,1449865943530,1007,256,0,0,0,3,4,1,7,0002-00-0001-48.png,0001-00-0001-01.png
00000009,118,1,1449865946532,1449865947121,964,384,0,0,0,2,1,1,3,0003-00-0000-78.png,0004-00-0001-64.png
00000009,119,1,1449865948025,1449865948785,504,236,0,0,0,0,1,1,1,0005-00-0000-69.png,0004-00-0000-55.png
00000009,120,0,1449865949611,1449865950527,942,365,0,0,0,1,2,1,3,0004-00-0001-82.png,0003-00-0000-53.png
00000009,121,1,1449865953609,1449865954418,1016,315,0,0,0,4,3,1,7,0001-00-0000-70.png,0002-00-0001-17.png
00000009,122,1,1449865955308,1449865956031,502,226,0,0,0,0,1,1,1,0005-00-0000-06.png,0004-00-0000-11.png
00000009,123,0,1449865956887,1449865957690,1042,278,0,0,0,2,3,1,5,0003-00-0000-04.png,0002-00-0001-51.png
00000009,124,0,1449865960871,1449865961399,913,317,0,0,0,1,2,1,3,0004-00-0000-56.png,0003-00-0001-24.png
00000009,125,1,1449865964225,1449865964297,894,362,0,0,0,2,1,1,3,0003-00-0000-14.png,0004-00-0001-29.png
00000009,126,1,1449865965155,1449865965795,913,279,0,0,0,3,2,1,5,0002-00-0001-60.png,0003-00-0000-09.png
00000009,127,0,1449865966650,1449865967262,482,252,0,0,0,1,0,1,1,0004-00-0001-09.png,0005-00-0001-25.png
00000009,128,0,1449865970374,1449865970609,879,394,0,0,0,3,4,1,7,0002-00-0001-14.png,0001-00-0001-02.png
00000009,129,0,1449865973774,1449865974402,484,274,0,0,0,4,3,1,7,0001-00-0001-36.png,0002-00-0001-60.png
00000009,130,1,1449865977459,1449865978134,428,396,0,0,0,1,2,1,3,0004-00-0000-17.png,0003-00-0001-60.png
00000009,131,0,1449865979568,1449865980518,445,273,0,0,0,2,1,1,3,0003-00-0001-15.png,0004-00-0000-69.png
00000009,132,1,1449865983703,1449865984354,939,358,0,0,0,3,2,1,5,0002-00-0001-17.png,0003-00-0000-91.png
00000009,133,1,1449865985410,1449865986730,480,247,0,0,0,3,4,1,7,0002-00-0001-36.png,0001-00-0000-09.png
00000009,134,1,1449865987726,1449865988388,1048,263,0,0,0,1,0,1,1,0004-00-0001-00.png,0005-00-0001-14.png
00000009,135,0,1449865989305,1449865989333,862,395,0,0,0,2,3,1,5,0003-00-0001-39.png,0002-00-0000-70.png
00000009,136,0,1449865992932,1449865993480,939,410,0,0,0,0,1,1,1,0005-00-0000-54.png,0004-00-0001-65.png
00000009,137,0,1449865996453,1449865996898,1007,279,0,0,0,0,1,1,1,0005-00-0000-50.png,0004-00-0001-16.png
00000009,138,0,1449865999742,1449865999766,879,360,0,0,0,3,4,1,7,0002-00-0001-61.png,0001-00-0001-38.png
00000009,139,1,1449866002714,1449866003235,939,374,0,0,0,1,0,1,1,0004-00-0000-74.png,0005-00-0001-06.png
00000009,140,0,1449866004116,1449866004241,862,462,0,0,0,1,2,1,3,0004-00-0001-61.png,0003-00-0001-22.png
00000009,141,1,1449866007072,1449866007867,945,359,0,0,0,4,3,1,7,0001-00-0001-45.png,0002-00-0001-06.png
00000009,142,0,1449866008864,1449866008912,858,450,0,0,0,2,3,1,5,0003-00-0000-83.png,0002-00-0001-50.png
00000009,143,0,1449866011904,1449866012525,484,261,0,0,0,2,1,1,3,0003-00-0001-00.png,0004-00-0001-27.png
00000009,144,1,1449866015742,1449866015762,862,332,0,0,0,3,2,1,5,0002-00-0001-89.png,0003-00-0000-14.png
00000009,145,1,1449866016615,1449866017527,1016,261,0,0,0,3,2,1,5,0002-00-0000-08.png,0003-00-0000-53.png
00000009,146,1,1449866018384,1449866019177,931,312,0,0,0,4,3,1,7,0001-00-0001-90.png,0002-00-0001-44.png
00000009,147,1,1449866020073,1449866020804,928,358,0,0,0,2,1,1,3,0003-00-0000-99.png,0004-00-0001-53.png
00000009,148,0,1449866021671,1449866022651,1041,306,0,0,0,1,2,1,3,0004-00-0000-99.png,0003-00-0000-65.png
00000009,149,0,1449866025490,1449866026034,970,355,0,0,0,2,3,1,5,0003-00-0001-79.png,0002-00-0001-05.png
00000009,150,0,1449866029059,1449866029067,859,340,0,0,0,3,4,1,7,0002-00-0000-40.png,0001-00-0001-04.png
00000009,151,0,1449866032075,1449866032607,1044,276,0,0,0,0,1,1,1,0005-00-0000-31.png,0004-00-0001-28.png
00000009,152,0,1449866035487,1449866036025,477,290,0,0,0,1,0,1,1,0004-00-0000-31.png,0005-00-0000-24.png
00000009,153,1,1449866039115,1449866039740,491,258,0,0,0,0,1,1,1,0005-00-0001-44.png,0004-00-0001-86.png
00000009,154,0,1449866041043,1449866041789,478,236,0,0,0,2,1,1,3,0003-00-0000-59.png,0004-00-0000-99.png
00000009,155,1,1449866044657,1449866045221,943,346,0,0,0,1,0,1,1,0004-00-0001-98.png,0005-00-0000-90.png
00000009,156,0,1449866046573,1449866047122,453,410,0,0,0,3,2,1,5,0002-00-0001-07.png,0003-00-0001-17.png
00000009,157,1,1449866050224,1449866050859,485,245,0,0,0,3,4,1,7,0002-00-0000-03.png,0001-00-0001-27.png
00000009,158,1,1449866051682,1449866052480,476,250,0,0,0,2,3,1,5,0003-00-0001-01.png,0002-00-0000-44.png
00000009,159,1,1449866053364,1449866054031,491,222,0,0,0,1,2,1,3,0004-00-0001-58.png,0003-00-0000-46.png
00000009,160,1,1449866054896,1449866055901,939,387,0,0,0,4,3,1,7,0001-00-0000-62.png,0002-00-0000-18.png
00000009,161,1,1449866056863,1449866056952,881,468,0,0,0,2,1,1,3,0003-00-0001-92.png,0004-00-0000-27.png
00000009,162,1,1449866057918,1449866057969,859,452,0,0,0,3,2,1,5,0002-00-0000-43.png,0003-00-0001-65.png
00000009,163,1,1449866058952,1449866059772,464,370,0,0,0,1,2,1,3,0004-00-0000-50.png,0003-00-0001-59.png
00000009,164,0,1449866060631,1449866061306,494,245,0,0,0,4,3,1,7,0001-00-0001-91.png,0002-00-0000-95.png
00000009,165,0,1449866064195,1449866064815,913,244,0,0,0,0,1,1,1,0005-00-0000-38.png,0004-00-0000-33.png
00000009,166,0,1449866067834,1449866067951,897,332,0,0,0,3,4,1,7,0002-00-0001-60.png,0001-00-0001-90.png
00000009,167,0,1449866070815,1449866071043,916,334,0,0,0,2,3,1,5,0003-00-0001-62.png,0002-00-0000-46.png
00000009,168,1,1449866074176,1449866074775,964,297,0,0,0,1,0,1,1,0004-00-0000-61.png,0005-00-0000-33.png
00000009,169,1,1449866076083,1449866076707,942,310,0,0,0,1,0,1,1,0004-00-0000-13.png,0005-00-0001-61.png
00000009,170,1,1449866077541,1449866078377,1014,263,0,0,0,4,3,1,7,0001-00-0001-90.png,0002-00-0001-24.png
00000009,171,1,1449866079325,1449866079373,883,415,0,0,0,3,2,1,5,0002-00-0001-09.png,0003-00-0000-04.png
00000009,172,1,1449866080235,1449866081578,440,326,0,0,0,3,4,1,7,0002-00-0000-74.png,0001-00-0001-10.png
00000009,173,1,1449866082419,1449866083105,384,325,0,0,0,1,2,1,3,0004-00-0000-11.png,0003-00-0000-54.png
00000009,174,0,1449866083974,1449866085449,498,258,0,0,0,2,1,1,3,0003-00-0000-73.png,0004-00-0000-34.png
00000009,175,0,1449866088555,1449866088591,912,313,0,0,0,2,3,1,5,0003-00-0000-40.png,0002-00-0000-95.png
00000009,176,0,1449866091704,1449866091728,891,328,0,0,0,0,1,1,1,0005-00-0000-74.png,0004-00-0000-18.png
00000009,177,1,1449866094727,1449866094775,882,357,0,0,0,4,3,1,7,0001-00-0000-01.png,0002-00-0001-27.png
00000009,178,1,1449866095640,1449866096545,1016,268,0,0,0,1,0,1,1,0004-00-0000-96.png,0005-00-0000-29.png
00000009,179,1,1449866097374,1449866098048,483,228,0,0,0,1,2,1,3,0004-00-0001-81.png,0003-00-0000-36.png
00000009,180,1,1449866098920,1449866099721,939,279,0,0,0,2,1,1,3,0003-00-0001-41.png,0004-00-0001-90.png
00000009,181,1,1449866100589,1449866101665,964,306,0,0,0,3,2,1,5,0002-00-0000-14.png,0003-00-0001-45.png
00000009,182,1,1449866102493,1449866103416,497,234,0,0,0,3,4,1,7,0002-00-0000-79.png,0001-00-0001-06.png
00000009,183,1,1449866104243,1449866105062,415,384,0,0,0,0,1,1,1,0005-00-0000-42.png,0004-00-0000-22.png
00000009,184,0,1449866106464,1449866107188,964,347,0,0,0,2,3,1,5,0003-00-0000-27.png,0002-00-0001-31.png
00000009,185,0,1449866110251,1449866110267,875,350,0,0,0,1,2,1,3,0004-00-0000-69.png,0003-00-0001-43.png
00000009,186,1,1449866113122,1449866113655,1027,253,0,0,0,1,0,1,1,0004-00-0001-75.png,0005-00-0001-43.png
00000009,187,0,1449866114909,1449866115274,884,544,0,0,0,3,4,1,7,0002-00-0001-62.png,0001-00-0000-79.png
00000009,188,1,1449866118448,1449866118573,857,399,0,0,0,3,2,1,5,0002-00-0001-55.png,0003-00-0001-68.png
00000009,189,1,1449866119530,1449866120187,493,225,0,0,0,2,3,1,5,0003-00-0001-93.png,0002-00-0000-65.png
00000009,190,1,1449866121072,1449866121773,414,364,0,0,0,0,1,1,1,0005-00-0001-28.png,0004-00-0000-58.png
00000009,191,1,1449866122631,1449866123307,939,371,0,0,0,2,1,1,3,0003-00-0000-57.png,0004-00-0001-22.png
00000009,192,1,1449866124162,1449866124871,1041,253,0,0,0,4,3,1,7,0001-00-0001-27.png,0002-00-0000-01.png
00000009,193,0,1449866125832,1449866125904,878,460,0,0,0,3,4,1,7,0002-00-0000-50.png,0001-00-0001-23.png
00000009,194,1,1449866128881,1449866129398,947,375,0,0,0,1,0,1,1,0004-00-0000-89.png,0005-00-0001-31.png
00000009,195,0,1449866130741,1449866131302,1029,279,0,0,0,1,2,1,3,0004-00-0000-74.png,0003-00-0001-79.png
00000009,196,1,1449866134258,1449866134316,889,336,0,0,0,4,3,1,7,0001-00-0001-16.png,0002-00-0001-02.png
00000009,197,1,1449866135201,1449866136269,961,363,0,0,0,3,2,1,5,0002-00-0000-93.png,0003-00-0001-15.png
00000009,198,1,1449866137211,1449866137914,496,246,0,0,0,2,3,1,5,0003-00-0001-37.png,0002-00-0000-98.png
00000009,199,1,1449866138780,1449866139459,1038,250,0,0,0,2,1,1,3,0003-00-0000-10.png,0004-00-0001-15.png
00000009,200,1,1449866140371,1449866141593,397,218,0,0,0,0,1,1,1,0005-00-0001-93.png,0004-00-0000-40.png
00000009,201,0,1449866142857,1449866142921,857,496,0,0,0,3,4,1,7,0002-00-0001-18.png,0001-00-0000-41.png
00000009,202,1,1449866146026,1449866146074,882,311,0,0,0,3,2,1,5,0002-00-0001-16.png,0003-00-0001-48.png
00000009,203,1,1449866146982,1449866147564,490,238,0,0,0,1,2,1,3,0004-00-0000-44.png,0003-00-0001-71.png
00000009,204,1,1449866148399,1449866149148,412,308,0,0,0,0,1,1,1,0005-00-0001-79.png,0004-00-0001-68.png
00000009,205,1,1449866149978,1449866150956,919,325,0,0,0,2,1,1,3,0003-00-0001-91.png,0004-00-0001-36.png
00000009,206,1,1449866151862,1449866152614,414,348,0,0,0,2,3,1,5,0003-00-0000-23.png,0002-00-0001-15.png
00000009,207,1,1449866153479,1449866154112,1032,253,0,0,0,1,0,1,1,0004-00-0000-69.png,0005-00-0001-86.png
00000009,208,1,1449866154988,1449866155801,913,427,0,0,0,4,3,1,7,0001-00-0000-89.png,0002-00-0001-97.png
00000009,209,0,1449866156747,1449866157512,1028,279,0,0,0,2,3,1,5,0003-00-0001-29.png,0002-00-0001-91.png
00000009,210,1,1449866161548,1449866162116,961,426,0,0,0,1,0,1,1,0004-00-0001-09.png,0005-00-0001-38.png
00000009,211,1,1449866162966,1449866163662,489,238,0,0,0,1,2,1,3,0004-00-0000-59.png,0003-00-0000-18.png
00000009,212,1,1449866164494,1449866165128,935,379,0,0,0,2,1,1,3,0003-00-0000-34.png,0004-00-0001-95.png
00000009,213,1,1449866166011,1449866166678,418,362,0,0,0,0,1,1,1,0005-00-0001-56.png,0004-00-0001-92.png
00000009,214,1,1449866167518,1449866168549,964,320,0,0,0,3,2,1,5,0002-00-0000-63.png,0003-00-0001-48.png
00000009,215,1,1449866169438,1449866170131,469,255,0,0,0,3,4,1,7,0002-00-0000-85.png,0001-00-0000-73.png
00000009,216,1,1449866171031,1449866171807,927,380,0,0,0,4,3,1,7,0001-00-0000-58.png,0002-00-0000-99.png
00000009,217,0,1449866172836,1449866172902,860,405,0,0,0,0,1,1,1,0005-00-0000-75.png,0004-00-0001-81.png
00000009,218,0,1449866176026,1449866176582,421,389,0,0,0,3,2,1,5,0002-00-0000-34.png,0003-00-0000-31.png
00000009,219,1,1449866179530,1449866179561,916,361,0,0,0,1,0,1,1,0004-00-0001-45.png,0005-00-0000-44.png
00000009,220,1,1449866180470,1449866181004,364,347,0,0,0,1,2,1,3,0004-00-0000-19.png,0003-00-0001-23.png
00000009,221,0,1449866181834,1449866182484,485,246,0,0,0,4,3,1,7,0001-00-0000-53.png,0002-00-0000-17.png
00000009,222,0,1449866185577,1449866186078,1049,287,0,0,0,3,4,1,7,0002-00-0001-44.png,0001-00-0001-61.png
00000009,223,1,1449866189173,1449866189696,1042,275,0,0,0,2,1,1,3,0003-00-0001-31.png,0004-00-0000-44.png
00000009,224,1,1449866190533,1449866191481,505,259,0,0,0,2,3,1,5,0003-00-0001-13.png,0002-00-0000-14.png
00000009,225,1,1449866192890,1449866193673,940,375,0,0,0,3,2,1,5,0002-00-0001-38.png,0003-00-0001-56.png
00000009,226,0,1449866194519,1449866195319,385,350,0,0,0,2,1,1,3,0003-00-0000-03.png,0004-00-0001-84.png
00000009,227,0,1449866198175,1449866198858,964,306,0,0,0,2,3,1,5,0003-00-0001-21.png,0002-00-0000-48.png
00000009,228,1,1449866201843,1449866202441,964,367,0,0,0,4,3,1,7,0001-00-0001-72.png,0002-00-0001-79.png
00000009,229,0,1449866203303,1449866204140,1030,253,0,0,0,1,2,1,3,0004-00-0000-99.png,0003-00-0000-53.png
00000009,230,1,1449866207281,1449866207801,1041,262,0,0,0,1,0,1,1,0004-00-0001-42.png,0005-00-0001-39.png
00000009,231,1,1449866208630,1449866209430,483,234,0,0,0,3,4,1,7,0002-00-0000-07.png,0001-00-0001-94.png
00000009,232,1,1449866210260,1449866210904,490,227,0,0,0,0,1,1,1,0005-00-0001-06.png,0004-00-0001-80.png
00000009,233,0,1449866211742,1449866212578,497,237,0,0,0,4,3,1,7,0001-00-0001-07.png,0002-00-0000-38.png
00000009,234,0,1449866215726,1449866216364,420,324,0,0,0,3,2,1,5,0002-00-0001-45.png,0003-00-0001-57.png
00000009,235,1,1449866219840,1449866220538,481,261,0,0,0,3,4,1,7,0002-00-0000-54.png,0001-00-0001-61.png
00000009,236,1,1449866221848,1449866222405,963,451,0,0,0,2,1,1,3,0003-00-0001-98.png,0004-00-0000-83.png
00000009,237,1,1449866223278,1449866223869,476,245,0,0,0,0,1,1,1,0005-00-0001-28.png,0004-00-0001-75.png
00000009,238,1,1449866224742,1449866225339,888,294,0,0,0,1,0,1,1,0004-00-0001-60.png,0005-00-0000-67.png
00000009,239,1,1449866226211,1449866227470,481,263,0,0,0,2,3,1,5,0003-00-0000-09.png,0002-00-0000-09.png
00000009,240,1,1449866228330,1449866228949,482,288,0,0,0,1,2,1,3,0004-00-0001-69.png,0003-00-0001-29.png
00000009,241,0,1449866229771,1449866230720,1017,316,0,0,0,2,3,1,5,0003-00-0001-91.png,0002-00-0001-17.png
00000009,242,0,1449866233677,1449866233885,928,306,0,0,0,3,4,1,7,0002-00-0001-51.png,0001-00-0001-70.png
00000009,243,1,1449866236726,1449866237432,995,432,0,0,0,4,3,1,7,0001-00-0000-74.png,0002-00-0000-80.png
00000009,244,1,1449866238263,1449866238889,900,298,0,0,0,1,0,1,1,0004-00-0000-06.png,0005-00-0000-16.png
00000009,245,1,1449866239765,1449866240371,414,364,0,0,0,1,2,1,3,0004-00-0001-97.png,0003-00-0001-29.png
00000009,246,1,1449866241234,1449866241825,492,244,0,0,0,0,1,1,1,0005-00-0000-79.png,0004-00-0001-57.png
00000009,247,1,1449866243177,1449866243948,920,273,0,0,0,2,1,1,3,0003-00-0001-82.png,0004-00-0001-48.png
00000009,248,0,1449866244787,1449866245484,517,227,0,0,0,3,2,1,5,0002-00-0001-60.png,0003-00-0000-61.png
00000009,249,1,1449866248381,1449866248925,944,350,0,0,0,2,1,1,3,0003-00-0000-09.png,0004-00-0000-90.png
00000009,250,0,1449866250272,1449866250557,963,504,0,0,0,2,3,1,5,0003-00-0000-52.png,0002-00-0001-65.png
00000009,251,0,1449866253671,1449866253692,885,327,0,0,0,1,2,1,3,0004-00-0001-14.png,0003-00-0000-62.png
00000009,252,0,1449866256538,1449866257130,913,369,0,0,0,3,4,1,7,0002-00-0000-76.png,0001-00-0000-82.png
00000009,253,0,1449866260326,1449866260804,433,355,0,0,0,1,0,1,1,0004-00-0001-10.png,0005-00-0001-89.png
00000009,254,1,1449866263795,1449866263855,910,351,0,0,0,3,2,1,5,0002-00-0001-43.png,0003-00-0000-91.png
00000009,255,1,1449866264699,1449866265734,924,304,0,0,0,4,3,1,7,0001-00-0001-51.png,0002-00-0001-49.png
00000009,256,0,1449866266621,1449866266685,872,406,0,0,0,0,1,1,1,0005-00-0000-95.png,0004-00-0001-06.png
00000009,257,0,1449866269821,1449866269845,906,304,0,0,0,1,2,1,3,0004-00-0001-82.png,0003-00-0001-38.png
00000009,258,0,1449866272752,1449866272788,874,388,0,0,0,0,1,1,1,0005-00-0001-09.png,0004-00-0000-96.png
00000009,259,1,1449866275950,1449866276679,476,278,0,0,0,2,3,1,5,0003-00-0000-91.png,0002-00-0000-09.png
00000009,260,1,1449866277959,1449866278596,939,294,0,0,0,2,1,1,3,0003-00-0001-50.png,0004-00-0000-15.png
00000009,261,1,1449866279457,1449866279497,866,441,0,0,0,1,0,1,1,0004-00-0000-79.png,0005-00-0000-27.png
00000009,262,1,1449866280593,1449866281663,939,384,0,0,0,3,2,1,5,0002-00-0000-82.png,0003-00-0001-93.png
00000009,263,0,1449866282543,1449866282583,874,426,0,0,0,3,4,1,7,0002-00-0000-32.png,0001-00-0000-03.png
00000009,264,1,1449866285690,1449866286308,990,319,0,0,0,4,3,1,7,0001-00-0001-33.png,0002-00-0001-58.png
00000009,265,1,1449866287608,1449866288129,933,320,0,0,0,2,1,1,3,0003-00-0000-57.png,0004-00-0001-38.png
00000009,266,1,1449866288976,1449866289536,461,234,0,0,0,1,2,1,3,0004-00-0001-71.png,0003-00-0001-31.png
00000009,267,1,1449866290898,1449866291487,1041,275,0,0,0,1,0,1,1,0004-00-0000-48.png,0005-00-0001-96.png
00000009,268,1,1449866292348,1449866292954,488,257,0,0,0,2,3,1,5,0003-00-0000-43.png,0002-00-0000-72.png
00000009,269,0,1449866293777,1449866294356,393,315,0,0,0,3,2,1,5,0002-00-0001-01.png,0003-00-0001-79.png
00000009,270,0,1449866297420,1449866297449,888,410,0,0,0,0,1,1,1,0005-00-0001-09.png,0004-00-0000-10.png
00000009,271,0,1449866300287,1449866300303,886,348,0,0,0,3,4,1,7,0002-00-0001-27.png,0001-00-0001-12.png
00000009,272,1,1449866303661,1449866304192,1051,265,0,0,0,4,3,1,7,0001-00-0000-91.png,0002-00-0001-22.png
00000009,273,0,1449866305100,1449866305691,414,280,0,0,0,3,2,1,5,0002-00-0000-22.png,0003-00-0001-16.png
00000009,274,1,1449866308666,1449866308695,860,412,0,0,0,1,0,1,1,0004-00-0000-26.png,0005-00-0000-53.png
00000009,275,0,1449866309621,1449866310648,1041,245,0,0,0,3,4,1,7,0002-00-0000-84.png,0001-00-0000-93.png
00000009,276,0,1449866314273,1449866314807,1041,279,0,0,0,2,3,1,5,0003-00-0000-74.png,0002-00-0001-40.png
00000009,277,1,1449866366784,1449866366809,924,306,0,0,0,2,1,1,3,0003-00-0000-21.png,0004-00-0000-92.png
00000009,278,1,1449866367821,1449866368560,964,342,0,0,0,4,3,1,7,0001-00-0001-53.png,0002-00-0000-64.png
00000009,279,1,1449866369460,1449866370066,485,272,0,0,0,1,2,1,3,0004-00-0001-29.png,0003-00-0000-05.png
00000009,280,1,1449866370928,1449866371743,502,246,0,0,0,0,1,1,1,0005-00-0001-47.png,0004-00-0000-16.png
00000009,281,0,1449866373157,1449866373791,522,286,0,0,0,1,0,1,1,0004-00-0001-17.png,0005-00-0001-95.png
00000009,282,1,1449866377133,1449866377679,951,397,0,0,0,3,2,1,5,0002-00-0001-77.png,0003-00-0000-13.png
00000009,283,0,1449866378604,1449866379446,913,292,0,0,0,0,1,1,1,0005-00-0000-89.png,0004-00-0001-33.png
00000009,284,1,1449866384158,1449866384674,491,290,0,0,0,2,3,1,5,0003-00-0000-21.png,0002-00-0001-62.png
00000009,285,0,1449866385588,1449866386242,1005,266,0,0,0,3,4,1,7,0002-00-0000-69.png,0001-00-0000-69.png
00000009,286,1,1449866389163,1449866389713,511,312,0,0,0,1,2,1,3,0004-00-0001-97.png,0003-00-0001-61.png
00000009,287,1,1449866390627,1449866391191,1008,247,0,0,0,2,1,1,3,0003-00-0000-78.png,0004-00-0000-03.png
00000009,288,1,1449866392119,1449866393032,950,279,0,0,0,4,3,1,7,0001-00-0001-16.png,0002-00-0000-28.png
00000009,289,0,1449866393953,1449866393965,862,431,0,0,0,0,1,1,1,0005-00-0000-55.png,0004-00-0000-90.png
00000009,290,1,1449866406830,1449866406838,863,304,0,0,0,1,0,1,1,0004-00-0001-39.png,0005-00-0000-07.png
00000009,291,0,1449866407795,1449866408436,1016,269,0,0,0,3,4,1,7,0002-00-0000-83.png,0001-00-0000-62.png
00000009,292,1,1449866411630,1449866412327,1010,270,0,0,0,2,1,1,3,0003-00-0001-78.png,0004-00-0001-72.png
00000009,293,1,1449866413167,1449866413951,913,290,0,0,0,4,3,1,7,0001-00-0000-25.png,0002-00-0000-80.png
00000009,294,0,1449866414827,1449866414879,863,397,0,0,0,2,3,1,5,0003-00-0000-13.png,0002-00-0001-88.png
00000009,295,0,1449866417989,1449866418017,878,333,0,0,0,1,2,1,3,0004-00-0001-31.png,0003-00-0001-01.png
00000009,296,1,1449866421161,1449866421257,865,277,0,0,0,3,2,1,5,0002-00-0001-90.png,0003-00-0001-30.png
00000009,297,1,1449866422145,1449866422775,939,358,0,0,0,1,0,1,1,0004-00-0001-78.png,0005-00-0001-43.png
00000009,298,0,1449866423603,1449866424434,910,294,0,0,0,2,3,1,5,0003-00-0000-45.png,0002-00-0001-99.png
00000009,299,1,1449866427778,1449866428451,489,254,0,0,0,0,1,1,1,0005-00-0000-26.png,0004-00-0001-06.png
00000009,300,1,1449866429408,1449866430064,902,318,0,0,0,2,1,1,3,0003-00-0001-10.png,0004-00-0000-86.png
00000009,301,0,1449866430937,1449866430984,858,394,0,0,0,1,2,1,3,0004-00-0000-83.png,0003-00-0000-52.png
00000009,302,1,1449866433928,1449866434418,964,306,0,0,0,3,2,1,5,0002-00-0001-03.png,0003-00-0001-37.png
00000009,303,0,1449866435259,1449866436016,925,351,0,0,0,3,4,1,7,0002-00-0001-37.png,0001-00-0000-49.png
00000009,304,1,1449866438919,1449866439737,938,405,0,0,0,4,3,1,7,0001-00-0000-19.png,0002-00-0001-61.png
00000009,305,1,1449866440586,1449866441321,501,230,0,0,0,1,2,1,3,0004-00-0000-22.png,0003-00-0000-62.png
00000009,306,1,1449866442714,1449866442900,888,541,0,0,0,1,0,1,1,0004-00-0001-35.png,0005-00-0000-65.png
00000009,307,1,1449866443908,1449866444532,1023,234,0,0,0,2,1,1,3,0003-00-0000-75.png,0004-00-0001-67.png
00000009,308,1,1449866445426,1449866446432,507,217,0,0,0,3,4,1,7,0002-00-0001-47.png,0001-00-0000-96.png
00000009,309,0,1449866447327,1449866448123,510,245,0,0,0,3,2,1,5,0002-00-0001-82.png,0003-00-0000-97.png
00000009,310,0,1449866451251,1449866451752,1051,279,0,0,0,2,3,1,5,0003-00-0001-21.png,0002-00-0001-22.png
00000009,311,0,1449866454724,1449866455281,934,291,0,0,0,0,1,1,1,0005-00-0000-93.png,0004-00-0000-90.png
00000009,312,1,1449866458230,1449866458823,946,397,0,0,0,4,3,1,7,0001-00-0000-47.png,0002-00-0001-02.png
00000009,313,1,1449866459663,1449866460821,438,266,0,0,0,1,2,1,3,0004-00-0000-83.png,0003-00-0001-20.png
00000009,314,0,1449866461643,1449866462449,476,220,0,0,0,2,1,1,3,0003-00-0000-82.png,0004-00-0001-87.png
00000009,315,0,1449866465314,1449866465346,964,358,0,0,0,0,1,1,1,0005-00-0000-26.png,0004-00-0000-98.png
00000009,316,1,1449866468233,1449866468673,939,291,0,0,0,1,0,1,1,0004-00-0001-66.png,0005-00-0001-79.png
00000009,317,1,1449866469495,1449866470192,513,236,0,0,0,3,4,1,7,0002-00-0000-20.png,0001-00-0000-28.png
00000009,318,1,1449866471112,1449866471884,1017,240,0,0,0,3,2,1,5,0002-00-0001-52.png,0003-00-0000-38.png
00000009,319,1,1449866472786,1449866473400,504,265,0,0,0,2,3,1,5,0003-00-0001-99.png,0002-00-0001-81.png
00000009,320,1,1449866474285,1449866475078,939,348,0,0,0,4,3,1,7,0001-00-0000-85.png,0002-00-0000-25.png
00000009,321,1,1449866475938,1449866477011,523,235,0,0,0,3,4,1,7,0002-00-0000-09.png,0001-00-0000-99.png
00000009,322,1,1449866477903,1449866478546,1034,243,0,0,0,1,0,1,1,0004-00-0000-60.png,0005-00-0000-41.png
00000009,323,0,1449866479404,1449866479451,885,416,0,0,0,2,3,1,5,0003-00-0001-36.png,0002-00-0001-02.png
00000009,324,0,1449866482374,1449866482621,1057,357,0,0,0,0,1,1,1,0005-00-0000-14.png,0004-00-0000-07.png
00000009,325,0,1449866485462,1449866486161,476,278,0,0,0,4,3,1,7,0001-00-0000-74.png,0002-00-0001-33.png
00000009,326,0,1449866489285,1449866489309,874,358,0,0,0,1,2,1,3,0004-00-0001-41.png,0003-00-0000-43.png
00000009,327,1,1449866492254,1449866492770,930,299,0,0,0,2,1,1,3,0003-00-0000-58.png,0004-00-0001-08.png
00000009,328,1,1449866493649,1449866494319,922,324,0,0,0,3,2,1,5,0002-00-0001-02.png,0003-00-0001-01.png
00000009,329,0,1449866495202,1449866495961,498,236,0,0,0,2,1,1,3,0003-00-0000-35.png,0004-00-0000-20.png
00000009,330,0,1449866499091,1449866499607,945,349,0,0,0,1,2,1,3,0004-00-0001-17.png,0003-00-0001-83.png
00000009,331,0,1449866502639,1449866503203,922,284,0,0,0,2,3,1,5,0003-00-0000-20.png,0002-00-0000-37.png
00000009,332,1,1449866506049,1449866506652,430,392,0,0,0,0,1,1,1,0005-00-0001-75.png,0004-00-0000-46.png
00000009,333,1,1449866508017,1449866508694,913,347,0,0,0,4,3,1,7,0001-00-0001-26.png,0002-00-0000-87.png
00000009,334,0,1449866509595,1449866510599,484,242,0,0,0,1,0,1,1,0004-00-0001-36.png,0005-00-0001-36.png
00000009,335,1,1449866513623,1449866514171,939,347,0,0,0,3,2,1,5,0002-00-0000-09.png,0003-00-0000-82.png
00000009,336,1,1449866515540,1449866516457,498,252,0,0,0,3,4,1,7,0002-00-0001-98.png,0001-00-0000-46.png
00000009,337,1,1449866517339,1449866518184,393,320,0,0,0,2,3,1,5,0003-00-0000-01.png,0002-00-0000-28.png
00000009,338,1,1449866519057,1449866519721,1019,250,0,0,0,1,0,1,1,0004-00-0000-09.png,0005-00-0000-50.png
00000009,339,0,1449866520565,1449866520613,858,382,0,0,0,3,4,1,7,0002-00-0000-84.png,0001-00-0001-91.png
00000009,340,0,1449866523578,1449866524131,932,343,0,0,0,1,2,1,3,0004-00-0000-97.png,0003-00-0001-28.png
00000009,341,0,1449866527069,1449866527588,939,388,0,0,0,0,1,1,1,0005-00-0001-70.png,0004-00-0001-80.png
00000009,342,1,1449866530623,1449866531204,932,327,0,0,0,4,3,1,7,0001-00-0000-31.png,0002-00-0001-24.png
00000009,343,1,1449866532054,1449866533258,939,384,0,0,0,2,1,1,3,0003-00-0000-43.png,0004-00-0000-02.png
00000009,344,1,1449866534103,1449866534176,859,415,0,0,0,3,2,1,5,0002-00-0001-88.png,0003-00-0000-19.png
00000009,345,0,1449866535248,1449866535355,860,478,0,0,0,1,2,1,3,0004-00-0000-38.png,0003-00-0001-40.png
00000009,346,1,1449866538374,1449866538430,874,337,0,0,0,2,1,1,3,0003-00-0000-72.png,0004-00-0001-47.png
00000009,347,1,1449866539363,1449866540111,517,241,0,0,0,3,4,1,7,0002-00-0000-39.png,0001-00-0001-12.png
00000009,348,0,1449866540958,1449866541578,1016,253,0,0,0,2,3,1,5,0003-00-0000-36.png,0002-00-0001-27.png
00000009,349,1,1449866544415,1449866544985,908,355,0,0,0,4,3,1,7,0001-00-0000-85.png,0002-00-0000-23.png
00000009,350,1,1449866545838,1449866546594,936,393,0,0,0,3,2,1,5,0002-00-0000-71.png,0003-00-0000-91.png
00000009,351,1,1449866547418,1449866547487,862,410,0,0,0,1,0,1,1,0004-00-0000-87.png,0005-00-0001-00.png
00000009,352,1,1449866548541,1449866549554,515,243,0,0,0,0,1,1,1,0005-00-0000-24.png,0004-00-0001-54.png
00000009,353,1,1449866550992,1449866551494,939,344,0,0,0,1,0,1,1,0004-00-0001-14.png,0005-00-0001-53.png
00000009,354,0,1449866552335,1449866552375,862,390,0,0,0,2,3,1,5,0003-00-0000-21.png,0002-00-0001-93.png
00000009,355,1,1449866555419,1449866555467,933,303,0,0,0,3,2,1,5,0002-00-0001-50.png,0003-00-0000-76.png
00000009,356,0,1449866556319,1449866557096,465,401,0,0,0,2,1,1,3,0003-00-0000-66.png,0004-00-0000-71.png
00000009,357,1,1449866560238,1449866560782,1041,267,0,0,0,4,3,1,7,0001-00-0000-37.png,0002-00-0000-27.png
00000009,358,1,1449866561626,1449866562382,414,321,0,0,0,1,2,1,3,0004-00-0000-25.png,0003-00-0000-61.png
00000009,359,0,1449866563220,1449866564010,1016,245,0,0,0,0,1,1,1,0005-00-0000-74.png,0004-00-0000-88.png
00000009,360,1,1449866567006,1449866567543,500,272,0,0,0,3,4,1,7,0002-00-0001-99.png,0001-00-0000-71.png
00000009,361,0,1449866568395,1449866569093,1018,218,0,0,0,0,1,1,1,0005-00-0001-52.png,0004-00-0001-21.png
00000009,362,0,1449866572233,1449866572760,943,283,0,0,0,3,4,1,7,0002-00-0001-18.png,0001-00-0000-17.png
00000009,363,1,1449866575929,1449866575949,873,294,0,0,0,1,0,1,1,0004-00-0001-84.png,0005-00-0001-78.png
00000009,364,1,1449866576896,1449866577610,442,358,0,0,0,2,3,1,5,0003-00-0000-08.png,0002-00-0001-96.png
00000009,365,1,1449866579062,1449866579644,939,293,0,0,0,4,3,1,7,0001-00-0001-04.png,0002-00-0000-47.png
00000009,366,0,1449866580508,1449866580563,857,424,0,0,0,1,2,1,3,0004-00-0000-31.png,0003-00-0001-30.png
00000009,367,0,1449866583492,1449866584119,416,332,0,0,0,3,2,1,5,0002-00-0001-35.png,0003-00-0000-33.png
00000009,368,1,1449866587100,1449866587528,1051,253,0,0,0,2,1,1,3,0003-00-0001-54.png,0004-00-0001-00.png
00000009,369,1,1449866588362,1449866589239,939,372,0,0,0,3,2,1,5,0002-00-0001-13.png,0003-00-0001-99.png
00000009,370,1,1449866590070,1449866590992,1069,289,0,0,0,2,1,1,3,0003-00-0000-15.png,0004-00-0000-79.png
00000009,371,0,1449866591971,1449866592046,887,469,0,0,0,0,1,1,1,0005-00-0000-56.png,0004-00-0001-60.png
00000009,372,1,1449866594889,1449866594933,861,380,0,0,0,1,0,1,1,0004-00-0000-61.png,0005-00-0000-49.png
00000009,373,1,1449866595887,1449866596785,422,361,0,0,0,3,4,1,7,0002-00-0000-01.png,0001-00-0000-16.png
00000009,374,1,1449866598213,1449866598774,1027,279,0,0,0,4,3,1,7,0001-00-0000-15.png,0002-00-0001-02.png
00000009,375,1,1449866599851,1449866600560,505,217,0,0,0,2,3,1,5,0003-00-0000-48.png,0002-00-0000-93.png
00000009,376,1,1449866601389,1449866602078,441,358,0,0,0,1,2,1,3,0004-00-0001-75.png,0003-00-0000-61.png
00000009,377,1,1449866602959,1449866603770,900,306,0,0,0,3,2,1,5,0002-00-0000-92.png,0003-00-0001-94.png
00000009,378,0,1449866604606,1449866605255,514,249,0,0,0,4,3,1,7,0001-00-0000-39.png,0002-00-0001-48.png
00000009,379,0,1449866608094,1449866608613,939,279,0,0,0,1,2,1,3,0004-00-0001-79.png,0003-00-0000-34.png
00000009,380,1,1449866611526,1449866611949,935,336,0,0,0,1,0,1,1,0004-00-0001-19.png,0005-00-0001-88.png
00000009,381,0,1449866612806,1449866613386,407,359,0,0,0,2,1,1,3,0003-00-0000-37.png,0004-00-0001-01.png
00000009,382,0,1449866616224,1449866616769,939,346,0,0,0,3,4,1,7,0002-00-0000-28.png,0001-00-0001-17.png
00000009,383,0,1449866620241,1449866620320,981,245,0,0,0,0,1,1,1,0005-00-0000-93.png,0004-00-0000-77.png
00000009,384,0,1449866623314,1449866623770,958,328,0,0,0,2,3,1,5,0003-00-0000-69.png,0002-00-0001-35.png
00000009,385,1,1449866626873,1449866627504,514,234,0,0,0,2,3,1,5,0003-00-0000-54.png,0002-00-0001-80.png
00000009,386,1,1449866628361,1449866629048,440,358,0,0,0,0,1,1,1,0005-00-0001-89.png,0004-00-0001-75.png
00000009,387,0,1449866629900,1449866631162,1008,220,0,0,0,3,4,1,7,0002-00-0000-70.png,0001-00-0001-66.png
00000009,388,1,1449866634283,1449866634299,862,306,0,0,0,4,3,1,7,0001-00-0001-08.png,0002-00-0000-70.png
00000009,389,1,1449866635237,1449866636281,934,342,0,0,0,3,2,1,5,0002-00-0001-18.png,0003-00-0000-14.png
00000009,390,0,1449866637135,1449866637901,510,229,0,0,0,2,1,1,3,0003-00-0001-28.png,0004-00-0001-83.png
00000009,391,1,1449866640980,1449866641004,881,333,0,0,0,1,0,1,1,0004-00-0001-15.png,0005-00-0000-61.png
00000009,392,1,1449866641970,1449866642609,445,429,0,0,0,1,2,1,3,0004-00-0000-53.png,0003-00-0001-71.png
00000009,393,1,1449866644014,1449866644560,516,250,0,0,0,1,2,1,3,0004-00-0001-82.png,0003-00-0001-59.png
00000009,394,1,1449866645425,1449866646082,952,266,0,0,0,1,0,1,1,0004-00-0001-91.png,0005-00-0000-89.png
00000009,395,1,1449866646954,1449866647677,1050,227,0,0,0,2,1,1,3,0003-00-0001-71.png,0004-00-0000-32.png
00000009,396,1,1449866648613,1449866648653,859,385,0,0,0,3,2,1,5,0002-00-0000-86.png,0003-00-0001-59.png
00000009,397,1,1449866649739,1449866650983,385,370,0,0,0,2,3,1,5,0003-00-0000-88.png,0002-00-0001-25.png
00000009,398,1,1449866651894,1449866652530,398,320,0,0,0,0,1,1,1,0005-00-0000-35.png,0004-00-0001-17.png
00000009,399,0,1449866653374,1449866654207,999,253,0,0,0,3,4,1,7,0002-00-0000-04.png,0001-00-0000-56.png
00000009,400,1,1449866657290,1449866657957,913,297,0,0,0,4,3,1,7,0001-00-0001-54.png,0002-00-0001-18.png
00000009,401,1,1449866658850,1449866659513,444,365,0,0,0,1,2,1,3,0004-00-0000-70.png,0003-00-0000-33.png
00000009,402,1,1449866660391,1449866661017,1018,267,0,0,0,1,0,1,1,0004-00-0001-00.png,0005-00-0000-70.png
00000009,403,0,1449866662387,1449866662452,862,462,0,0,0,0,1,1,1,0005-00-0000-01.png,0004-00-0000-83.png
00000009,404,1,1449866665368,1449866665865,1067,264,0,0,0,2,1,1,3,0003-00-0001-07.png,0004-00-0001-31.png
00000009,405,1,1449866666728,1449866667711,486,234,0,0,0,2,3,1,5,0003-00-0000-91.png,0002-00-0000-31.png
00000009,406,1,1449866668564,1449866669241,931,336,0,0,0,4,3,1,7,0001-00-0000-25.png,0002-00-0000-38.png
00000009,407,0,1449866670190,1449866671041,913,319,0,0,0,3,4,1,7,0002-00-0001-24.png,0001-00-0000-24.png
00000009,408,1,1449866674055,1449866674083,864,348,0,0,0,3,2,1,5,0002-00-0001-31.png,0003-00-0001-60.png
00000009,409,1,1449866675018,1449866675625,427,365,0,0,0,1,2,1,3,0004-00-0000-14.png,0003-00-0001-10.png
00000009,410,1,1449866677061,1449866677957,523,241,0,0,0,3,4,1,7,0002-00-0001-91.png,0001-00-0000-33.png
00000009,411,1,1449866678782,1449866679545,1041,239,0,0,0,2,1,1,3,0003-00-0001-89.png,0004-00-0001-25.png
00000009,412,1,1449866680463,1449866680515,872,434,0,0,0,3,2,1,5,0002-00-0000-94.png,0003-00-0001-95.png
00000009,413,1,1449866681624,1449866681664,862,410,0,0,0,4,3,1,7,0001-00-0001-63.png,0002-00-0000-78.png
00000009,414,0,1449866682770,1449866682818,872,478,0,0,0,0,1,1,1,0005-00-0001-86.png,0004-00-0001-50.png
00000009,415,0,1449866685890,1449866686413,951,358,0,0,0,2,3,1,5,0003-00-0001-55.png,0002-00-0001-12.png
00000009,416,1,1449866689256,1449866689756,946,374,0,0,0,1,0,1,1,0004-00-0001-11.png,0005-00-0001-78.png
00000009,417,1,1449866691079,1449866691784,404,345,0,0,0,2,3,1,5,0003-00-0000-69.png,0002-00-0000-72.png
00000009,418,1,1449866693174,1449866693869,918,373,0,0,0,1,0,1,1,0004-00-0000-66.png,0005-00-0000-84.png
00000009,419,0,1449866694712,1449866695669,939,279,0,0,0,1,2,1,3,0004-00-0001-28.png,0003-00-0001-64.png
00000009,420,1,1449866698849,1449866698887,866,305,0,0,0,3,2,1,5,0002-00-0000-57.png,0003-00-0001-24.png
00000009,421,1,1449866699762,1449866700447,894,272,0,0,0,2,1,1,3,0003-00-0000-21.png,0004-00-0001-86.png
00000009,422,1,1449866701332,1449866701352,864,380,0,0,0,4,3,1,7,0001-00-0000-33.png,0002-00-0000-33.png
00000009,423,0,1449866702389,1449866702452,862,462,0,0,0,3,4,1,7,0002-00-0001-38.png,0001-00-0000-90.png
00000009,424,0,1449866705448,1449866705641,1045,310,0,0,0,0,1,1,1,0005-00-0001-18.png,0004-00-0000-22.png
00000009,425,1,1449866708608,1449866709106,1017,255,0,0,0,3,2,1,5,0002-00-0000-51.png,0003-00-0000-16.png
00000009,426,1,1449866709917,1449866710769,447,354,0,0,0,2,3,1,5,0003-00-0001-03.png,0002-00-0000-41.png
00000009,427,1,1449866711605,1449866712543,924,293,0,0,0,4,3,1,7,0001-00-0001-75.png,0002-00-0001-16.png
00000009,428,1,1449866713415,1449866713530,879,462,0,0,0,2,1,1,3,0003-00-0001-45.png,0004-00-0001-53.png
00000009,429,0,1449866714600,1449866714649,884,416,0,0,0,3,4,1,7,0002-00-0001-73.png,0001-00-0000-11.png
00000009,430,0,1449866717699,1449866717731,888,332,0,0,0,1,2,1,3,0004-00-0000-25.png,0003-00-0000-00.png
00000009,431,0,1449866720867,1449866721484,888,279,0,0,0,0,1,1,1,0005-00-0001-05.png,0004-00-0000-25.png
00000009,432,1,1449866724611,1449866725143,921,374,0,0,0,1,0,1,1,0004-00-0001-49.png,0005-00-0001-89.png
00000009,433,1,1449866726395,1449866726961,924,290,0,0,0,4,3,1,7,0001-00-0000-47.png,0002-00-0000-50.png
00000009,434,0,1449866727816,1449866727903,860,453,0,0,0,1,2,1,3,0004-00-0000-52.png,0003-00-0000-67.png
00000009,435,0,1449866730831,1449866731354,939,390,0,0,0,0,1,1,1,0005-00-0001-64.png,0004-00-0000-58.png
00000009,436,1,1449866734266,1449866734705,1016,252,0,0,0,2,1,1,3,0003-00-0000-31.png,0004-00-0001-58.png
00000009,437,1,1449866735547,1449866736463,1041,242,0,0,0,3,2,1,5,0002-00-0001-36.png,0003-00-0001-01.png
00000009,438,1,1449866737328,1449866738013,470,240,0,0,0,2,3,1,5,0003-00-0000-61.png,0002-00-0000-18.png
00000009,439,1,1449866739435,1449866740281,492,251,0,0,0,3,4,1,7,0002-00-0001-78.png,0001-00-0001-51.png
00000009,440,1,1449866741603,1449866742156,939,346,0,0,0,1,0,1,1,0004-00-0000-82.png,0005-00-0001-46.png
00000009,441,0,1449866743538,1449866743650,883,479,0,0,0,2,3,1,5,0003-00-0000-59.png,0002-00-0000-28.png
00000009,442,1,1449866746740,1449866747282,505,262,0,0,0,0,1,1,1,0005-00-0001-93.png,0004-00-0000-93.png
00000009,443,1,1449866748119,1449866748706,913,367,0,0,0,1,0,1,1,0004-00-0001-92.png,0005-00-0000-89.png
00000009,444,0,1449866749571,1449866749619,862,401,0,0,0,3,4,1,7,0002-00-0000-06.png,0001-00-0001-09.png
00000009,445,1,1449866752979,1449866753019,895,323,0,0,0,2,1,1,3,0003-00-0001-69.png,0004-00-0000-73.png
00000009,446,0,1449866753952,1449866754724,430,335,0,0,0,4,3,1,7,0001-00-0001-28.png,0002-00-0001-76.png
00000009,447,1,1449866757788,1449866757825,909,335,0,0,0,3,2,1,5,0002-00-0001-01.png,0003-00-0001-69.png
00000009,448,1,1449866758736,1449866759429,511,241,0,0,0,1,2,1,3,0004-00-0000-67.png,0003-00-0001-55.png
00000009,449,1,1449866760248,1449866760869,488,256,0,0,0,1,2,1,3,0004-00-0001-01.png,0003-00-0001-25.png
00000009,450,0,1449866761925,1449866762768,939,369,0,0,0,3,4,1,7,0002-00-0000-76.png,0001-00-0001-22.png
00000009,451,1,1449866765899,1449866766365,1026,240,0,0,0,3,2,1,5,0002-00-0001-86.png,0003-00-0000-16.png
00000009,452,0,1449866767649,1449866768269,514,254,0,0,0,1,0,1,1,0004-00-0001-00.png,0005-00-0001-95.png
00000009,453,1,1449866771265,1449866771317,913,384,0,0,0,4,3,1,7,0001-00-0000-59.png,0002-00-0000-87.png
00000009,454,1,1449866772177,1449866772836,913,364,0,0,0,2,1,1,3,0003-00-0001-62.png,0004-00-0000-47.png
00000009,455,1,1449866773709,1449866774400,453,370,0,0,0,2,3,1,5,0003-00-0000-09.png,0002-00-0001-17.png
00000009,456,0,1449866775242,1449866775995,1031,253,0,0,0,0,1,1,1,0005-00-0000-09.png,0004-00-0000-66.png
00000009,457,1,1449866778915,1449866779541,490,253,0,0,0,2,3,1,5,0003-00-0001-48.png,0002-00-0000-70.png
00000009,458,1,1449866780915,1449866781542,930,348,0,0,0,1,0,1,1,0004-00-0001-33.png,0005-00-0001-75.png
00000009,459,1,1449866782391,1449866782467,860,413,0,0,0,3,2,1,5,0002-00-0001-79.png,0003-00-0001-40.png
00000009,460,0,1449866783439,1449866783514,870,446,0,0,0,0,1,1,1,0005-00-0001-82.png,0004-00-0000-79.png
00000009,461,1,1449866786677,1449866787172,945,374,0,0,0,2,1,1,3,0003-00-0000-31.png,0004-00-0000-10.png
00000009,462,1,1449866788037,1449866788727,423,430,0,0,0,3,4,1,7,0002-00-0000-10.png,0001-00-0001-58.png
00000009,463,0,1449866790147,1449866790788,461,402,0,0,0,4,3,1,7,0001-00-0000-73.png,0002-00-0001-87.png
00000009,464,0,1449866793713,1449866794241,920,322,0,0,0,1,2,1,3,0004-00-0001-85.png,0003-00-0001-77.png
00000009,465,0,1449866797468,1449866797504,903,330,0,0,0,3,4,1,7,0002-00-0000-56.png,0001-00-0000-41.png
00000009,466,0,1449866800608,1449866801108,961,376,0,0,0,0,1,1,1,0005-00-0001-04.png,0004-00-0000-88.png
00000009,467,1,1449866804057,1449866804529,929,353,0,0,0,1,0,1,1,0004-00-0000-07.png,0005-00-0001-01.png
00000009,468,1,1449866805403,1449866806016,472,234,0,0,0,1,2,1,3,0004-00-0001-25.png,0003-00-0000-59.png
00000009,469,0,1449866806838,1449866807950,513,279,0,0,0,3,2,1,5,0002-00-0001-64.png,0003-00-0001-88.png
00000009,470,0,1449866810811,1449866811452,453,395,0,0,0,2,1,1,3,0003-00-0000-02.png,0004-00-0000-11.png
00000009,471,1,1449866814424,1449866814961,1016,268,0,0,0,4,3,1,7,0001-00-0001-34.png,0002-00-0000-49.png
00000009,472,1,1449866815853,1449866816576,509,242,0,0,0,2,3,1,5,0003-00-0001-37.png,0002-00-0000-00.png
00000009,473,1,1449866817428,1449866818096,416,338,0,0,0,0,1,1,1,0005-00-0001-59.png,0004-00-0000-74.png
00000009,474,1,1449866818944,1449866819818,1016,253,0,0,0,4,3,1,7,0001-00-0001-68.png,0002-00-0001-40.png
00000009,475,0,1449866820726,1449866820759,859,417,0,0,0,2,3,1,5,0003-00-0000-16.png,0002-00-0001-38.png
00000009,476,1,1449866823913,1449866823921,862,332,0,0,0,1,0,1,1,0004-00-0001-01.png,0005-00-0001-60.png
00000009,477,1,1449866824860,1449866825431,451,432,0,0,0,1,2,1,3,0004-00-0001-60.png,0003-00-0000-88.png
00000009,478,1,1449866826266,1449866827338,519,223,0,0,0,3,4,1,7,0002-00-0001-17.png,0001-00-0001-90.png
00000009,479,1,1449866828230,1449866829207,922,286,0,0,0,3,2,1,5,0002-00-0001-97.png,0003-00-0001-19.png
00000009,480,1,1449866830042,1449866830756,1010,260,0,0,0,2,1,1,3,0003-00-0001-83.png,0004-00-0000-60.png
00000009,481,0,1449866831675,1449866831715,888,424,0,0,0,1,2,1,3,0004-00-0000-09.png,0003-00-0001-02.png
00000009,482,0,1449866834605,1449866835184,500,245,0,0,0,4,3,1,7,0001-00-0000-74.png,0002-00-0001-81.png
00000009,483,0,1449866838106,1449866838146,910,410,0,0,0,2,3,1,5,0003-00-0000-78.png,0002-00-0001-44.png
00000009,484,1,1449866841275,1449866841308,868,334,0,0,0,3,2,1,5,0002-00-0000-10.png,0003-00-0001-41.png
00000009,485,1,1449866842168,1449866842787,987,246,0,0,0,1,0,1,1,0004-00-0001-94.png,0005-00-0001-28.png
00000009,486,1,1449866843616,1449866844238,515,231,0,0,0,0,1,1,1,0005-00-0001-12.png,0004-00-0001-57.png
00000009,487,0,1449866845062,1449866845869,395,369,0,0,0,2,1,1,3,0003-00-0000-19.png,0004-00-0001-43.png
00000009,488,0,1449866848957,1449866848997,874,320,0,0,0,3,4,1,7,0002-00-0001-31.png,0001-00-0001-25.png
00000009,489,1,1449866851920,1449866852554,489,266,0,0,0,3,4,1,7,0002-00-0001-25.png,0001-00-0000-41.png
00000009,490,0,1449866853906,1449866854482,1016,245,0,0,0,0,1,1,1,0005-00-0001-70.png,0004-00-0000-60.png
00000009,491,0,1449866857574,1449866858176,965,327,0,0,0,1,2,1,3,0004-00-0000-27.png,0003-00-0001-79.png
00000009,492,1,1449866861083,1449866861545,928,353,0,0,0,4,3,1,7,0001-00-0001-23.png,0002-00-0001-35.png
00000009,493,1,1449866862892,1449866863045,917,533,0,0,0,2,1,1,3,0003-00-0001-32.png,0004-00-0000-13.png
00000009,494,0,1449866864044,1449866864932,1029,239,0,0,0,2,3,1,5,0003-00-0001-04.png,0002-00-0001-21.png
00000009,495,1,1449866867910,1449866868043,965,329,0,0,0,1,0,1,1,0004-00-0000-04.png,0005-00-0000-56.png
00000009,496,0,1449866869023,1449866869626,439,395,0,0,0,3,2,1,5,0002-00-0001-76.png,0003-00-0000-61.png
00000009,497,0,1449866872737,1449866872753,867,323,0,0,0,1,2,1,3,0004-00-0001-12.png,0003-00-0000-28.png
00000009,498,1,1449866876217,1449866876721,1041,244,0,0,0,2,1,1,3,0003-00-0001-50.png,0004-00-0000-57.png
00000009,499,0,1449866877587,1449866878835,414,357,0,0,0,4,3,1,7,0001-00-0000-09.png,0002-00-0000-19.png
00000009,500,0,1449866882009,1449866882017,906,310,0,0,0,2,3,1,5,0003-00-0000-89.png,0002-00-0000-49.png
00000009,501,1,1449866885173,1449866885656,1041,236,0,0,0,3,2,1,5,0002-00-0000-08.png,0003-00-0000-34.png
00000009,502,1,1449866886544,1449866887476,514,250,0,0,0,0,1,1,1,0005-00-0001-06.png,0004-00-0001-69.png
00000009,503,0,1449866889714,1449866890391,421,360,0,0,0,1,0,1,1,0004-00-0001-51.png,0005-00-0001-34.png
00000009,504,0,1449866893508,1449866893547,899,314,0,0,0,3,4,1,7,0002-00-0000-55.png,0001-00-0000-52.png
00000009,505,1,1449866896431,1449866897024,939,317,0,0,0,4,3,1,7,0001-00-0001-73.png,0002-00-0000-38.png
00000009,506,1,1449866897923,1449866898661,501,220,0,0,0,0,1,1,1,0005-00-0000-65.png,0004-00-0001-89.png
00000009,507,1,1449866900016,1449866900691,1007,272,0,0,0,1,0,1,1,0004-00-0001-47.png,0005-00-0000-99.png
00000009,508,0,1449866901565,1449866902387,393,339,0,0,0,3,2,1,5,0002-00-0000-77.png,0003-00-0000-37.png
00000009,509,0,1449866905563,1449866905591,915,332,0,0,0,1,2,1,3,0004-00-0001-57.png,0003-00-0000-66.png
00000009,510,1,1449866908440,1449866908962,921,297,0,0,0,2,1,1,3,0003-00-0000-06.png,0004-00-0000-73.png
00000009,511,1,1449866909877,1449866910593,488,238,0,0,0,2,3,1,5,0003-00-0000-53.png,0002-00-0001-76.png
00000009,512,0,1449866911425,1449866912093,1143,306,0,0,0,3,4,1,7,0002-00-0001-31.png,0001-00-0001-81.png
00000009,513,1,1449866915143,1449866915639,1041,253,0,0,0,1,0,1,1,0004-00-0000-42.png,0005-00-0001-89.png
00000009,514,1,1449866916471,1449866917283,1029,253,0,0,0,4,3,1,7,0001-00-0001-89.png,0002-00-0001-85.png
00000009,515,0,1449866918132,1449866918192,877,392,0,0,0,1,2,1,3,0004-00-0001-53.png,0003-00-0001-79.png
00000009,516,1,1449866921030,1449866921863,939,431,0,0,0,3,2,1,5,0002-00-0001-79.png,0003-00-0001-09.png
00000009,517,1,1449866923201,1449866923773,518,276,0,0,0,3,4,1,7,0002-00-0000-94.png,0001-00-0001-50.png
00000009,518,1,1449866924642,1449866925480,493,240,0,0,0,0,1,1,1,0005-00-0000-83.png,0004-00-0000-46.png
00000009,519,1,1449866926364,1449866927154,426,395,0,0,0,2,3,1,5,0003-00-0001-72.png,0002-00-0001-50.png
00000009,520,1,1449866927990,1449866928644,1016,267,0,0,0,2,1,1,3,0003-00-0000-39.png,0004-00-0001-48.png
00000009,521,1,1449866929513,1449866930445,1013,275,0,0,0,4,3,1,7,0001-00-0000-50.png,0002-00-0000-34.png
00000009,522,1,1449866931300,1449866932592,512,254,0,0,0,1,2,1,3,0004-00-0001-12.png,0003-00-0000-67.png
00000009,523,1,1449866933524,1449866934238,442,358,0,0,0,0,1,1,1,0005-00-0001-51.png,0004-00-0000-92.png
00000009,524,0,1449866935066,1449866936028,914,374,0,0,0,2,3,1,5,0003-00-0001-93.png,0002-00-0001-91.png
00000009,525,0,1449866939153,1449866939287,861,283,0,0,0,3,4,1,7,0002-00-0000-90.png,0001-00-0000-41.png
00000009,526,1,1449866942214,1449866942727,1016,253,0,0,0,1,0,1,1,0004-00-0001-60.png,0005-00-0000-00.png
00000009,527,1,1449866943590,1449866944223,1034,245,0,0,0,2,1,1,3,0003-00-0001-39.png,0004-00-0001-09.png
00000009,528,1,1449866945181,1449866945273,881,496,0,0,0,3,2,1,5,0002-00-0001-09.png,0003-00-0000-50.png
00000009,529,0,1449866946335,1449866946387,888,462,0,0,0,1,2,1,3,0004-00-0000-55.png,0003-00-0000-05.png
00000009,530,1,1449866949616,1449866950251,495,260,0,0,0,2,3,1,5,0003-00-0001-32.png,0002-00-0000-75.png
00000009,531,0,1449866951654,1449866952448,514,227,0,0,0,4,3,1,7,0001-00-0000-26.png,0002-00-0000-30.png
00000009,532,1,1449866955463,1449866955995,513,282,0,0,0,3,4,1,7,0002-00-0000-34.png,0001-00-0001-36.png
00000009,533,1,1449866956851,1449866957884,937,297,0,0,0,3,2,1,5,0002-00-0001-03.png,0003-00-0001-45.png
00000009,534,1,1449866958708,1449866959431,922,290,0,0,0,1,0,1,1,0004-00-0000-75.png,0005-00-0001-19.png
00000009,535,0,1449866960321,1449866960369,889,448,0,0,0,0,1,1,1,0005-00-0000-95.png,0004-00-0001-82.png
00000009,536,1,1449866963529,1449866964054,913,304,0,0,0,2,1,1,3,0003-00-0000-04.png,0004-00-0000-72.png
00000009,537,1,1449866964960,1449866965738,931,376,0,0,0,3,2,1,5,0002-00-0000-20.png,0003-00-0000-32.png
00000009,538,1,1449866966649,1449866967461,486,256,0,0,0,3,4,1,7,0002-00-0001-99.png,0001-00-0000-34.png
00000009,539,1,1449866968926,1449866969671,927,279,0,0,0,4,3,1,7,0001-00-0001-09.png,0002-00-0001-50.png
00000009,540,0,1449866970563,1449866971386,951,279,0,0,0,1,2,1,3,0004-00-0001-78.png,0003-00-0000-35.png
00000009,541,0,1449866974438,1449866974985,939,318,0,0,0,2,3,1,5,0003-00-0001-15.png,0002-00-0001-20.png
00000009,542,1,1449866978045,1449866978545,964,384,0,0,0,2,1,1,3,0003-00-0000-33.png,0004-00-0001-66.png
00000009,543,1,1449866979408,1449866980139,939,279,0,0,0,1,0,1,1,0004-00-0001-18.png,0005-00-0001-17.png
00000009,544,0,1449866980997,1449866981092,888,448,0,0,0,0,1,1,1,0005-00-0001-13.png,0004-00-0000-49.png
00000009,545,1,1449866984226,1449866984242,877,358,0,0,0,2,1,1,3,0003-00-0000-66.png,0004-00-0000-39.png
00000009,546,1,1449866985201,1449866986074,937,361,0,0,0,3,2,1,5,0002-00-0000-38.png,0003-00-0000-84.png
00000009,547,1,1449866986950,1449866987547,1016,238,0,0,0,1,0,1,1,0004-00-0001-01.png,0005-00-0001-44.png
00000009,548,1,1449866988480,1449866988532,888,426,0,0,0,4,3,1,7,0001-00-0001-15.png,0002-00-0000-29.png
00000009,549,0,1449866989566,1449866989611,888,451,0,0,0,1,2,1,3,0004-00-0000-53.png,0003-00-0001-43.png
00000009,550,1,1449866992743,1449866993449,502,262,0,0,0,2,3,1,5,0003-00-0000-14.png,0002-00-0000-26.png
00000009,551,0,1449866994773,1449866994928,892,518,0,0,0,0,1,1,1,0005-00-0000-80.png,0004-00-0001-62.png
00000009,552,0,1449866998050,1449866998082,872,324,0,0,0,3,4,1,7,0002-00-0000-71.png,0001-00-0001-15.png
00000009,553,1,1449867001199,1449867001231,898,298,0,0,0,1,0,1,1,0004-00-0001-93.png,0005-00-0000-46.png
00000009,554,1,1449867002146,1449867003231,1041,263,0,0,0,4,3,1,7,0001-00-0001-77.png,0002-00-0000-64.png
00000009,555,0,1449867004069,1449867004129,862,401,0,0,0,3,4,1,7,0002-00-0001-84.png,0001-00-0001-72.png
00000009,556,1,1449867006989,1449867007673,488,230,0,0,0,0,1,1,1,0005-00-0001-91.png,0004-00-0001-39.png
00000009,557,1,1449867008993,1449867009041,877,260,0,0,0,3,2,1,5,0002-00-0000-02.png,0003-00-0000-18.png
00000009,558,1,1449867010045,1449867010673,411,431,0,0,0,1,2,1,3,0004-00-0001-49.png,0003-00-0000-19.png
00000009,559,0,1449867012579,1449867013093,942,313,0,0,0,2,3,1,5,0003-00-0000-26.png,0002-00-0000-71.png
00000009,560,1,1449867016156,1449867016673,963,383,0,0,0,2,1,1,3,0003-00-0000-56.png,0004-00-0001-92.png
00000009,561,0,1449867017957,1449867018143,888,542,0,0,0,3,4,1,7,0002-00-0000-86.png,0001-00-0000-39.png
00000009,562,1,1449867021056,1449867021112,862,384,0,0,0,4,3,1,7,0001-00-0000-25.png,0002-00-0001-15.png
00000009,563,1,1449867022051,1449867022884,1118,306,0,0,0,1,0,1,1,0004-00-0001-07.png,0005-00-0000-49.png
00000009,564,0,1449867023727,1449867024870,482,282,0,0,0,3,2,1,5,0002-00-0001-03.png,0003-00-0000-84.png
00000009,565,0,1449867027945,1449867028463,1041,253,0,0,0,2,3,1,5,0003-00-0000-05.png,0002-00-0001-87.png
00000009,566,0,1449867031780,1449867032271,1041,244,0,0,0,0,1,1,1,0005-00-0001-27.png,0004-00-0000-52.png
00000009,567,1,1449867035417,1449867036073,1067,253,0,0,0,2,1,1,3,0003-00-0000-08.png,0004-00-0001-95.png
00000009,568,0,1449867036925,1449867037853,1016,241,0,0,0,1,2,1,3,0004-00-0001-43.png,0003-00-0000-70.png
00000009,569,0,1449867040813,1449867041319,968,281,0,0,0,2,3,1,5,0003-00-0001-98.png,0002-00-0000-40.png
00000009,570,1,1449867044214,1449867044925,511,262,0,0,0,1,2,1,3,0004-00-0000-65.png,0003-00-0000-42.png
00000009,571,1,1449867045825,1449867046575,939,264,0,0,0,3,2,1,5,0002-00-0000-34.png,0003-00-0000-92.png
00000009,572,0,1449867047453,1449867047491,863,384,0,0,0,0,1,1,1,0005-00-0000-82.png,0004-00-0001-08.png
00000009,573,1,1449867050683,1449867051191,1036,286,0,0,0,1,0,1,1,0004-00-0000-03.png,0005-00-0001-82.png
00000009,574,0,1449867052562,1449867054030,470,416,0,0,0,4,3,1,7,0001-00-0000-89.png,0002-00-0001-50.png
00000009,575,1,1449867057154,1449867057640,930,364,0,0,0,2,1,1,3,0003-00-0001-39.png,0004-00-0001-01.png
00000009,576,0,1449867058472,1449867059383,1016,262,0,0,0,3,4,1,7,0002-00-0001-23.png,0001-00-0000-61.png
00000009,577,0,1449867062428,1449867063078,939,358,0,0,0,2,3,1,5,0003-00-0000-11.png,0002-00-0000-07.png
00000009,578,0,1449867066027,1449867066616,939,344,0,0,0,0,1,1,1,0005-00-0000-68.png,0004-00-0001-37.png
00000009,579,1,1449867069625,1449867070179,1019,266,0,0,0,2,1,1,3,0003-00-0000-73.png,0004-00-0001-34.png
00000009,580,1,1449867071066,1449867071758,414,338,0,0,0,1,2,1,3,0004-00-0001-44.png,0003-00-0001-59.png
00000009,581,1,1449867072622,1449867073415,997,250,0,0,0,1,0,1,1,0004-00-0000-47.png,0005-00-0000-54.png
00000009,582,0,1449867074254,1449867074383,878,470,0,0,0,3,4,1,7,0002-00-0001-08.png,0001-00-0001-94.png
00000009,583,1,1449867077288,1449867077895,1045,232,0,0,0,4,3,1,7,0001-00-0000-12.png,0002-00-0000-45.png
00000009,584,1,1449867078734,1449867079559,913,296,0,0,0,3,2,1,5,0002-00-0001-99.png,0003-00-0001-81.png
00000009,585,1,1449867080443,1449867080475,872,387,0,0,0,1,0,1,1,0004-00-0000-43.png,0005-00-0000-02.png
00000009,586,0,1449867081529,1449867082381,949,339,0,0,0,0,1,1,1,0005-00-0001-82.png,0004-00-0000-91.png
00000009,587,0,1449867085703,1449867086268,1061,268,0,0,0,2,3,1,5,0003-00-0000-80.png,0002-00-0001-99.png
00000009,588,1,1449867089259,1449867090007,464,260,0,0,0,3,4,1,7,0002-00-0000-61.png,0001-00-0000-44.png
00000009,589,1,1449867090847,1449867091864,939,341,0,0,0,3,2,1,5,0002-00-0000-28.png,0003-00-0001-36.png
00000009,590,1,1449867092780,1449867093468,395,335,0,0,0,1,2,1,3,0004-00-0000-21.png,0003-00-0001-56.png
00000009,591,0,1449867094389,1449867095391,491,243,0,0,0,4,3,1,7,0001-00-0000-20.png,0002-00-0001-80.png
00000009,592,1,1449867098501,1449867099067,1048,271,0,0,0,2,1,1,3,0003-00-0001-06.png,0004-00-0000-13.png
00000009,593,1,1449867099932,1449867100756,1016,239,0,0,0,3,2,1,5,0002-00-0001-95.png,0003-00-0000-48.png
00000009,594,0,1449867101619,1449867101690,888,425,0,0,0,3,4,1,7,0002-00-0001-40.png,0001-00-0001-75.png
00000009,595,1,1449867104564,1449867105114,939,384,0,0,0,2,1,1,3,0003-00-0001-14.png,0004-00-0001-17.png
00000009,596,0,1449867105991,1449867106788,519,252,0,0,0,1,0,1,1,0004-00-0001-63.png,0005-00-0000-14.png
00000009,597,0,1449867109977,1449867110446,1041,264,0,0,0,1,2,1,3,0004-00-0001-07.png,0003-00-0000-04.png
00000009,598,1,1449867113380,1449867113417,980,376,0,0,0,4,3,1,7,0001-00-0000-49.png,0002-00-0001-55.png
00000009,599,1,1449867114373,1449867115136,417,338,0,0,0,0,1,1,1,0005-00-0001-20.png,0004-00-0001-85.png
00000009,600,0,1449867115975,1449867116704,1024,253,0,0,0,2,3,1,5,0003-00-0000-68.png,0002-00-0001-00.png
00000009,601,1,1449867119836,1449867120320,1041,243,0,0,0,4,3,1,7,0001-00-0000-64.png,0002-00-0000-95.png
00000009,602,0,1449867121196,1449867121933,929,338,0,0,0,0,1,1,1,0005-00-0000-56.png,0004-00-0001-90.png
00000009,603,1,1449867124886,1449867125468,517,254,0,0,0,3,4,1,7,0002-00-0000-85.png,0001-00-0000-74.png
00000009,604,1,1449867126884,1449867127523,939,347,0,0,0,3,2,1,5,0002-00-0000-48.png,0003-00-0000-03.png
00000009,605,1,1449867128392,1449867128436,862,423,0,0,0,1,0,1,1,0004-00-0001-61.png,0005-00-0000-24.png
00000009,606,0,1449867129498,1449867130231,946,351,0,0,0,2,3,1,5,0003-00-0000-08.png,0002-00-0001-00.png
00000009,607,0,1449867133066,1449867133869,520,244,0,0,0,2,1,1,3,0003-00-0001-42.png,0004-00-0001-97.png
00000009,608,0,1449867136989,1449867137512,939,384,0,0,0,1,2,1,3,0004-00-0000-19.png,0003-00-0001-21.png
00000009,609,1,1449867140597,1449867141094,498,273,0,0,0,1,2,1,3,0004-00-0000-75.png,0003-00-0000-97.png
00000009,610,0,1449867141926,1449867142627,391,332,0,0,0,4,3,1,7,0001-00-0001-87.png,0002-00-0001-96.png
00000009,611,0,1449867145747,1449867145771,913,317,0,0,0,3,4,1,7,0002-00-0001-49.png,0001-00-0000-41.png
00000009,612,1,1449867148972,1449867149510,1053,242,0,0,0,1,0,1,1,0004-00-0000-89.png,0005-00-0000-13.png
00000009,613,0,1449867150842,1449867151585,950,265,0,0,0,2,3,1,5,0003-00-0000-58.png,0002-00-0001-47.png
00000009,614,0,1449867154669,1449867154697,869,323,0,0,0,0,1,1,1,0005-00-0001-40.png,0004-00-0001-36.png
00000009,615,1,1449867157569,1449867158082,1016,244,0,0,0,3,2,1,5,0002-00-0001-27.png,0003-00-0000-85.png
00000009,616,1,1449867158926,1449867159641,913,345,0,0,0,2,1,1,3,0003-00-0000-45.png,0004-00-0001-58.png
00000009,617,1,1449867160553,1449867161254,913,291,0,0,0,3,2,1,5,0002-00-0001-18.png,0003-00-0001-37.png
00000009,618,0,1449867162120,1449867162886,493,244,0,0,0,2,1,1,3,0003-00-0001-04.png,0004-00-0000-20.png
00000009,619,0,1449867165947,1449867166468,955,306,0,0,0,3,4,1,7,0002-00-0001-64.png,0001-00-0000-95.png
00000009,620,0,1449867169534,1449867169574,862,347,0,0,0,1,2,1,3,0004-00-0000-94.png,0003-00-0001-26.png
00000009,621,0,1449867172558,1449867173074,888,313,0,0,0,2,3,1,5,0003-00-0001-42.png,0002-00-0001-10.png
00000009,622,0,1449867176236,1449867176445,884,406,0,0,0,0,1,1,1,0005-00-0000-69.png,0004-00-0001-90.png
00000009,623,1,1449867179405,1449867179912,1041,257,0,0,0,4,3,1,7,0001-00-0000-34.png,0002-00-0001-76.png
00000009,624,1,1449867180828,1449867181670,936,376,0,0,0,1,0,1,1,0004-00-0001-41.png,0005-00-0000-64.png
00000009,625,0,1449867183062,1449867183254,859,539,0,0,0,2,3,1,5,0003-00-0001-31.png,0002-00-0000-43.png
