subject_id,trial,correct_response,stim_time,response_time,x_coord,y_coord,trial_timeout,timeout_time,interTrial_timeout,left_rank,right_rank,distance,joint_rank,left_image,right_image
00000009,1,1,1449064962134,1449064962162,861,280,0,0,0,3,2,1,5,0002-00-0000-94.png,0003-00-0001-23.png
00000009,2,0,1449064963869,1449064963945,881,322,0,0,0,1,2,1,3,0004-00-0001-42.png,0003-00-0000-96.png
00000009,3,1,1449064967197,1449064967465,873,301,0,0,0,4,3,1,7,0001-00-0000-39.png,0002-00-0001-93.png
00000009,4,1,1449064968840,1449064969604,931,353,0,0,0,1,0,1,1,0004-00-0001-47.png,0005-00-0001-65.png
00000009,5,1,1449064970806,1449064971478,363,377,0,0,0,2,3,1,5,0003-00-0000-92.png,0002-00-0001-49.png
00000009,6,1,1449064972903,1449064973703,450,296,0,0,0,0,1,1,1,0005-00-0001-12.png,0004-00-0000-13.png
00000009,7,0,1449064974991,1449064975582,1037,307,0,0,0,3,4,1,7,0002-00-0000-40.png,0001-00-0001-41.png
00000009,8,0,1449064978504,1449064979381,508,264,0,0,0,2,1,1,3,0003-00-0001-38.png,0004-00-0001-22.png
00000009,9,1,1449064982605,1449064983151,1070,276,0,0,0,1,0,1,1,0004-00-0000-24.png,0005-00-0000-44.png
00000009,10,0,1449064984402,1449064984541,860,442,0,0,0,0,1,1,1,0005-00-0001-16.png,0004-00-0001-36.png
00000009,11,1,1449064987695,1449064988526,1046,314,0,0,0,3,2,1,5,0002-00-0001-65.png,0003-00-0001-62.png
00000009,12,0,1449064989771,1449064990706,958,355,0,0,0,2,3,1,5,0003-00-0000-25.png,0002-00-0001-99.png
00000009,13,0,1449064993936,1449064994674,1041,279,0,0,0,3,4,1,7,0002-00-0001-86.png,0001-00-0000-68.png
00000009,14,0,1449064997812,1449064998460,418,408,0,0,0,4,3,1,7,0001-00-0000-65.png,0002-00-0000-92.png
00000009,15,0,1449065001617,1449065002117,936,373,0,0,0,1,2,1,3,0004-00-0001-44.png,0003-00-0001-55.png
00000009,16,0,1449065005901,1449065006732,445,273,0,0,0,2,1,1,3,0003-00-0000-62.png,0004-00-0000-65.png
00000009,17,0,1449065010047,1449065010167,875,257,0,0,0,3,4,1,7,0002-00-0001-83.png,0001-00-0001-09.png
00000009,18,1,1449065013605,1449065014335,1058,304,0,0,0,2,1,1,3,0003-00-0000-14.png,0004-00-0000-75.png
00000009,19,0,1449065015363,1449065015741,939,496,0,0,0,0,1,1,1,0005-00-0000-40.png,0004-00-0000-46.png
00000009,20,1,1449065019140,1449065019969,438,252,0,0,0,2,3,1,5,0003-00-0000-95.png,0002-00-0001-39.png
00000009,21,1,1449065021374,1449065022269,968,298,0,0,0,3,2,1,5,0002-00-0001-84.png,0003-00-0001-75.png
00000009,22,0,1449065023422,1449065025069,942,338,0,0,0,1,2,1,3,0004-00-0000-88.png,0003-00-0000-03.png
00000009,23,1,1449065028151,1449065028741,968,355,0,0,0,1,0,1,1,0004-00-0001-37.png,0005-00-0001-18.png
00000009,24,1,1449065029774,1449065030144,890,497,0,0,0,4,3,1,7,0001-00-0001-98.png,0002-00-0000-26.png
00000009,25,0,1449065031375,1449065032365,403,349,0,0,0,2,1,1,3,0003-00-0000-53.png,0004-00-0000-25.png
00000009,26,0,1449065040327,1449065040952,1016,486,0,0,0,2,3,1,5,0003-00-0001-16.png,0002-00-0000-35.png
00000009,27,1,1449065044154,1449065044805,468,287,0,0,0,0,1,1,1,0005-00-0000-27.png,0004-00-0001-06.png
00000009,28,0,1449065045783,1449065046633,452,273,0,0,0,4,3,1,7,0001-00-0001-19.png,0002-00-0001-80.png
00000009,29,0,1449065049519,1449065050422,1012,280,0,0,0,1,2,1,3,0004-00-0001-73.png,0003-00-0000-34.png
00000009,30,1,1449065053535,1449065054409,516,266,0,0,0,3,4,1,7,0002-00-0000-47.png,0001-00-0001-40.png
00000009,31,1,1449065055443,1449065056480,939,395,0,0,0,3,2,1,5,0002-00-0001-37.png,0003-00-0000-68.png
00000009,32,1,1449065057559,1449065058534,1041,295,0,0,0,1,0,1,1,0004-00-0001-08.png,0005-00-0000-74.png
00000009,33,0,1449065059576,1449065059620,872,377,0,0,0,3,4,1,7,0002-00-0001-72.png,0001-00-0001-58.png
00000009,34,0,1449065066854,1449065067443,1055,284,0,0,0,2,3,1,5,0003-00-0000-25.png,0002-00-0000-45.png
00000009,35,1,1449065071129,1449065071157,899,299,0,0,0,1,0,1,1,0004-00-0000-31.png,0005-00-0000-97.png
00000009,36,1,1449065072211,1449065073380,988,283,0,0,0,3,2,1,5,0002-00-0001-17.png,0003-00-0000-61.png
00000009,37,0,1449065074280,1449065074395,862,448,0,0,0,0,1,1,1,0005-00-0000-30.png,0004-00-0001-09.png
00000009,38,1,1449065077342,1449065077967,939,402,0,0,0,2,1,1,3,0003-00-0001-34.png,0004-00-0001-15.png
00000009,39,0,1449065078930,1449065079934,939,317,0,0,0,1,2,1,3,0004-00-0000-64.png,0003-00-0001-29.png
00000009,40,0,1449065083016,1449065083723,399,367,0,0,0,4,3,1,7,0001-00-0000-59.png,0002-00-0001-18.png
00000009,41,0,1449065086853,1449065087375,1041,279,0,0,0,3,4,1,7,0002-00-0001-87.png,0001-00-0001-16.png
00000009,42,0,1449065090838,1449065091657,401,358,0,0,0,2,1,1,3,0003-00-0001-95.png,0004-00-0001-63.png
00000009,43,0,1449065094545,1449065095286,1110,351,0,0,0,1,2,1,3,0004-00-0000-16.png,0003-00-0001-33.png
00000009,44,1,1449065098154,1449065099024,455,266,0,0,0,0,1,1,1,0005-00-0001-02.png,0004-00-0001-06.png
00000009,45,1,1449065100093,1449065101052,913,353,0,0,0,3,2,1,5,0002-00-0001-20.png,0003-00-0000-08.png
00000009,46,1,1449065101997,1449065102791,962,353,0,0,0,1,0,1,1,0004-00-0001-00.png,0005-00-0001-50.png
00000009,47,1,1449065103777,1449065103825,864,362,0,0,0,4,3,1,7,0001-00-0001-51.png,0002-00-0000-74.png
00000009,48,0,1449065104980,1449065105762,932,340,0,0,0,2,3,1,5,0003-00-0000-55.png,0002-00-0000-99.png
00000009,49,0,1449065108903,1449065108951,868,305,0,0,0,1,2,1,3,0004-00-0000-99.png,0003-00-0000-02.png
00000009,50,0,1449065111867,1449065112388,489,303,0,0,0,4,3,1,7,0001-00-0000-46.png,0002-00-0000-51.png
00000009,51,0,1449065115433,1449065115449,861,386,0,0,0,0,1,1,1,0005-00-0001-35.png,0004-00-0001-39.png
00000009,52,0,1449065118614,1449065119133,916,335,0,0,0,2,3,1,5,0003-00-0001-92.png,0002-00-0000-37.png
00000009,53,1,1449065122061,1449065122721,910,309,0,0,0,3,2,1,5,0002-00-0001-27.png,0003-00-0001-00.png
00000009,54,1,1449065123623,1449065123751,874,467,0,0,0,1,0,1,1,0004-00-0000-73.png,0005-00-0000-87.png
00000009,55,0,1449065124775,1449065125659,967,359,0,0,0,3,4,1,7,0002-00-0000-64.png,0001-00-0000-49.png
00000009,56,0,1449065128770,1449065129466,382,342,0,0,0,2,1,1,3,0003-00-0000-10.png,0004-00-0000-11.png
00000009,57,0,1449065132305,1449065132938,1017,263,0,0,0,1,2,1,3,0004-00-0000-09.png,0003-00-0001-97.png
00000009,58,0,1449065136136,1449065136944,357,376,0,0,0,2,1,1,3,0003-00-0000-94.png,0004-00-0000-36.png
00000009,59,1,1449065140012,1449065140662,380,378,0,0,0,2,3,1,5,0003-00-0000-09.png,0002-00-0001-14.png
00000009,60,1,1449065141569,1449065142415,1001,272,0,0,0,1,0,1,1,0004-00-0001-49.png,0005-00-0001-45.png
00000009,61,1,1449065143299,1449065144109,459,245,0,0,0,0,1,1,1,0005-00-0001-30.png,0004-00-0000-07.png
00000009,62,0,1449065145229,1449065145500,886,556,0,0,0,3,4,1,7,0002-00-0001-18.png,0001-00-0001-47.png
00000009,63,1,1449065148668,1449065149322,967,350,0,0,0,3,2,1,5,0002-00-0001-12.png,0003-00-0001-67.png
00000009,64,0,1449065150256,1449065150973,386,347,0,0,0,4,3,1,7,0001-00-0000-41.png,0002-00-0000-13.png
00000009,65,1,1449065154152,1449065154727,1040,261,0,0,0,1,0,1,1,0004-00-0000-35.png,0005-00-0000-64.png
00000009,66,0,1449065155612,1449065155703,867,465,0,0,0,2,3,1,5,0003-00-0001-96.png,0002-00-0000-94.png
00000009,67,0,1449065158603,1449065159410,371,352,0,0,0,2,1,1,3,0003-00-0000-00.png,0004-00-0000-97.png
00000009,68,1,1449065162350,1449065163092,1040,275,0,0,0,3,2,1,5,0002-00-0000-97.png,0003-00-0000-58.png
00000009,69,0,1449065164012,1449065164949,934,333,0,0,0,3,4,1,7,0002-00-0000-53.png,0001-00-0000-06.png
00000009,70,0,1449065168056,1449065168120,913,306,0,0,0,0,1,1,1,0005-00-0000-56.png,0004-00-0000-48.png
00000009,71,0,1449065171283,1449065171949,478,289,0,0,0,4,3,1,7,0001-00-0001-31.png,0002-00-0001-58.png
00000009,72,0,1449065175102,1449065175742,1094,276,0,0,0,1,2,1,3,0004-00-0000-78.png,0003-00-0001-43.png
00000009,73,0,1449065178827,1449065178855,889,353,0,0,0,3,4,1,7,0002-00-0000-91.png,0001-00-0000-74.png
00000009,74,1,1449065181777,1449065182401,949,329,0,0,0,1,0,1,1,0004-00-0001-12.png,0005-00-0000-53.png
00000009,75,1,1449065183340,1449065184129,453,241,0,0,0,0,1,1,1,0005-00-0000-98.png,0004-00-0000-59.png
00000009,76,1,1449065185037,1449065186337,511,262,0,0,0,1,2,1,3,0004-00-0000-91.png,0003-00-0000-95.png
00000009,77,0,1449065187344,1449065188146,457,289,0,0,0,4,3,1,7,0001-00-0000-22.png,0002-00-0001-63.png
00000009,78,0,1449065191299,1449065191920,964,333,0,0,0,2,3,1,5,0003-00-0001-08.png,0002-00-0001-76.png
00000009,79,1,1449065195006,1449065195836,1067,290,0,0,0,3,2,1,5,0002-00-0000-51.png,0003-00-0001-02.png
00000009,80,0,1449065196766,1449065197816,445,391,0,0,0,2,1,1,3,0003-00-0001-95.png,0004-00-0000-52.png
00000009,81,1,1449065200718,1449065200730,512,404,0,0,0,1,2,1,3,0004-00-0000-78.png,0003-00-0001-58.png
00000009,82,0,1449065201752,1449065202549,913,344,0,0,0,3,4,1,7,0002-00-0000-68.png,0001-00-0001-00.png
00000009,83,0,1449065205699,1449065206329,1032,322,0,0,0,2,3,1,5,0003-00-0001-43.png,0002-00-0000-15.png
00000009,84,1,1449065209417,1449065210429,964,374,0,0,0,3,2,1,5,0002-00-0000-93.png,0003-00-0000-47.png
00000009,85,1,1449065211352,1449065212381,1016,270,0,0,0,1,0,1,1,0004-00-0001-18.png,0005-00-0000-32.png
00000009,86,0,1449065213303,1449065214324,497,254,0,0,0,4,3,1,7,0001-00-0001-42.png,0002-00-0001-06.png
00000009,87,0,1449065217943,1449065217983,977,475,0,0,0,0,1,1,1,0005-00-0000-16.png,0004-00-0000-71.png
00000009,88,1,1449065220883,1449065221470,939,332,0,0,0,2,1,1,3,0003-00-0001-54.png,0004-00-0000-18.png
00000009,89,1,1449065222465,1449065223259,1041,265,0,0,0,1,0,1,1,0004-00-0000-26.png,0005-00-0001-34.png
00000009,90,1,1449065224214,1449065224329,869,425,0,0,0,3,2,1,5,0002-00-0000-96.png,0003-00-0000-14.png
00000009,91,0,1449065225493,1449065226613,427,345,0,0,0,2,1,1,3,0003-00-0001-60.png,0004-00-0001-43.png
00000009,92,0,1449065229629,1449065230266,401,410,0,0,0,4,3,1,7,0001-00-0001-14.png,0002-00-0000-47.png
00000009,93,0,1449065233477,1449065233618,913,282,0,0,0,3,4,1,7,0002-00-0001-59.png,0001-00-0000-31.png
00000009,94,1,1449065236745,1449065237386,453,289,0,0,0,0,1,1,1,0005-00-0000-77.png,0004-00-0001-81.png
00000009,95,0,1449065238265,1449065239097,911,312,0,0,0,1,2,1,3,0004-00-0001-94.png,0003-00-0000-95.png
00000009,96,0,1449065241952,1449065242853,1019,273,0,0,0,2,3,1,5,0003-00-0001-56.png,0002-00-0001-56.png
00000009,97,1,1449065245998,1449065246584,915,317,0,0,0,1,0,1,1,0004-00-0001-93.png,0005-00-0001-87.png
00000009,98,0,1449065247479,1449065249075,435,272,0,0,0,4,3,1,7,0001-00-0001-24.png,0002-00-0001-66.png
00000009,99,0,1449065251937,1449065252537,470,287,0,0,0,2,1,1,3,0003-00-0000-37.png,0004-00-0000-49.png
00000009,100,0,1449065255545,1449065256161,990,323,0,0,0,3,4,1,7,0002-00-0001-81.png,0001-00-0001-22.png
00000009,101,0,1449065259225,1449065259273,907,361,0,0,0,1,2,1,3,0004-00-0000-23.png,0003-00-0000-50.png
00000009,102,1,1449065262455,1449065262459,868,326,0,0,0,3,2,1,5,0002-00-0001-01.png,0003-00-0000-60.png
00000009,103,1,1449065263451,1449065264891,379,349,0,0,0,2,3,1,5,0003-00-0000-99.png,0002-00-0001-04.png
00000009,104,1,1449065265855,1449065266664,409,348,0,0,0,0,1,1,1,0005-00-0001-18.png,0004-00-0000-13.png
00000009,105,0,1449065267684,1449065268436,1022,286,0,0,0,3,4,1,7,0002-00-0000-64.png,0001-00-0001-57.png
00000009,106,1,1449065271451,1449065272126,473,451,0,0,0,0,1,1,1,0005-00-0001-95.png,0004-00-0000-14.png
00000009,107,0,1449065273099,1449065274047,476,270,0,0,0,2,1,1,3,0003-00-0000-17.png,0004-00-0000-00.png
00000009,108,0,1449065277859,1449065279593,299,401,0,0,0,4,3,1,7,0001-00-0001-56.png,0002-00-0001-99.png
00000009,109,0,1449065283790,1449065284346,417,398,0,0,0,3,2,1,5,0002-00-0001-30.png,0003-00-0000-43.png
00000009,110,0,1449065287657,1449065288368,974,359,0,0,0,1,2,1,3,0004-00-0001-18.png,0003-00-0001-62.png
00000009,111,1,1449065291475,1449065292034,943,321,0,0,0,1,0,1,1,0004-00-0000-79.png,0005-00-0001-50.png
00000009,112,0,1449065292934,1449065293147,959,519,0,0,0,2,3,1,5,0003-00-0000-06.png,0002-00-0000-15.png
00000009,113,0,1449065296373,1449065297032,377,348,0,0,0,2,1,1,3,0003-00-0001-06.png,0004-00-0000-60.png
00000009,114,0,1449065299970,1449065300039,985,387,0,0,0,3,4,1,7,0002-00-0000-48.png,0001-00-0000-60.png
00000009,115,1,1449065303348,1449065303910,453,262,0,0,0,0,1,1,1,0005-00-0000-26.png,0004-00-0000-36.png
00000009,116,0,1449065304842,1449065306222,1024,306,0,0,0,2,3,1,5,0003-00-0000-57.png,0002-00-0001-24.png
00000009,117,0,1449065309274,1449065309710,451,334,0,0,0,4,3,1,7,0001-00-0001-73.png,0002-00-0000-57.png
00000009,118,1,1449065312871,1449065313162,1006,356,0,0,0,3,2,1,5,0002-00-0001-07.png,0003-00-0000-79.png
00000009,119,1,1449065314093,1449065314161,865,419,0,0,0,1,0,1,1,0004-00-0000-41.png,0005-00-0000-03.png
00000009,120,0,1449065315168,1449065316172,939,292,0,0,0,1,2,1,3,0004-00-0001-09.png,0003-00-0001-47.png
00000009,121,0,1449065319121,1449065319836,1070,256,0,0,0,1,2,1,3,0004-00-0000-25.png,0003-00-0001-32.png
00000009,122,1,1449065322701,1449065323550,351,360,0,0,0,2,3,1,5,0003-00-0000-28.png,0002-00-0000-48.png
00000009,123,0,1449065324480,1449065325557,377,345,0,0,0,3,2,1,5,0002-00-0001-66.png,0003-00-0001-39.png
00000009,124,1,1449065328702,1449065329366,976,332,0,0,0,1,0,1,1,0004-00-0001-41.png,0005-00-0001-04.png
00000009,125,1,1449065330262,1449065330440,891,441,0,0,0,4,3,1,7,0001-00-0001-65.png,0002-00-0000-37.png
00000009,126,1,1449065331545,1449065332420,1016,270,0,0,0,2,1,1,3,0003-00-0001-06.png,0004-00-0000-47.png
00000009,127,0,1449065333431,1449065333538,886,448,0,0,0,0,1,1,1,0005-00-0000-40.png,0004-00-0000-83.png
00000009,128,0,1449065336436,1449065337041,1019,274,0,0,0,3,4,1,7,0002-00-0001-40.png,0001-00-0000-27.png
00000009,129,1,1449065339887,1449065341682,415,275,0,0,0,2,3,1,5,0003-00-0000-28.png,0002-00-0001-82.png
00000009,130,1,1449065342725,1449065343624,931,303,0,0,0,3,2,1,5,0002-00-0001-94.png,0003-00-0000-35.png
00000009,131,1,1449065344583,1449065345426,453,238,0,0,0,0,1,1,1,0005-00-0000-07.png,0004-00-0000-74.png
00000009,132,0,1449065346429,1449065347194,386,351,0,0,0,4,3,1,7,0001-00-0000-61.png,0002-00-0001-70.png
00000009,133,1,1449065350387,1449065351267,1195,541,0,0,0,1,0,1,1,0004-00-0001-78.png,0005-00-0000-36.png
00000009,134,1,1449065352186,1449065352233,863,469,0,0,0,2,1,1,3,0003-00-0001-34.png,0004-00-0000-71.png
00000009,135,0,1449065353298,1449065354149,939,295,0,0,0,3,4,1,7,0002-00-0001-10.png,0001-00-0001-53.png
00000009,136,0,1449065357087,1449065357656,1041,275,0,0,0,1,2,1,3,0004-00-0000-93.png,0003-00-0001-44.png
00000009,137,0,1449065360691,1449065361783,391,367,0,0,0,2,1,1,3,0003-00-0000-82.png,0004-00-0000-17.png
00000009,138,0,1449065364845,1449065365411,1049,326,0,0,0,1,2,1,3,0004-00-0001-88.png,0003-00-0000-27.png
00000009,139,0,1449065368563,1449065369105,948,383,0,0,0,3,4,1,7,0002-00-0000-13.png,0001-00-0000-03.png
00000009,140,1,1449065372242,1449065372282,936,354,0,0,0,1,0,1,1,0004-00-0001-09.png,0005-00-0001-18.png
00000009,141,0,1449065373254,1449065373361,862,462,0,0,0,0,1,1,1,0005-00-0001-73.png,0004-00-0001-68.png
00000009,142,1,1449065376523,1449065376571,888,306,0,0,0,4,3,1,7,0001-00-0000-95.png,0002-00-0001-37.png
00000009,143,1,1449065377549,1449065378593,913,347,0,0,0,3,2,1,5,0002-00-0000-87.png,0003-00-0001-33.png
00000009,144,0,1449065379545,1449065380624,939,322,0,0,0,2,3,1,5,0003-00-0000-02.png,0002-00-0001-98.png
00000009,145,0,1449065383569,1449065383760,888,398,0,0,0,2,3,1,5,0003-00-0001-82.png,0002-00-0000-51.png
00000009,146,0,1449065386782,1449065387395,1101,302,0,0,0,3,4,1,7,0002-00-0001-64.png,0001-00-0001-97.png
00000009,147,1,1449065390528,1449065391138,496,298,0,0,0,1,2,1,3,0004-00-0001-06.png,0003-00-0000-75.png
00000009,148,0,1449065392136,1449065392997,475,239,0,0,0,3,2,1,5,0002-00-0001-71.png,0003-00-0000-63.png
00000009,149,1,1449065396043,1449065396628,1067,282,0,0,0,1,0,1,1,0004-00-0001-85.png,0005-00-0001-10.png
00000009,150,0,1449065397462,1449065397562,891,474,0,0,0,0,1,1,1,0005-00-0001-98.png,0004-00-0001-60.png
00000009,151,1,1449065400712,1449065400768,888,332,0,0,0,4,3,1,7,0001-00-0001-90.png,0002-00-0001-70.png
00000009,152,1,1449065401699,1449065401755,870,453,0,0,0,2,1,1,3,0003-00-0000-00.png,0004-00-0000-27.png
00000009,153,1,1449065402781,1449065402970,862,488,0,0,0,2,1,1,3,0003-00-0001-34.png,0004-00-0000-12.png
00000009,154,0,1449065404179,1449065404594,884,542,0,0,0,3,4,1,7,0002-00-0000-00.png,0001-00-0001-26.png
00000009,155,1,1449065407438,1449065408464,920,453,0,0,0,3,2,1,5,0002-00-0001-00.png,0003-00-0001-48.png
00000009,156,0,1449065409349,1449065409409,865,479,0,0,0,2,3,1,5,0003-00-0000-75.png,0002-00-0001-85.png
00000009,157,0,1449065412480,1449065413293,1043,283,0,0,0,0,1,1,1,0005-00-0001-42.png,0004-00-0000-47.png
00000009,158,0,1449065416435,1449065417069,934,302,0,0,0,1,2,1,3,0004-00-0000-85.png,0003-00-0001-98.png
00000009,159,1,1449065420241,1449065420289,942,330,0,0,0,4,3,1,7,0001-00-0000-87.png,0002-00-0000-36.png
00000009,160,1,1449065421227,1449065422159,953,319,0,0,0,1,0,1,1,0004-00-0001-78.png,0005-00-0001-77.png
00000009,161,1,1449065423144,1449065424220,967,278,0,0,0,1,0,1,1,0004-00-0000-32.png,0005-00-0000-98.png
00000009,162,0,1449065425242,1449065425392,863,465,0,0,0,2,3,1,5,0003-00-0000-86.png,0002-00-0001-14.png
00000009,163,1,1449065428363,1449065429016,427,425,0,0,0,0,1,1,1,0005-00-0001-07.png,0004-00-0001-10.png
00000009,164,1,1449065429983,1449065431002,1054,266,0,0,0,3,2,1,5,0002-00-0000-74.png,0003-00-0000-30.png
00000009,165,0,1449065431958,1449065432652,1026,279,0,0,0,3,4,1,7,0002-00-0000-53.png,0001-00-0001-26.png
00000009,166,1,1449065435802,1449065436668,976,345,0,0,0,2,1,1,3,0003-00-0001-80.png,0004-00-0000-66.png
00000009,167,1,1449065437632,1449065438548,391,332,0,0,0,1,2,1,3,0004-00-0000-78.png,0003-00-0001-12.png
00000009,168,0,1449065439470,1449065440462,390,344,0,0,0,4,3,1,7,0001-00-0000-59.png,0002-00-0001-51.png
00000009,169,0,1449065443366,1449065443422,888,400,0,0,0,2,3,1,5,0003-00-0001-07.png,0002-00-0001-50.png
00000009,170,1,1449065447641,1449065448202,1034,286,0,0,0,1,0,1,1,0004-00-0000-85.png,0005-00-0001-55.png
00000009,171,1,1449065449161,1449065449857,483,243,0,0,0,0,1,1,1,0005-00-0000-17.png,0004-00-0001-91.png
00000009,172,1,1449065450807,1449065451560,930,349,0,0,0,2,1,1,3,0003-00-0001-93.png,0004-00-0001-92.png
00000009,173,1,1449065452759,1449065453991,913,332,0,0,0,4,3,1,7,0001-00-0000-44.png,0002-00-0001-79.png
00000009,174,1,1449065454954,1449065455039,887,462,0,0,0,3,2,1,5,0002-00-0000-25.png,0003-00-0000-01.png
00000009,175,0,1449065456176,1449065457050,1016,295,0,0,0,3,4,1,7,0002-00-0001-90.png,0001-00-0000-43.png
00000009,176,0,1449065460196,1449065461072,1066,281,0,0,0,1,2,1,3,0004-00-0000-10.png,0003-00-0001-88.png
00000009,177,0,1449065464283,1449065464990,489,288,0,0,0,3,2,1,5,0002-00-0000-45.png,0003-00-0000-23.png
00000009,178,0,1449065467901,1449065468490,462,285,0,0,0,4,3,1,7,0001-00-0000-61.png,0002-00-0000-66.png
00000009,179,0,1449065471619,1449065472195,964,400,0,0,0,1,2,1,3,0004-00-0000-95.png,0003-00-0001-29.png
00000009,180,0,1449065475334,1449065475859,964,293,0,0,0,3,4,1,7,0002-00-0001-50.png,0001-00-0001-09.png
00000009,181,0,1449065478862,1449065478906,859,335,0,0,0,0,1,1,1,0005-00-0001-09.png,0004-00-0001-25.png
00000009,182,1,1449065481842,1449065482411,1076,308,0,0,0,1,0,1,1,0004-00-0000-36.png,0005-00-0001-56.png
00000009,183,0,1449065483334,1449065483441,869,466,0,0,0,2,3,1,5,0003-00-0000-34.png,0002-00-0000-64.png
00000009,184,0,1449065486706,1449065487410,453,289,0,0,0,2,1,1,3,0003-00-0000-05.png,0004-00-0001-68.png
00000009,185,1,1449065490451,1449065491237,964,384,0,0,0,3,2,1,5,0002-00-0000-31.png,0003-00-0001-18.png
00000009,186,0,1449065492200,1449065492577,937,541,0,0,0,3,4,1,7,0002-00-0000-89.png,0001-00-0001-62.png
00000009,187,0,1449065495435,1449065496016,1067,279,0,0,0,2,3,1,5,0003-00-0000-69.png,0002-00-0001-46.png
00000009,188,1,1449065499138,1449065499186,913,332,0,0,0,4,3,1,7,0001-00-0001-44.png,0002-00-0000-78.png
00000009,189,0,1449065500151,1449065501292,437,356,0,0,0,2,1,1,3,0003-00-0000-84.png,0004-00-0000-43.png
00000009,190,1,1449065504184,1449065504733,935,278,0,0,0,1,0,1,1,0004-00-0000-64.png,0005-00-0001-90.png
00000009,191,0,1449065505636,1449065506528,1057,251,0,0,0,1,2,1,3,0004-00-0001-45.png,0003-00-0000-47.png
00000009,192,1,1449065509529,1449065510294,395,403,0,0,0,0,1,1,1,0005-00-0001-02.png,0004-00-0000-15.png
00000009,193,0,1449065511148,1449065511889,497,260,0,0,0,1,0,1,1,0004-00-0000-10.png,0005-00-0001-82.png
00000009,194,0,1449065514908,1449065514960,865,353,0,0,0,0,1,1,1,0005-00-0000-06.png,0004-00-0000-49.png
00000009,195,0,1449065517968,1449065518501,1073,278,0,0,0,3,4,1,7,0002-00-0000-29.png,0001-00-0000-38.png
00000009,196,1,1449065521585,1449065522138,929,384,0,0,0,4,3,1,7,0001-00-0001-93.png,0002-00-0000-89.png
00000009,197,0,1449065523076,1449065524127,418,355,0,0,0,2,1,1,3,0003-00-0001-32.png,0004-00-0000-25.png
00000009,198,0,1449065526970,1449065527530,1064,279,0,0,0,1,2,1,3,0004-00-0000-82.png,0003-00-0001-97.png
00000009,199,0,1449065530659,1449065530724,939,344,0,0,0,2,3,1,5,0003-00-0001-16.png,0002-00-0000-34.png
00000009,200,1,1449065539604,1449065539616,930,286,0,0,0,3,2,1,5,0002-00-0001-65.png,0003-00-0000-71.png
00000009,201,0,1449065540789,1449065541560,919,350,0,0,0,1,2,1,3,0004-00-0001-74.png,0003-00-0000-70.png
00000009,202,0,1449065544663,1449065545284,494,249,0,0,0,2,1,1,3,0003-00-0001-20.png,0004-00-0000-83.png
00000009,203,1,1449065548399,1449065548417,858,308,0,0,0,3,2,1,5,0002-00-0000-26.png,0003-00-0000-20.png
00000009,204,1,1449065549351,1449065549443,866,514,0,0,0,1,0,1,1,0004-00-0000-44.png,0005-00-0000-78.png
00000009,205,1,1449065550486,1449065552315,441,272,0,0,0,3,4,1,7,0002-00-0001-79.png,0001-00-0001-89.png
00000009,206,1,1449065553329,1449065554135,464,249,0,0,0,0,1,1,1,0005-00-0000-78.png,0004-00-0001-89.png
00000009,207,0,1449065555196,1449065555892,361,344,0,0,0,4,3,1,7,0001-00-0001-97.png,0002-00-0000-04.png
00000009,208,0,1449065560563,1449065561439,984,430,0,0,0,2,3,1,5,0003-00-0001-80.png,0002-00-0001-38.png
00000009,209,0,1449065602680,1449065603312,908,300,0,0,0,2,3,1,5,0003-00-0001-91.png,0002-00-0000-08.png
00000009,210,0,1449065606587,1449065607225,493,275,0,0,0,3,2,1,5,0002-00-0001-53.png,0003-00-0001-22.png
00000009,211,0,1449065610182,1449065610830,939,396,0,0,0,1,2,1,3,0004-00-0001-97.png,0003-00-0000-99.png
00000009,212,0,1449065614010,1449065614839,423,430,0,0,0,4,3,1,7,0001-00-0000-27.png,0002-00-0001-13.png
00000009,213,0,1449065617877,1449065618398,487,278,0,0,0,2,1,1,3,0003-00-0001-44.png,0004-00-0000-34.png
00000009,214,0,1449065621653,1449065622365,944,340,0,0,0,3,4,1,7,0002-00-0001-89.png,0001-00-0001-87.png
00000009,215,1,1449065625319,1449065626071,947,384,0,0,0,1,0,1,1,0004-00-0001-30.png,0005-00-0000-94.png
00000009,216,0,1449065627090,1449065627201,870,490,0,0,0,0,1,1,1,0005-00-0000-28.png,0004-00-0001-89.png
00000009,217,0,1449065630358,1449065630973,1041,289,0,0,0,3,4,1,7,0002-00-0000-75.png,0001-00-0000-44.png
00000009,218,1,1449065634293,1449065634341,862,358,0,0,0,4,3,1,7,0001-00-0000-94.png,0002-00-0001-67.png
00000009,219,1,1449065635370,1449065636927,948,340,0,0,0,3,2,1,5,0002-00-0001-97.png,0003-00-0000-96.png
00000009,220,1,1449065637942,1449065638005,868,464,0,0,0,2,1,1,3,0003-00-0001-02.png,0004-00-0001-68.png
00000009,221,1,1449065639132,1449065640144,386,326,0,0,0,2,3,1,5,0003-00-0001-88.png,0002-00-0000-69.png
00000009,222,0,1449065641251,1449065642349,944,283,0,0,0,1,2,1,3,0004-00-0000-10.png,0003-00-0000-73.png
00000009,223,1,1449065645394,1449065645438,908,382,0,0,0,1,0,1,1,0004-00-0000-82.png,0005-00-0001-88.png
00000009,224,0,1449065646388,1449065646506,866,533,0,0,0,0,1,1,1,0005-00-0000-56.png,0004-00-0000-93.png
00000009,225,1,1449065661951,1449065661955,862,422,0,0,0,3,2,1,5,0002-00-0000-01.png,0003-00-0001-25.png
00000009,226,0,1449065663115,1449065664231,463,246,0,0,0,2,1,1,3,0003-00-0000-35.png,0004-00-0000-76.png
00000009,227,0,1449065667339,1449065667351,886,354,0,0,0,2,3,1,5,0003-00-0001-91.png,0002-00-0000-52.png
00000009,228,1,1449065670461,1449065671263,396,405,0,0,0,3,4,1,7,0002-00-0000-35.png,0001-00-0001-17.png
00000009,229,0,1449065672247,1449065673337,934,362,0,0,0,1,2,1,3,0004-00-0000-96.png,0003-00-0001-26.png
00000009,230,0,1449065676493,1449065677205,474,279,0,0,0,4,3,1,7,0001-00-0000-32.png,0002-00-0001-22.png
00000009,231,1,1449065680038,1449065680652,1031,279,0,0,0,1,0,1,1,0004-00-0000-43.png,0005-00-0001-27.png
00000009,232,0,1449065681591,1449065681667,862,462,0,0,0,0,1,1,1,0005-00-0001-50.png,0004-00-0001-75.png
00000009,233,0,1449065684682,1449065685384,939,384,0,0,0,3,4,1,7,0002-00-0000-32.png,0001-00-0000-09.png
00000009,234,1,1449065688479,1449065689025,965,300,0,0,0,1,0,1,1,0004-00-0000-73.png,0005-00-0000-25.png
00000009,235,0,1449065689930,1449065690085,861,516,0,0,0,2,3,1,5,0003-00-0001-66.png,0002-00-0000-81.png
00000009,236,0,1449065692959,1449065693774,412,375,0,0,0,2,1,1,3,0003-00-0001-60.png,0004-00-0001-83.png
00000009,237,0,1449065696646,1449065696718,907,409,0,0,0,1,2,1,3,0004-00-0000-16.png,0003-00-0001-64.png
00000009,238,1,1449065699896,1449065699940,889,361,0,0,0,3,2,1,5,0002-00-0001-56.png,0003-00-0001-59.png
00000009,239,1,1449065700939,1449065701820,401,332,0,0,0,0,1,1,1,0005-00-0000-10.png,0004-00-0000-86.png
00000009,240,0,1449065702901,1449065703886,436,409,0,0,0,4,3,1,7,0001-00-0001-87.png,0002-00-0000-95.png
00000009,241,1,1449065707031,1449065707047,890,359,0,0,0,3,2,1,5,0002-00-0001-62.png,0003-00-0000-13.png
00000009,242,1,1449065708058,1449065709105,411,324,0,0,0,2,3,1,5,0003-00-0000-07.png,0002-00-0000-95.png
00000009,243,0,1449065710122,1449065711016,939,290,0,0,0,1,2,1,3,0004-00-0001-83.png,0003-00-0000-79.png
00000009,244,1,1449065713958,1449065714499,1051,279,0,0,0,1,0,1,1,0004-00-0000-12.png,0005-00-0001-75.png
00000009,245,0,1449065715447,1449065715495,860,468,0,0,0,0,1,1,1,0005-00-0000-11.png,0004-00-0001-29.png
00000009,246,0,1449065718586,1449065719509,493,306,0,0,0,4,3,1,7,0001-00-0001-08.png,0002-00-0001-76.png
00000009,247,0,1449065722645,1449065723609,495,279,0,0,0,2,1,1,3,0003-00-0000-35.png,0004-00-0000-20.png
00000009,248,0,1449065726829,1449065727311,1086,275,0,0,0,3,4,1,7,0002-00-0001-72.png,0001-00-0000-38.png
00000009,249,1,1449065730215,1449065730806,407,390,0,0,0,0,1,1,1,0005-00-0000-44.png,0004-00-0000-52.png
00000009,250,1,1449065731776,1449065733008,942,330,0,0,0,3,2,1,5,0002-00-0000-63.png,0003-00-0001-60.png
00000009,251,0,1449065733993,1449065734058,885,461,0,0,0,2,3,1,5,0003-00-0001-18.png,0002-00-0000-75.png
00000009,252,0,1449065737112,1449065737718,939,319,0,0,0,1,2,1,3,0004-00-0000-26.png,0003-00-0000-36.png
00000009,253,1,1449065740930,1449065741570,939,400,0,0,0,1,0,1,1,0004-00-0001-30.png,0005-00-0000-55.png
00000009,254,0,1449065742530,1449065742650,910,516,0,0,0,3,4,1,7,0002-00-0001-19.png,0001-00-0001-50.png
00000009,255,1,1449065745598,1449065745857,901,306,0,0,0,4,3,1,7,0001-00-0001-54.png,0002-00-0000-61.png
00000009,256,1,1449065746929,1449065748008,938,331,0,0,0,2,1,1,3,0003-00-0000-70.png,0004-00-0001-62.png
00000009,257,0,1449065749078,1449065749202,863,493,0,0,0,0,1,1,1,0005-00-0000-21.png,0004-00-0001-50.png
00000009,258,1,1449065752110,1449065752742,410,357,0,0,0,1,2,1,3,0004-00-0000-19.png,0003-00-0000-26.png
00000009,259,1,1449065753758,1449065754623,1046,254,0,0,0,1,0,1,1,0004-00-0001-02.png,0005-00-0001-24.png
00000009,260,0,1449065755557,1449065755590,862,434,0,0,0,2,3,1,5,0003-00-0000-70.png,0002-00-0000-25.png
00000009,261,0,1449065758794,1449065759639,478,288,0,0,0,2,1,1,3,0003-00-0000-94.png,0004-00-0000-79.png
00000009,262,1,1449065762810,1449065762846,888,378,0,0,0,3,2,1,5,0002-00-0001-71.png,0003-00-0000-73.png
00000009,263,0,1449065763763,1449065764753,493,242,0,0,0,4,3,1,7,0001-00-0000-80.png,0002-00-0001-47.png
00000009,264,0,1449065767875,1449065768758,939,372,0,0,0,3,4,1,7,0002-00-0001-27.png,0001-00-0001-95.png
00000009,265,0,1449065771682,1449065772287,944,349,0,0,0,2,3,1,5,0003-00-0000-23.png,0002-00-0001-04.png
00000009,266,0,1449065775323,1449065775989,964,292,0,0,0,3,4,1,7,0002-00-0000-66.png,0001-00-0000-69.png
00000009,267,1,1449065779069,1449065779089,905,381,0,0,0,1,0,1,1,0004-00-0000-69.png,0005-00-0000-28.png
00000009,268,0,1449065780141,1449065781275,504,267,0,0,0,2,1,1,3,0003-00-0000-70.png,0004-00-0001-91.png
00000009,269,0,1449065784516,1449065784621,903,267,0,0,0,0,1,1,1,0005-00-0000-75.png,0004-00-0001-01.png
00000009,270,1,1449065787893,1449065788537,939,360,0,0,0,3,2,1,5,0002-00-0000-29.png,0003-00-0001-54.png
00000009,271,1,1449065789673,1449065789778,888,541,0,0,0,4,3,1,7,0001-00-0000-46.png,0002-00-0000-28.png
00000009,272,0,1449065790941,1449065792189,1011,281,0,0,0,1,2,1,3,0004-00-0001-08.png,0003-00-0001-18.png
00000009,273,0,1449065795366,1449065796002,412,373,0,0,0,3,2,1,5,0002-00-0001-27.png,0003-00-0000-20.png
00000009,274,1,1449065799043,1449065799654,964,361,0,0,0,1,0,1,1,0004-00-0000-35.png,0005-00-0001-01.png
00000009,275,0,1449065800584,1449065800761,862,540,0,0,0,1,2,1,3,0004-00-0001-00.png,0003-00-0000-04.png
00000009,276,0,1449065803755,1449065804389,910,330,0,0,0,2,3,1,5,0003-00-0000-49.png,0002-00-0001-29.png
00000009,277,0,1449065807392,1449065808007,958,315,0,0,0,3,4,1,7,0002-00-0000-32.png,0001-00-0001-24.png
00000009,278,1,1449065810879,1449065811044,901,306,0,0,0,2,1,1,3,0003-00-0000-11.png,0004-00-0000-80.png
00000009,279,1,1449065812063,1449065812954,500,291,0,0,0,0,1,1,1,0005-00-0001-10.png,0004-00-0000-33.png
00000009,280,0,1449065813980,1449065814906,392,319,0,0,0,4,3,1,7,0001-00-0001-21.png,0002-00-0000-12.png
00000009,281,1,1449065818054,1449065818651,939,322,0,0,0,1,0,1,1,0004-00-0001-41.png,0005-00-0001-70.png
00000009,282,1,1449065819619,1449065819793,915,511,0,0,0,2,1,1,3,0003-00-0000-31.png,0004-00-0000-60.png
00000009,283,0,1449065820888,1449065821915,931,342,0,0,0,3,4,1,7,0002-00-0000-51.png,0001-00-0001-99.png
00000009,284,0,1449065825116,1449065825717,521,287,0,0,0,4,3,1,7,0001-00-0001-63.png,0002-00-0001-71.png
00000009,285,0,1449065828847,1449065829670,964,410,0,0,0,1,2,1,3,0004-00-0001-24.png,0003-00-0000-54.png
00000009,286,1,1449065832914,1449065833598,520,264,0,0,0,0,1,1,1,0005-00-0000-73.png,0004-00-0001-05.png
00000009,287,0,1449065834504,1449065836168,453,392,0,0,0,3,2,1,5,0002-00-0000-70.png,0003-00-0001-05.png
00000009,288,0,1449065839313,1449065839595,935,379,0,0,0,2,3,1,5,0003-00-0000-22.png,0002-00-0001-49.png
00000009,289,1,1449065842595,1449065843170,1069,307,0,0,0,1,0,1,1,0004-00-0001-43.png,0005-00-0001-61.png
00000009,290,1,1449065844144,1449065845207,955,351,0,0,0,3,2,1,5,0002-00-0001-30.png,0003-00-0000-92.png
00000009,291,1,1449065846210,1449065846238,937,391,0,0,0,2,1,1,3,0003-00-0000-20.png,0004-00-0001-21.png
00000009,292,0,1449065847384,1449065848556,915,316,0,0,0,2,3,1,5,0003-00-0000-21.png,0002-00-0001-71.png
00000009,293,0,1449065851567,1449065852373,947,336,0,0,0,1,2,1,3,0004-00-0000-52.png,0003-00-0001-69.png
00000009,294,0,1449065855623,1449065856174,935,325,0,0,0,3,4,1,7,0002-00-0001-24.png,0001-00-0001-70.png
00000009,295,1,1449065859406,1449065859962,504,269,0,0,0,0,1,1,1,0005-00-0001-48.png,0004-00-0001-94.png
00000009,296,0,1449065861000,1449065862206,514,279,0,0,0,4,3,1,7,0001-00-0001-60.png,0002-00-0001-34.png
00000009,297,0,1449065865251,1449065865926,964,332,0,0,0,3,4,1,7,0002-00-0001-41.png,0001-00-0001-66.png
00000009,298,0,1449065868881,1449065869765,504,275,0,0,0,2,1,1,3,0003-00-0001-93.png,0004-00-0001-29.png
00000009,299,1,1449065872937,1449065873602,504,279,0,0,0,0,1,1,1,0005-00-0000-74.png,0004-00-0001-67.png
00000009,300,1,1449065874629,1449065875643,962,319,0,0,0,3,2,1,5,0002-00-0001-81.png,0003-00-0001-99.png
00000009,301,0,1449065876587,1449065876644,862,439,0,0,0,1,2,1,3,0004-00-0000-88.png,0003-00-0001-42.png
00000009,302,0,1449065879679,1449065880449,516,282,0,0,0,4,3,1,7,0001-00-0001-96.png,0002-00-0001-65.png
00000009,303,1,1449065883482,1449065883712,995,334,0,0,0,1,0,1,1,0004-00-0000-96.png,0005-00-0001-09.png
00000009,304,0,1449065884708,1449065884744,862,410,0,0,0,2,3,1,5,0003-00-0001-22.png,0002-00-0000-91.png
00000009,305,0,1449065887788,1449065888363,1044,271,0,0,0,3,4,1,7,0002-00-0000-27.png,0001-00-0001-16.png
00000009,306,1,1449065891584,1449065891651,1005,359,0,0,0,4,3,1,7,0001-00-0001-93.png,0002-00-0000-34.png
00000009,307,1,1449065892707,1449065892783,862,488,0,0,0,2,1,1,3,0003-00-0000-83.png,0004-00-0001-98.png
00000009,308,1,1449065893799,1449065894852,490,241,0,0,0,0,1,1,1,0005-00-0000-13.png,0004-00-0001-69.png
00000009,309,1,1449065895807,1449065896712,912,305,0,0,0,1,0,1,1,0004-00-0000-20.png,0005-00-0001-70.png
00000009,310,0,1449065897865,1449065897991,859,505,0,0,0,2,3,1,5,0003-00-0001-26.png,0002-00-0000-81.png
00000009,311,0,1449065901177,1449065902064,964,373,0,0,0,1,2,1,3,0004-00-0000-24.png,0003-00-0001-46.png
00000009,312,1,1449065905219,1449065905806,990,316,0,0,0,3,2,1,5,0002-00-0001-53.png,0003-00-0001-38.png
00000009,313,1,1449065906719,1449065906755,877,469,0,0,0,1,0,1,1,0004-00-0000-05.png,0005-00-0000-98.png
00000009,314,1,1449065907913,1449065909220,929,332,0,0,0,3,2,1,5,0002-00-0001-94.png,0003-00-0001-12.png
00000009,315,0,1449065910197,1449065911180,945,323,0,0,0,3,4,1,7,0002-00-0001-87.png,0001-00-0001-70.png
00000009,316,0,1449065914381,1449065915046,497,286,0,0,0,4,3,1,7,0001-00-0000-52.png,0002-00-0001-77.png
00000009,317,1,1449065917879,1449065918423,413,356,0,0,0,0,1,1,1,0005-00-0000-13.png,0004-00-0001-44.png
00000009,318,1,1449065919359,1449065920545,510,272,0,0,0,2,3,1,5,0003-00-0001-20.png,0002-00-0001-94.png
00000009,319,1,1449065922361,1449065923366,1016,269,0,0,0,2,1,1,3,0003-00-0001-23.png,0004-00-0000-53.png
00000009,320,0,1449065924348,1449065925431,939,307,0,0,0,1,2,1,3,0004-00-0000-60.png,0003-00-0001-32.png
00000009,321,1,1449065928560,1449065928580,876,360,0,0,0,4,3,1,7,0001-00-0001-37.png,0002-00-0001-85.png
00000009,322,0,1449065929586,1449065930446,1030,321,0,0,0,1,2,1,3,0004-00-0000-75.png,0003-00-0001-98.png
00000009,323,0,1449065933800,1449065934341,939,421,0,0,0,2,3,1,5,0003-00-0000-00.png,0002-00-0000-89.png
00000009,324,1,1449065937495,1449065937531,862,332,0,0,0,3,2,1,5,0002-00-0000-85.png,0003-00-0001-03.png
00000009,325,0,1449065938526,1449065939656,485,271,0,0,0,2,1,1,3,0003-00-0001-32.png,0004-00-0000-93.png
00000009,326,0,1449065942883,1449065943661,1039,285,0,0,0,3,4,1,7,0002-00-0001-96.png,0001-00-0001-85.png
00000009,327,1,1449065946767,1449065947329,1069,284,0,0,0,1,0,1,1,0004-00-0001-41.png,0005-00-0001-11.png
00000009,328,0,1449065948307,1449065948473,864,540,0,0,0,0,1,1,1,0005-00-0001-31.png,0004-00-0000-71.png
00000009,329,0,1449065951576,1449065952601,478,258,0,0,0,2,1,1,3,0003-00-0000-50.png,0004-00-0001-01.png
00000009,330,0,1449065955798,1449065955858,988,379,0,0,0,0,1,1,1,0005-00-0000-04.png,0004-00-0001-76.png
00000009,331,1,1449065958910,1449065958930,893,387,0,0,0,4,3,1,7,0001-00-0000-16.png,0002-00-0001-84.png
00000009,332,0,1449065959998,1449065962127,1012,272,0,0,0,3,4,1,7,0002-00-0001-35.png,0001-00-0001-80.png
00000009,333,0,1449065965278,1449065965330,920,330,0,0,0,1,2,1,3,0004-00-0001-16.png,0003-00-0001-30.png
00000009,334,0,1449065968232,1449065968838,962,331,0,0,0,2,3,1,5,0003-00-0000-55.png,0002-00-0000-31.png
00000009,335,1,1449065971955,1449065972591,964,401,0,0,0,1,0,1,1,0004-00-0000-46.png,0005-00-0001-21.png
00000009,336,1,1449065973518,1449065973562,864,437,0,0,0,3,2,1,5,0002-00-0000-06.png,0003-00-0000-41.png
00000009,337,1,1449065974654,1449065975787,513,271,0,0,0,0,1,1,1,0005-00-0001-35.png,0004-00-0000-73.png
00000009,338,1,1449065976799,1449065977872,1049,279,0,0,0,3,2,1,5,0002-00-0000-38.png,0003-00-0000-95.png
00000009,339,0,1449065978894,1449065979930,945,401,0,0,0,1,2,1,3,0004-00-0000-44.png,0003-00-0001-20.png
00000009,340,0,1449065982779,1449065983421,955,460,0,0,0,3,4,1,7,0002-00-0000-50.png,0001-00-0000-80.png
00000009,341,1,1449065986399,1449065987002,504,285,0,0,0,2,3,1,5,0003-00-0001-37.png,0002-00-0001-60.png
00000009,342,1,1449065988038,1449065989031,1039,276,0,0,0,1,0,1,1,0004-00-0001-61.png,0005-00-0001-59.png
00000009,343,1,1449065989984,1449065990069,888,462,0,0,0,4,3,1,7,0001-00-0000-00.png,0002-00-0000-14.png
00000009,344,0,1449065991270,1449065992597,514,254,0,0,0,2,1,1,3,0003-00-0000-00.png,0004-00-0001-43.png
00000009,345,1,1449065995448,1449065996064,501,268,0,0,0,0,1,1,1,0005-00-0001-33.png,0004-00-0000-55.png
00000009,346,1,1449065996969,1449065998160,487,245,0,0,0,2,3,1,5,0003-00-0000-33.png,0002-00-0001-59.png
00000009,347,0,1449065999147,1449066000244,497,262,0,0,0,2,1,1,3,0003-00-0001-92.png,0004-00-0001-72.png
00000009,348,0,1449066003401,1449066003441,931,382,0,0,0,1,2,1,3,0004-00-0000-86.png,0003-00-0001-60.png
00000009,349,1,1449066006380,1449066006439,865,450,0,0,0,3,2,1,5,0002-00-0001-89.png,0003-00-0001-30.png
00000009,350,0,1449066007523,1449066008564,949,337,0,0,0,3,4,1,7,0002-00-0001-00.png,0001-00-0001-66.png
00000009,351,1,1449066011517,1449066012154,991,384,0,0,0,1,0,1,1,0004-00-0000-74.png,0005-00-0001-94.png
00000009,352,1,1449066013105,1449066013185,858,502,0,0,0,4,3,1,7,0001-00-0000-19.png,0002-00-0001-07.png
00000009,353,0,1449066014462,1449066015897,939,428,0,0,0,3,4,1,7,0002-00-0000-55.png,0001-00-0001-72.png
00000009,354,0,1449066019030,1449066019714,442,358,0,0,0,2,1,1,3,0003-00-0000-37.png,0004-00-0001-17.png
00000009,355,1,1449066022856,1449066023397,990,293,0,0,0,3,2,1,5,0002-00-0001-02.png,0003-00-0001-92.png
00000009,356,1,1449066024307,1449066025303,504,270,0,0,0,0,1,1,1,0005-00-0001-26.png,0004-00-0000-72.png
00000009,357,0,1449066026456,1449066027390,453,384,0,0,0,4,3,1,7,0001-00-0001-57.png,0002-00-0001-47.png
00000009,358,0,1449066030566,1449066031170,964,384,0,0,0,1,2,1,3,0004-00-0001-90.png,0003-00-0000-69.png
00000009,359,0,1449066034390,1449066034646,948,335,0,0,0,2,3,1,5,0003-00-0001-73.png,0002-00-0000-40.png
00000009,360,1,1449066037710,1449066037741,940,372,0,0,0,1,0,1,1,0004-00-0000-29.png,0005-00-0000-03.png
00000009,361,0,1449066038775,1449066039650,414,344,0,0,0,4,3,1,7,0001-00-0000-54.png,0002-00-0001-04.png
00000009,362,1,1449066042938,1449066043189,898,404,0,0,0,2,1,1,3,0003-00-0000-60.png,0004-00-0000-73.png
00000009,363,1,1449066044141,1449066045003,937,279,0,0,0,1,0,1,1,0004-00-0001-80.png,0005-00-0001-55.png
00000009,364,0,1449066046039,1449066046150,888,462,0,0,0,1,2,1,3,0004-00-0001-40.png,0003-00-0000-50.png
00000009,365,0,1449066049129,1449066050319,990,410,0,0,0,3,4,1,7,0002-00-0000-23.png,0001-00-0000-08.png
00000009,366,1,1449066053513,1449066054017,470,369,0,0,0,0,1,1,1,0005-00-0001-21.png,0004-00-0000-23.png
00000009,367,1,1449066054944,1449066055929,939,325,0,0,0,3,2,1,5,0002-00-0000-71.png,0003-00-0000-98.png
00000009,368,0,1449066056911,1449066058072,955,332,0,0,0,2,3,1,5,0003-00-0001-25.png,0002-00-0001-02.png
00000009,369,1,1449066060966,1449066061543,434,427,0,0,0,0,1,1,1,0005-00-0001-15.png,0004-00-0000-78.png
00000009,370,0,1449066062485,1449066062521,873,447,0,0,0,1,2,1,3,0004-00-0000-55.png,0003-00-0000-27.png
00000009,371,1,1449066065746,1449066066002,868,372,0,0,0,4,3,1,7,0001-00-0001-52.png,0002-00-0000-83.png
00000009,372,1,1449066067017,1449066067168,859,518,0,0,0,2,1,1,3,0003-00-0001-01.png,0004-00-0000-84.png
00000009,373,0,1449066068358,1449066068439,888,462,0,0,0,3,4,1,7,0002-00-0001-56.png,0001-00-0001-85.png
00000009,374,1,1449066071420,1449066072087,941,306,0,0,0,1,0,1,1,0004-00-0001-82.png,0005-00-0001-03.png
00000009,375,0,1449066072999,1449066073212,878,541,0,0,0,2,3,1,5,0003-00-0001-87.png,0002-00-0001-12.png
00000009,376,1,1449066076188,1449066076224,887,426,0,0,0,3,2,1,5,0002-00-0001-27.png,0003-00-0001-38.png
00000009,377,1,1449066077294,1449066078455,443,406,0,0,0,2,3,1,5,0003-00-0000-00.png,0002-00-0000-69.png
00000009,378,1,1449066079408,1449066080486,493,280,0,0,0,3,4,1,7,0002-00-0001-75.png,0001-00-0000-39.png
00000009,379,1,1449066081483,1449066082524,939,332,0,0,0,1,0,1,1,0004-00-0001-46.png,0005-00-0000-33.png
00000009,380,0,1449066084267,1449066084295,874,358,0,0,0,0,1,1,1,0005-00-0000-98.png,0004-00-0000-54.png
00000009,381,0,1449066087140,1449066087722,933,331,0,0,0,1,2,1,3,0004-00-0001-18.png,0003-00-0000-08.png
00000009,382,1,1449066090842,1449066091111,865,398,0,0,0,4,3,1,7,0001-00-0000-82.png,0002-00-0001-81.png
00000009,383,1,1449066092128,1449066093079,1051,250,0,0,0,3,2,1,5,0002-00-0001-88.png,0003-00-0000-74.png
00000009,384,1,1449066094054,1449066094136,872,496,0,0,0,2,1,1,3,0003-00-0000-62.png,0004-00-0001-19.png
00000009,385,0,1449066095366,1449066096162,939,315,0,0,0,3,4,1,7,0002-00-0001-87.png,0001-00-0001-82.png
00000009,386,0,1449066099273,1449066099834,442,339,0,0,0,4,3,1,7,0001-00-0001-71.png,0002-00-0000-57.png
00000009,387,1,1449066103057,1449066103635,1067,321,0,0,0,1,0,1,1,0004-00-0000-92.png,0005-00-0001-45.png
00000009,388,0,1449066104619,1449066105659,964,332,0,0,0,2,3,1,5,0003-00-0001-88.png,0002-00-0001-35.png
00000009,389,1,1449066108822,1449066109411,939,410,0,0,0,3,2,1,5,0002-00-0001-17.png,0003-00-0001-10.png
00000009,390,0,1449066110335,1449066110424,863,476,0,0,0,1,2,1,3,0004-00-0001-78.png,0003-00-0001-63.png
00000009,391,1,1449066113316,1449066113855,494,287,0,0,0,0,1,1,1,0005-00-0000-28.png,0004-00-0001-62.png
00000009,392,0,1449066114786,1449066115988,421,358,0,0,0,2,1,1,3,0003-00-0001-64.png,0004-00-0001-18.png
00000009,393,0,1449066119211,1449066120206,397,381,0,0,0,4,3,1,7,0001-00-0000-46.png,0002-00-0000-88.png
00000009,394,0,1449066123361,1449066123934,436,358,0,0,0,3,2,1,5,0002-00-0001-50.png,0003-00-0001-58.png
00000009,395,0,1449066136946,1449066137465,936,331,0,0,0,2,3,1,5,0003-00-0000-55.png,0002-00-0001-31.png
00000009,396,1,1449066140515,1449066141005,439,364,0,0,0,0,1,1,1,0005-00-0000-17.png,0004-00-0000-86.png
00000009,397,0,1449066142520,1449066143418,922,360,0,0,0,3,4,1,7,0002-00-0001-06.png,0001-00-0000-11.png
00000009,398,0,1449066146297,1449066146919,491,280,0,0,0,2,1,1,3,0003-00-0000-79.png,0004-00-0001-06.png
00000009,399,0,1449066150096,1449066150308,880,427,0,0,0,1,2,1,3,0004-00-0001-69.png,0003-00-0000-70.png
00000009,400,1,1449066153495,1449066154086,1024,279,0,0,0,1,0,1,1,0004-00-0000-92.png,0005-00-0001-29.png
00000009,401,0,1449066155056,1449066156178,492,457,0,0,0,2,1,1,3,0003-00-0000-03.png,0004-00-0001-41.png
00000009,402,1,1449066159039,1449066159614,978,362,0,0,0,1,0,1,1,0004-00-0001-03.png,0005-00-0000-33.png
00000009,403,1,1449066160581,1449066161543,939,319,0,0,0,3,2,1,5,0002-00-0001-05.png,0003-00-0001-72.png
00000009,404,0,1449066162662,1449066163571,407,349,0,0,0,4,3,1,7,0001-00-0001-77.png,0002-00-0001-27.png
00000009,405,1,1449066166703,1449066167695,490,278,0,0,0,0,1,1,1,0005-00-0001-34.png,0004-00-0001-06.png
00000009,406,0,1449066168598,1449066169592,1041,265,0,0,0,1,2,1,3,0004-00-0000-28.png,0003-00-0001-13.png
00000009,407,0,1449066172635,1449066172683,890,372,0,0,0,2,3,1,5,0003-00-0001-34.png,0002-00-0000-74.png
00000009,408,0,1449066175944,1449066176579,1052,279,0,0,0,3,4,1,7,0002-00-0001-15.png,0001-00-0001-18.png
00000009,409,1,1449066179769,1449066180635,415,376,0,0,0,2,3,1,5,0003-00-0000-06.png,0002-00-0000-13.png
00000009,410,0,1449066181598,1449066182646,943,300,0,0,0,1,2,1,3,0004-00-0000-79.png,0003-00-0001-22.png
00000009,411,0,1449066185761,1449066185785,915,408,0,0,0,3,4,1,7,0002-00-0000-61.png,0001-00-0000-94.png
00000009,412,1,1449066188825,1449066189590,913,307,0,0,0,2,1,1,3,0003-00-0001-65.png,0004-00-0001-18.png
00000009,413,1,1449066190592,1449066191645,913,400,0,0,0,1,0,1,1,0004-00-0001-40.png,0005-00-0001-62.png
00000009,414,0,1449066192639,1449066192823,862,488,0,0,0,0,1,1,1,0005-00-0000-48.png,0004-00-0001-73.png
00000009,415,1,1449066195778,1449066195854,858,405,0,0,0,3,2,1,5,0002-00-0001-57.png,0003-00-0000-91.png
00000009,416,0,1449066196850,1449066197826,510,233,0,0,0,4,3,1,7,0001-00-0000-33.png,0002-00-0001-40.png
00000009,417,1,1449066200765,1449066201438,939,332,0,0,0,3,2,1,5,0002-00-0000-80.png,0003-00-0000-84.png
00000009,418,1,1449066202487,1449066202550,862,480,0,0,0,4,3,1,7,0001-00-0000-42.png,0002-00-0001-48.png
00000009,419,1,1449066203619,1449066204591,939,319,0,0,0,1,0,1,1,0004-00-0001-89.png,0005-00-0001-37.png
00000009,420,1,1449066205667,1449066205788,877,532,0,0,0,2,1,1,3,0003-00-0000-75.png,0004-00-0001-14.png
00000009,421,0,1449066207077,1449066207101,859,457,0,0,0,0,1,1,1,0005-00-0000-68.png,0004-00-0001-24.png
00000009,422,0,1449066210307,1449066210998,966,329,0,0,0,3,4,1,7,0002-00-0001-39.png,0001-00-0001-41.png
00000009,423,0,1449066213994,1449066214650,1047,277,0,0,0,1,2,1,3,0004-00-0001-33.png,0003-00-0000-62.png
00000009,424,0,1449066217878,1449066217926,888,367,0,0,0,2,3,1,5,0003-00-0000-64.png,0002-00-0000-13.png
00000009,425,1,1449066221000,1449066221554,964,317,0,0,0,2,1,1,3,0003-00-0000-18.png,0004-00-0001-61.png
00000009,426,0,1449066222619,1449066222714,870,486,0,0,0,3,4,1,7,0002-00-0001-56.png,0001-00-0000-04.png
00000009,427,1,1449066225818,1449066225856,864,382,0,0,0,3,2,1,5,0002-00-0000-18.png,0003-00-0000-03.png
00000009,428,0,1449066226884,1449066227738,484,262,0,0,0,4,3,1,7,0001-00-0000-53.png,0002-00-0001-81.png
00000009,429,1,1449066230786,1449066230846,874,386,0,0,0,1,0,1,1,0004-00-0000-70.png,0005-00-0001-47.png
00000009,430,0,1449066231832,1449066233147,1043,282,0,0,0,2,3,1,5,0003-00-0000-46.png,0002-00-0001-37.png
00000009,431,0,1449066236115,1449066236808,940,326,0,0,0,1,2,1,3,0004-00-0000-70.png,0003-00-0000-78.png
00000009,432,1,1449066239689,1449066240248,487,268,0,0,0,0,1,1,1,0005-00-0000-78.png,0004-00-0000-23.png
00000009,433,1,1449066241242,1449066242145,1041,289,0,0,0,3,2,1,5,0002-00-0000-64.png,0003-00-0000-43.png
00000009,434,1,1449066243050,1449066243165,888,473,0,0,0,4,3,1,7,0001-00-0001-04.png,0002-00-0000-26.png
00000009,435,1,1449066244261,1449066245482,949,306,0,0,0,1,0,1,1,0004-00-0001-09.png,0005-00-0000-11.png
00000009,436,0,1449066246528,1449066247678,504,239,0,0,0,2,1,1,3,0003-00-0001-54.png,0004-00-0001-71.png
00000009,437,1,1449066250782,1449066251478,424,375,0,0,0,2,3,1,5,0003-00-0001-42.png,0002-00-0000-52.png
00000009,438,0,1449066252460,1449066253502,939,420,0,0,0,1,2,1,3,0004-00-0000-36.png,0003-00-0000-00.png
00000009,439,0,1449066256694,1449066257250,963,338,0,0,0,3,4,1,7,0002-00-0000-90.png,0001-00-0000-80.png
00000009,440,1,1449066260282,1449066260817,415,375,0,0,0,0,1,1,1,0005-00-0000-25.png,0004-00-0000-89.png
00000009,441,1,1449066261793,1449066262825,1016,267,0,0,0,1,0,1,1,0004-00-0000-27.png,0005-00-0001-26.png
00000009,442,0,1449066263799,1449066265079,498,272,0,0,0,4,3,1,7,0001-00-0000-56.png,0002-00-0001-03.png
00000009,443,0,1449066267904,1449066267932,896,334,0,0,0,1,2,1,3,0004-00-0000-20.png,0003-00-0000-57.png
00000009,444,0,1449066271086,1449066271118,931,326,0,0,0,0,1,1,1,0005-00-0001-47.png,0004-00-0000-43.png
00000009,445,0,1449066274273,1449066274816,1067,267,0,0,0,3,4,1,7,0002-00-0001-04.png,0001-00-0001-10.png
00000009,446,1,1449066277943,1449066278516,396,350,0,0,0,2,3,1,5,0003-00-0001-02.png,0002-00-0001-60.png
00000009,447,0,1449066279481,1449066280730,433,322,0,0,0,2,1,1,3,0003-00-0001-49.png,0004-00-0000-77.png
00000009,448,1,1449066283943,1449066283967,867,377,0,0,0,3,2,1,5,0002-00-0000-73.png,0003-00-0000-69.png
00000009,449,0,1449066284897,1449066285836,1033,262,0,0,0,2,3,1,5,0003-00-0000-94.png,0002-00-0001-40.png
00000009,450,1,1449066288941,1449066289037,934,380,0,0,0,3,2,1,5,0002-00-0000-75.png,0003-00-0000-77.png
00000009,451,0,1449066289966,1449066291167,493,282,0,0,0,2,1,1,3,0003-00-0000-09.png,0004-00-0001-16.png
00000009,452,1,1449066294048,1449066294990,466,264,0,0,0,0,1,1,1,0005-00-0001-24.png,0004-00-0000-49.png
00000009,453,0,1449066295937,1449066297032,1020,303,0,0,0,3,4,1,7,0002-00-0001-62.png,0001-00-0001-41.png
00000009,454,1,1449066300090,1449066300724,1050,287,0,0,0,4,3,1,7,0001-00-0001-51.png,0002-00-0001-50.png
00000009,455,1,1449066301762,1449066302852,964,384,0,0,0,1,0,1,1,0004-00-0000-77.png,0005-00-0000-04.png
00000009,456,0,1449066303816,1449066303924,862,462,0,0,0,1,2,1,3,0004-00-0000-56.png,0003-00-0001-89.png
00000009,457,0,1449066307125,1449066307677,964,410,0,0,0,3,4,1,7,0002-00-0001-98.png,0001-00-0000-68.png
00000009,458,1,1449066310594,1449066311182,443,410,0,0,0,0,1,1,1,0005-00-0000-62.png,0004-00-0001-47.png
00000009,459,0,1449066312094,1449066313145,1051,279,0,0,0,2,3,1,5,0003-00-0001-26.png,0002-00-0001-52.png
00000009,460,0,1449066316317,1449066317199,504,293,0,0,0,4,3,1,7,0001-00-0001-38.png,0002-00-0000-93.png
00000009,461,1,1449066320282,1449066320850,1041,306,0,0,0,1,0,1,1,0004-00-0001-45.png,0005-00-0001-72.png
00000009,462,0,1449066321784,1449066323190,504,262,0,0,0,2,1,1,3,0003-00-0000-09.png,0004-00-0001-53.png
00000009,463,0,1449066326294,1449066326518,875,390,0,0,0,1,2,1,3,0004-00-0000-44.png,0003-00-0000-67.png
00000009,464,1,1449066329394,1449066329410,862,410,0,0,0,3,2,1,5,0002-00-0001-15.png,0003-00-0000-69.png
00000009,465,0,1449066330386,1449066331340,382,353,0,0,0,4,3,1,7,0001-00-0000-55.png,0002-00-0000-41.png
00000009,466,1,1449066334214,1449066334754,956,305,0,0,0,3,2,1,5,0002-00-0000-30.png,0003-00-0001-37.png
00000009,467,1,1449066335784,1449066336597,934,309,0,0,0,1,0,1,1,0004-00-0001-54.png,0005-00-0001-84.png
00000009,468,0,1449066337511,1449066338742,1013,279,0,0,0,1,2,1,3,0004-00-0001-75.png,0003-00-0001-46.png
00000009,469,0,1449066341827,1449066342177,986,361,0,0,0,0,1,1,1,0005-00-0000-82.png,0004-00-0000-62.png
00000009,470,1,1449066345334,1449066346173,504,279,0,0,0,2,3,1,5,0003-00-0000-69.png,0002-00-0001-40.png
00000009,471,0,1449066347162,1449066348227,414,331,0,0,0,2,1,1,3,0003-00-0000-96.png,0004-00-0000-14.png
00000009,472,0,1449066351698,1449066352283,947,348,0,0,0,3,4,1,7,0002-00-0000-22.png,0001-00-0000-43.png
00000009,473,0,1449066355218,1449066355266,947,415,0,0,0,3,4,1,7,0002-00-0001-06.png,0001-00-0001-27.png
00000009,474,1,1449066360915,1449066360923,862,332,0,0,0,1,0,1,1,0004-00-0000-83.png,0005-00-0001-76.png
00000009,475,0,1449066361988,1449066363023,913,343,0,0,0,1,2,1,3,0004-00-0000-79.png,0003-00-0001-78.png
00000009,476,1,1449066366322,1449066366871,1070,306,0,0,0,3,2,1,5,0002-00-0000-14.png,0003-00-0000-41.png
00000009,477,0,1449066367822,1449066367938,866,490,0,0,0,0,1,1,1,0005-00-0001-22.png,0004-00-0000-56.png
00000009,478,1,1449066380734,1449066381326,1055,331,0,0,0,2,1,1,3,0003-00-0000-93.png,0004-00-0000-17.png
00000009,479,0,1449066382264,1449066383225,471,273,0,0,0,4,3,1,7,0001-00-0000-63.png,0002-00-0000-91.png
00000009,480,0,1449066386387,1449066386435,932,346,0,0,0,2,3,1,5,0003-00-0000-92.png,0002-00-0001-61.png
00000009,481,0,1449066389508,1449066389524,894,375,0,0,0,1,2,1,3,0004-00-0001-55.png,0003-00-0001-31.png
00000009,482,0,1449066392486,1449066392546,1029,442,0,0,0,3,4,1,7,0002-00-0000-77.png,0001-00-0001-23.png
00000009,483,1,1449066395469,1449066396034,954,332,0,0,0,1,0,1,1,0004-00-0000-89.png,0005-00-0000-35.png
00000009,484,1,1449066396961,1449066397130,862,514,0,0,0,2,1,1,3,0003-00-0000-16.png,0004-00-0001-49.png
00000009,485,1,1449066398233,1449066399221,496,261,0,0,0,0,1,1,1,0005-00-0000-89.png,0004-00-0000-93.png
00000009,486,1,1449066400299,1449066401322,1020,301,0,0,0,3,2,1,5,0002-00-0001-64.png,0003-00-0000-73.png
00000009,487,1,1449066402236,1449066403417,487,277,0,0,0,2,3,1,5,0003-00-0000-30.png,0002-00-0001-26.png
00000009,488,0,1449066404554,1449066405536,411,325,0,0,0,4,3,1,7,0001-00-0000-22.png,0002-00-0000-82.png
00000009,489,1,1449066408737,1449066409270,1052,279,0,0,0,1,0,1,1,0004-00-0001-75.png,0005-00-0001-96.png
00000009,490,0,1449066410275,1449066410331,880,472,0,0,0,1,2,1,3,0004-00-0000-95.png,0003-00-0001-26.png
00000009,491,0,1449066413258,1449066413812,920,323,0,0,0,3,4,1,7,0002-00-0000-41.png,0001-00-0000-10.png
00000009,492,1,1449066416804,1449066417371,1051,332,0,0,0,3,2,1,5,0002-00-0000-74.png,0003-00-0000-05.png
00000009,493,0,1449066418345,1449066418473,888,496,0,0,0,0,1,1,1,0005-00-0001-29.png,0004-00-0000-57.png
00000009,494,0,1449066421615,1449066422132,1048,274,0,0,0,2,3,1,5,0003-00-0001-82.png,0002-00-0001-83.png
00000009,495,0,1449066425640,1449066426557,477,255,0,0,0,2,1,1,3,0003-00-0000-07.png,0004-00-0000-01.png
00000009,496,1,1449066429715,1449066429741,870,339,0,0,0,4,3,1,7,0001-00-0001-24.png,0002-00-0001-38.png
00000009,497,0,1449066430745,1449066431599,959,305,0,0,0,1,2,1,3,0004-00-0001-38.png,0003-00-0001-95.png
00000009,498,1,1449066434842,1449066434882,862,332,0,0,0,2,1,1,3,0003-00-0000-15.png,0004-00-0001-50.png
00000009,499,1,1449066435805,1449066435940,859,501,0,0,0,1,0,1,1,0004-00-0001-72.png,0005-00-0000-96.png
00000009,500,1,1449066437098,1449066438320,519,260,0,0,0,2,3,1,5,0003-00-0000-66.png,0002-00-0001-21.png
00000009,501,0,1449066439333,1449066440353,1016,331,0,0,0,3,4,1,7,0002-00-0001-00.png,0001-00-0000-81.png
00000009,502,0,1449066443398,1449066444000,468,416,0,0,0,4,3,1,7,0001-00-0001-81.png,0002-00-0000-98.png
00000009,503,1,1449066447213,1449066447757,1043,273,0,0,0,3,2,1,5,0002-00-0001-20.png,0003-00-0000-86.png
00000009,504,1,1449066448671,1449066449486,504,239,0,0,0,0,1,1,1,0005-00-0001-88.png,0004-00-0001-60.png
00000009,505,0,1449066450453,1449066451428,940,430,0,0,0,3,4,1,7,0002-00-0000-71.png,0001-00-0001-77.png
00000009,506,0,1449066454308,1449066454923,483,269,0,0,0,4,3,1,7,0001-00-0000-34.png,0002-00-0001-65.png
00000009,507,0,1449066458084,1449066458124,878,392,0,0,0,0,1,1,1,0005-00-0000-60.png,0004-00-0000-20.png
00000009,508,1,1449066461312,1449066462037,495,260,0,0,0,2,3,1,5,0003-00-0000-67.png,0002-00-0000-35.png
00000009,509,0,1449066463024,1449066464066,434,383,0,0,0,2,1,1,3,0003-00-0000-58.png,0004-00-0000-69.png
00000009,510,0,1449066467204,1449066467276,943,384,0,0,0,1,2,1,3,0004-00-0000-40.png,0003-00-0001-65.png
00000009,511,1,1449066470248,1449066470296,908,337,0,0,0,1,0,1,1,0004-00-0001-88.png,0005-00-0001-47.png
00000009,512,1,1449066471281,1449066472148,960,304,0,0,0,3,2,1,5,0002-00-0000-03.png,0003-00-0001-54.png
00000009,513,1,1449066473347,1449066473517,857,494,0,0,0,1,0,1,1,0004-00-0001-81.png,0005-00-0000-91.png
00000009,514,0,1449066474591,1449066475710,482,271,0,0,0,2,1,1,3,0003-00-0001-44.png,0004-00-0001-71.png
00000009,515,0,1449066478782,1449066479321,1058,279,0,0,0,1,2,1,3,0004-00-0000-06.png,0003-00-0001-70.png
00000009,516,1,1449066482201,1449066482237,910,353,0,0,0,4,3,1,7,0001-00-0001-01.png,0002-00-0000-18.png
00000009,517,0,1449066483209,1449066484068,438,332,0,0,0,3,2,1,5,0002-00-0001-37.png,0003-00-0001-09.png
00000009,518,1,1449066487071,1449066487613,507,279,0,0,0,0,1,1,1,0005-00-0000-27.png,0004-00-0001-05.png
00000009,519,0,1449066488602,1449066489307,1031,253,0,0,0,3,4,1,7,0002-00-0001-99.png,0001-00-0001-62.png
00000009,520,1,1449066492417,1449066493400,520,260,0,0,0,2,3,1,5,0003-00-0000-80.png,0002-00-0001-13.png
00000009,521,1,1449066494435,1449066494538,886,469,0,0,0,2,1,1,3,0003-00-0000-62.png,0004-00-0001-28.png
00000009,522,1,1449066495747,1449066496727,518,271,0,0,0,1,2,1,3,0004-00-0000-55.png,0003-00-0001-58.png
00000009,523,1,1449066497793,1449066498807,1054,279,0,0,0,1,0,1,1,0004-00-0001-71.png,0005-00-0001-98.png
00000009,524,0,1449066499831,1449066500904,408,357,0,0,0,4,3,1,7,0001-00-0000-01.png,0002-00-0000-64.png
00000009,525,1,1449066503742,1449066504682,411,436,0,0,0,0,1,1,1,0005-00-0001-85.png,0004-00-0001-15.png
00000009,526,0,1449066505644,1449066505779,863,520,0,0,0,2,3,1,5,0003-00-0001-05.png,0002-00-0000-54.png
00000009,527,0,1449066508982,1449066509604,412,363,0,0,0,3,2,1,5,0002-00-0000-16.png,0003-00-0001-05.png
00000009,528,1,1449066512769,1449066513465,500,282,0,0,0,3,4,1,7,0002-00-0001-13.png,0001-00-0000-34.png
00000009,529,1,1449066514399,1449066515172,924,324,0,0,0,1,0,1,1,0004-00-0000-53.png,0005-00-0000-26.png
00000009,530,0,1449066516347,1449066517470,490,303,0,0,0,4,3,1,7,0001-00-0001-94.png,0002-00-0001-75.png
00000009,531,1,1449066520629,1449066520837,878,410,0,0,0,2,1,1,3,0003-00-0000-37.png,0004-00-0001-03.png
00000009,532,0,1449066521871,1449066521923,881,502,0,0,0,0,1,1,1,0005-00-0001-12.png,0004-00-0000-62.png
00000009,533,0,1449066524991,1449066525054,941,363,0,0,0,3,4,1,7,0002-00-0000-14.png,0001-00-0001-22.png
00000009,534,1,1449066528053,1449066528583,951,410,0,0,0,3,2,1,5,0002-00-0001-84.png,0003-00-0000-11.png
00000009,535,1,1449066529562,1449066530548,411,323,0,0,0,2,3,1,5,0003-00-0000-17.png,0002-00-0000-77.png
00000009,536,0,1449066531538,1449066532311,939,332,0,0,0,1,2,1,3,0004-00-0001-94.png,0003-00-0000-28.png
00000009,537,1,1449066535415,1449066535459,861,363,0,0,0,1,0,1,1,0004-00-0001-02.png,0005-00-0001-21.png
00000009,538,0,1449066536459,1449066537244,1032,279,0,0,0,3,4,1,7,0002-00-0001-53.png,0001-00-0001-43.png
00000009,539,0,1449066540792,1449066540816,867,368,0,0,0,0,1,1,1,0005-00-0000-02.png,0004-00-0001-24.png
00000009,540,1,1449066544430,1449066545831,384,381,0,0,0,2,3,1,5,0003-00-0001-66.png,0002-00-0001-65.png
00000009,541,0,1449066546824,1449066547917,490,252,0,0,0,2,1,1,3,0003-00-0000-33.png,0004-00-0001-92.png
00000009,542,1,1449066551144,1449066551183,896,349,0,0,0,4,3,1,7,0001-00-0000-41.png,0002-00-0001-98.png
00000009,543,1,1449066552170,1449066553116,1016,253,0,0,0,3,2,1,5,0002-00-0001-83.png,0003-00-0001-19.png
00000009,544,0,1449066554107,1449066555063,1012,276,0,0,0,1,2,1,3,0004-00-0001-32.png,0003-00-0000-91.png
00000009,545,0,1449066557953,1449066558536,497,273,0,0,0,3,2,1,5,0002-00-0000-05.png,0003-00-0001-65.png
00000009,546,1,1449066561405,1449066562074,510,272,0,0,0,0,1,1,1,0005-00-0001-39.png,0004-00-0001-77.png
00000009,547,0,1449066563111,1449066564111,940,304,0,0,0,1,2,1,3,0004-00-0001-83.png,0003-00-0001-59.png
00000009,548,1,1449066567284,1449066567300,889,354,0,0,0,4,3,1,7,0001-00-0000-47.png,0002-00-0000-14.png
00000009,549,0,1449066568288,1449066569478,501,244,0,0,0,2,1,1,3,0003-00-0000-65.png,0004-00-0001-10.png
00000009,550,1,1449066572318,1449066572994,413,358,0,0,0,2,3,1,5,0003-00-0001-04.png,0002-00-0001-42.png
00000009,551,0,1449066574013,1449066575218,1016,283,0,0,0,3,4,1,7,0002-00-0001-88.png,0001-00-0000-95.png
00000009,552,1,1449066578374,1449066578905,964,332,0,0,0,1,0,1,1,0004-00-0001-33.png,0005-00-0000-60.png
00000009,553,1,1449066579873,1449066580822,504,236,0,0,0,2,3,1,5,0003-00-0001-17.png,0002-00-0001-95.png
00000009,554,0,1449066581980,1449066583001,941,329,0,0,0,1,2,1,3,0004-00-0000-22.png,0003-00-0001-06.png
00000009,555,1,1449066585864,1449066586440,1022,286,0,0,0,1,0,1,1,0004-00-0001-17.png,0005-00-0001-51.png
00000009,556,0,1449066587426,1449066588419,939,420,0,0,0,3,4,1,7,0002-00-0000-59.png,0001-00-0000-04.png
00000009,557,1,1449066591878,1449066592444,510,272,0,0,0,0,1,1,1,0005-00-0001-58.png,0004-00-0001-94.png
00000009,558,0,1449066593428,1449066594309,420,350,0,0,0,4,3,1,7,0001-00-0000-43.png,0002-00-0000-39.png
00000009,559,1,1449066597363,1449066597940,1052,326,0,0,0,2,1,1,3,0003-00-0001-58.png,0004-00-0001-52.png
00000009,560,1,1449066598955,1449066599066,864,534,0,0,0,3,2,1,5,0002-00-0000-41.png,0003-00-0000-84.png
00000009,561,0,1449066600405,1449066601463,478,264,0,0,0,4,3,1,7,0001-00-0001-37.png,0002-00-0000-46.png
00000009,562,1,1449066604668,1449066605390,939,395,0,0,0,3,2,1,5,0002-00-0001-24.png,0003-00-0001-60.png
00000009,563,0,1449066607120,1449066607821,913,401,0,0,0,2,3,1,5,0003-00-0000-59.png,0002-00-0000-42.png
00000009,564,0,1449066611013,1449066611072,862,332,0,0,0,0,1,1,1,0005-00-0001-47.png,0004-00-0001-07.png
00000009,565,0,1449066614188,1449066614216,955,344,0,0,0,1,2,1,3,0004-00-0000-02.png,0003-00-0000-30.png
00000009,566,0,1449066617348,1449066617921,487,279,0,0,0,2,1,1,3,0003-00-0001-92.png,0004-00-0001-90.png
00000009,567,0,1449066621084,1449066621140,865,362,0,0,0,3,4,1,7,0002-00-0001-60.png,0001-00-0000-79.png
00000009,568,1,1449066624381,1449066624921,1059,282,0,0,0,1,0,1,1,0004-00-0000-92.png,0005-00-0001-65.png
00000009,569,0,1449066625973,1449066627113,1067,312,0,0,0,2,3,1,5,0003-00-0001-41.png,0002-00-0001-02.png
00000009,570,1,1449066630130,1449066630715,505,264,0,0,0,3,4,1,7,0002-00-0000-19.png,0001-00-0001-24.png
00000009,571,0,1449066631846,1449066632878,483,267,0,0,0,4,3,1,7,0001-00-0000-26.png,0002-00-0000-88.png
00000009,572,0,1449066636058,1449066636664,504,302,0,0,0,3,2,1,5,0002-00-0001-66.png,0003-00-0001-05.png
00000009,573,1,1449066639524,1449066640206,461,403,0,0,0,1,2,1,3,0004-00-0000-73.png,0003-00-0000-61.png
00000009,574,1,1449066641214,1449066642305,1041,283,0,0,0,2,1,1,3,0003-00-0001-18.png,0004-00-0000-32.png
00000009,575,1,1449066643372,1449066644536,413,338,0,0,0,0,1,1,1,0005-00-0000-68.png,0004-00-0000-48.png
00000009,576,1,1449066645613,1449066646829,932,446,0,0,0,1,0,1,1,0004-00-0001-48.png,0005-00-0000-11.png
00000009,577,0,1449066647971,1449066649006,964,291,0,0,0,3,4,1,7,0002-00-0000-36.png,0001-00-0001-12.png
00000009,578,1,1449066651898,1449066652581,500,253,0,0,0,0,1,1,1,0005-00-0001-89.png,0004-00-0000-99.png
00000009,579,1,1449066654242,1449066654266,872,360,0,0,0,1,0,1,1,0004-00-0001-95.png,0005-00-0000-55.png
00000009,580,1,1449066655365,1449066656550,934,330,0,0,0,3,2,1,5,0002-00-0000-94.png,0003-00-0000-27.png
00000009,581,1,1449066657552,1449066657600,891,489,0,0,0,2,1,1,3,0003-00-0000-36.png,0004-00-0000-25.png
00000009,582,0,1449066658804,1449066659840,966,309,0,0,0,1,2,1,3,0004-00-0001-12.png,0003-00-0001-37.png
00000009,583,0,1449066663447,1449066663970,504,271,0,0,0,4,3,1,7,0001-00-0000-09.png,0002-00-0001-16.png
00000009,584,1,1449066666924,1449066667704,506,282,0,0,0,2,3,1,5,0003-00-0000-39.png,0002-00-0000-79.png
00000009,585,1,1449066668632,1449066668712,867,452,0,0,0,1,0,1,1,0004-00-0000-48.png,0005-00-0000-06.png
00000009,586,0,1449066669825,1449066671123,513,285,0,0,0,2,1,1,3,0003-00-0001-72.png,0004-00-0000-76.png
00000009,587,1,1449066674019,1449066674047,487,523,0,0,0,2,3,1,5,0003-00-0001-82.png,0002-00-0001-67.png
00000009,588,0,1449066675140,1449066676193,427,341,0,0,0,3,2,1,5,0002-00-0001-84.png,0003-00-0001-13.png
00000009,589,0,1449066679424,1449066680023,1067,306,0,0,0,1,2,1,3,0004-00-0001-71.png,0003-00-0000-52.png
00000009,590,0,1449066683061,1449066683117,883,395,0,0,0,3,4,1,7,0002-00-0000-94.png,0001-00-0001-51.png
00000009,591,1,1449066686120,1449066686644,520,256,0,0,0,0,1,1,1,0005-00-0000-10.png,0004-00-0001-60.png
00000009,592,0,1449066687594,1449066688501,407,322,0,0,0,4,3,1,7,0001-00-0000-70.png,0002-00-0001-99.png
00000009,593,1,1449066691727,1449066692381,1067,306,0,0,0,3,2,1,5,0002-00-0000-59.png,0003-00-0000-64.png
00000009,594,1,1449066693446,1449066694758,935,333,0,0,0,4,3,1,7,0001-00-0001-53.png,0002-00-0000-70.png
00000009,595,0,1449066695741,1449066697169,1050,281,0,0,0,1,2,1,3,0004-00-0001-71.png,0003-00-0000-80.png
00000009,596,0,1449066700165,1449066700189,902,433,0,0,0,2,3,1,5,0003-00-0000-93.png,0002-00-0000-18.png
00000009,597,1,1449066703352,1449066704183,514,279,0,0,0,0,1,1,1,0005-00-0001-87.png,0004-00-0000-15.png
00000009,598,0,1449066705133,1449066706275,497,261,0,0,0,2,1,1,3,0003-00-0001-76.png,0004-00-0001-92.png
00000009,599,0,1449066709235,1449066709783,964,397,0,0,0,3,4,1,7,0002-00-0001-45.png,0001-00-0000-26.png
00000009,600,1,1449066712792,1449066712829,859,429,0,0,0,1,0,1,1,0004-00-0000-02.png,0005-00-0000-11.png
00000009,601,0,1449066713837,1449066715067,931,312,0,0,0,3,4,1,7,0002-00-0000-14.png,0001-00-0001-78.png
00000009,602,1,1449066718259,1449066718295,907,381,0,0,0,2,1,1,3,0003-00-0000-83.png,0004-00-0001-41.png
00000009,603,1,1449066719334,1449066720301,483,280,0,0,0,2,3,1,5,0003-00-0001-57.png,0002-00-0000-48.png
00000009,604,1,1449066721457,1449066722324,913,292,0,0,0,1,0,1,1,0004-00-0000-18.png,0005-00-0000-38.png
00000009,605,0,1449066723308,1449066724179,417,320,0,0,0,3,2,1,5,0002-00-0001-75.png,0003-00-0001-23.png
00000009,606,1,1449066727392,1449066727959,504,279,0,0,0,0,1,1,1,0005-00-0001-37.png,0004-00-0001-06.png
00000009,607,0,1449066728952,1449066729739,491,275,0,0,0,4,3,1,7,0001-00-0000-25.png,0002-00-0000-58.png
00000009,608,0,1449066732926,1449066733451,964,316,0,0,0,1,2,1,3,0004-00-0001-86.png,0003-00-0001-64.png
00000009,609,1,1449066736274,1449066736873,1052,282,0,0,0,1,0,1,1,0004-00-0000-77.png,0005-00-0000-86.png
00000009,610,0,1449066737796,1449066737808,862,452,0,0,0,3,4,1,7,0002-00-0001-24.png,0001-00-0001-26.png
00000009,611,1,1449066740925,1449066740957,933,373,0,0,0,3,2,1,5,0002-00-0000-75.png,0003-00-0000-34.png
00000009,612,1,1449066741929,1449066742942,1037,283,0,0,0,2,1,1,3,0003-00-0001-12.png,0004-00-0000-78.png
00000009,613,0,1449066744136,1449066745556,1057,278,0,0,0,1,2,1,3,0004-00-0000-54.png,0003-00-0000-24.png
00000009,614,1,1449066748537,1449066749082,427,366,0,0,0,0,1,1,1,0005-00-0001-33.png,0004-00-0000-21.png
00000009,615,1,1449066750017,1449066750193,859,564,0,0,0,4,3,1,7,0001-00-0000-96.png,0002-00-0001-49.png
00000009,616,1,1449066751347,1449066752660,504,263,0,0,0,2,3,1,5,0003-00-0001-29.png,0002-00-0001-62.png
00000009,617,0,1449066753653,1449066754557,491,264,0,0,0,4,3,1,7,0001-00-0000-61.png,0002-00-0001-47.png
00000009,618,1,1449066757768,1449066758343,1052,280,0,0,0,1,0,1,1,0004-00-0001-00.png,0005-00-0001-28.png
00000009,619,0,1449066759318,1449066760515,1041,317,0,0,0,1,2,1,3,0004-00-0000-13.png,0003-00-0000-49.png
00000009,620,1,1449066763451,1449066763520,858,413,0,0,0,2,1,1,3,0003-00-0001-12.png,0004-00-0000-71.png
00000009,621,0,1449066764567,1449066764611,869,504,0,0,0,0,1,1,1,0005-00-0000-50.png,0004-00-0001-85.png
00000009,622,1,1449066767466,1449066768229,514,293,0,0,0,2,3,1,5,0003-00-0001-11.png,0002-00-0000-46.png
00000009,623,1,1449066769146,1449066770267,1040,311,0,0,0,3,2,1,5,0002-00-0001-46.png,0003-00-0001-00.png
00000009,624,0,1449066771291,1449066772515,939,318,0,0,0,3,4,1,7,0002-00-0001-01.png,0001-00-0000-17.png
00000009,625,1,1449066775681,1449066776498,1057,279,0,0,0,3,2,1,5,0002-00-0000-73.png,0003-00-0000-89.png
00000009,626,0,1449066777500,1449066778583,432,323,0,0,0,4,3,1,7,0001-00-0001-71.png,0002-00-0000-92.png
00000009,627,0,1449066794657,1449066795691,905,352,0,0,0,2,3,1,5,0003-00-0000-02.png,0002-00-0000-40.png
00000009,628,1,1449066802965,1449066803478,1041,306,0,0,0,1,0,1,1,0004-00-0000-62.png,0005-00-0001-12.png
00000009,629,0,1449066804347,1449066805169,923,358,0,0,0,3,4,1,7,0002-00-0000-76.png,0001-00-0001-38.png
00000009,630,0,1449066810271,1449066810945,951,379,0,0,0,1,2,1,3,0004-00-0000-83.png,0003-00-0000-68.png
00000009,631,1,1449066814106,1449066814134,862,355,0,0,0,2,1,1,3,0003-00-0001-07.png,0004-00-0000-24.png
00000009,632,1,1449066815080,1449066815793,459,276,0,0,0,0,1,1,1,0005-00-0000-70.png,0004-00-0001-89.png
00000009,633,1,1449066816711,1449066817562,477,289,0,0,0,3,4,1,7,0002-00-0000-67.png,0001-00-0000-44.png
00000009,634,1,1449066818656,1449066823725,913,317,0,0,0,3,2,1,5,0002-00-0000-34.png,0003-00-0000-02.png
00000009,635,0,1449066824589,1449066825378,1000,281,0,0,0,1,2,1,3,0004-00-0000-43.png,0003-00-0001-12.png
00000009,636,0,1449066828755,1449066829282,504,266,0,0,0,4,3,1,7,0001-00-0001-55.png,0002-00-0001-75.png
00000009,637,1,1449066832660,1449066833209,986,331,0,0,0,1,0,1,1,0004-00-0001-11.png,0005-00-0001-74.png
00000009,638,0,1449066834099,1449066834166,862,488,0,0,0,2,3,1,5,0003-00-0001-12.png,0002-00-0001-41.png
00000009,639,1,1449066837171,1449066837725,453,399,0,0,0,0,1,1,1,0005-00-0000-35.png,0004-00-0000-01.png
00000009,640,1,1449066838633,1449066838729,880,486,0,0,0,2,1,1,3,0003-00-0000-72.png,0004-00-0001-08.png
00000009,641,1,1449066839705,1449066839921,888,514,0,0,0,1,0,1,1,0004-00-0000-34.png,0005-00-0001-28.png
00000009,642,1,1449066841106,1449066842009,905,313,0,0,0,2,1,1,3,0003-00-0000-81.png,0004-00-0000-15.png
00000009,643,0,1449066843103,1449066843871,1011,304,0,0,0,0,1,1,1,0005-00-0000-72.png,0004-00-0000-79.png
00000009,644,0,1449066846987,1449066847621,1040,305,0,0,0,3,4,1,7,0002-00-0001-24.png,0001-00-0000-30.png
00000009,645,1,1449066850594,1449066851193,964,343,0,0,0,3,2,1,5,0002-00-0000-70.png,0003-00-0000-96.png
00000009,646,0,1449066852125,1449066853050,939,342,0,0,0,1,2,1,3,0004-00-0000-95.png,0003-00-0001-21.png
00000009,647,1,1449066856051,1449066856720,509,297,0,0,0,2,3,1,5,0003-00-0000-33.png,0002-00-0000-06.png
00000009,648,1,1449066857670,1449066858901,954,432,0,0,0,4,3,1,7,0001-00-0001-53.png,0002-00-0001-46.png
00000009,649,1,1449066859936,1449066859986,857,421,0,0,0,1,0,1,1,0004-00-0000-52.png,0005-00-0000-07.png
00000009,650,1,1449066861048,1449066862687,492,290,0,0,0,3,4,1,7,0002-00-0000-19.png,0001-00-0001-64.png
00000009,651,1,1449066863683,1449066864481,942,325,0,0,0,4,3,1,7,0001-00-0001-22.png,0002-00-0001-97.png
00000009,652,1,1449066865500,1449066866583,510,249,0,0,0,1,2,1,3,0004-00-0001-52.png,0003-00-0001-23.png
00000009,653,0,1449066867646,1449066868759,507,265,0,0,0,2,1,1,3,0003-00-0000-85.png,0004-00-0000-69.png
00000009,654,1,1449066871593,1449066872211,1054,332,0,0,0,3,2,1,5,0002-00-0000-77.png,0003-00-0000-65.png
00000009,655,0,1449066873153,1449066873231,883,467,0,0,0,0,1,1,1,0005-00-0000-27.png,0004-00-0001-52.png
00000009,656,1,1449066876272,1449066877227,518,260,0,0,0,2,3,1,5,0003-00-0000-41.png,0002-00-0001-12.png
00000009,657,1,1449066878188,1449066878389,894,556,0,0,0,4,3,1,7,0001-00-0001-62.png,0002-00-0001-68.png
00000009,658,0,1449066879760,1449066880611,939,400,0,0,0,3,4,1,7,0002-00-0000-24.png,0001-00-0000-33.png
00000009,659,0,1449066883714,1449066884555,487,272,0,0,0,2,1,1,3,0003-00-0001-74.png,0004-00-0001-73.png
00000009,660,0,1449066892074,1449066892098,868,375,0,0,0,2,3,1,5,0003-00-0001-80.png,0002-00-0001-74.png
00000009,661,0,1449066895131,1449066895717,964,318,0,0,0,1,2,1,3,0004-00-0000-58.png,0003-00-0001-37.png
00000009,662,0,1449066899289,1449066900230,521,259,0,0,0,3,2,1,5,0002-00-0001-80.png,0003-00-0001-18.png
00000009,663,1,1449066903440,1449066903488,885,355,0,0,0,1,0,1,1,0004-00-0000-07.png,0005-00-0000-50.png
00000009,664,1,1449066904465,1449066905248,496,263,0,0,0,0,1,1,1,0005-00-0000-09.png,0004-00-0000-03.png
00000009,665,1,1449066906143,1449066906890,909,308,0,0,0,1,0,1,1,0004-00-0000-83.png,0005-00-0000-24.png
00000009,666,0,1449066907803,1449066908752,493,268,0,0,0,2,1,1,3,0003-00-0001-28.png,0004-00-0001-60.png
00000009,667,0,1449066912444,1449066913031,962,386,0,0,0,3,4,1,7,0002-00-0000-81.png,0001-00-0001-74.png
00000009,668,1,1449066917195,1449066917727,511,282,0,0,0,0,1,1,1,0005-00-0000-20.png,0004-00-0001-14.png
00000009,669,0,1449066918572,1449066919421,507,227,0,0,0,4,3,1,7,0001-00-0000-23.png,0002-00-0001-13.png
00000009,670,1,1449066934707,1449066935194,466,256,0,0,0,2,3,1,5,0003-00-0001-00.png,0002-00-0000-21.png
00000009,671,1,1449066936323,1449066937281,913,341,0,0,0,3,2,1,5,0002-00-0000-29.png,0003-00-0001-42.png
00000009,672,0,1449066938275,1449066939329,994,283,0,0,0,1,2,1,3,0004-00-0000-30.png,0003-00-0000-27.png
00000009,673,1,1449066942530,1449066943531,453,266,0,0,0,3,4,1,7,0002-00-0000-88.png,0001-00-0000-00.png
00000009,674,0,1449066944426,1449066945512,989,284,0,0,0,1,2,1,3,0004-00-0001-93.png,0003-00-0001-30.png
00000009,675,1,1449066948404,1449066949021,462,272,0,0,0,0,1,1,1,0005-00-0000-31.png,0004-00-0000-11.png
00000009,676,0,1449066950013,1449066951016,907,322,0,0,0,2,3,1,5,0003-00-0000-50.png,0002-00-0001-87.png
00000009,677,0,1449066954397,1449066954942,504,266,0,0,0,4,3,1,7,0001-00-0000-83.png,0002-00-0000-70.png
00000009,678,1,1449066958352,1449066958996,934,342,0,0,0,2,1,1,3,0003-00-0000-59.png,0004-00-0000-36.png
00000009,679,1,1449066960050,1449066961128,1005,306,0,0,0,1,0,1,1,0004-00-0001-39.png,0005-00-0001-68.png
00000009,680,1,1449066962148,1449066962340,894,529,0,0,0,3,2,1,5,0002-00-0001-42.png,0003-00-0001-54.png
00000009,681,0,1449066963437,1449066964436,491,251,0,0,0,2,1,1,3,0003-00-0000-29.png,0004-00-0000-86.png
00000009,682,1,1449066967452,1449066968061,493,283,0,0,0,1,2,1,3,0004-00-0000-19.png,0003-00-0001-65.png
00000009,683,1,1449066969039,1449066970142,504,289,0,0,0,2,3,1,5,0003-00-0000-71.png,0002-00-0001-16.png
00000009,684,1,1449066971080,1449066972129,1016,279,0,0,0,1,0,1,1,0004-00-0001-67.png,0005-00-0000-89.png
00000009,685,0,1449066973147,1449066974340,461,297,0,0,0,4,3,1,7,0001-00-0001-15.png,0002-00-0001-82.png
00000009,686,1,1449066977219,1449066977797,1041,306,0,0,0,3,2,1,5,0002-00-0000-17.png,0003-00-0001-32.png
00000009,687,0,1449066978754,1449066978872,885,487,0,0,0,0,1,1,1,0005-00-0001-88.png,0004-00-0000-23.png
00000009,688,1,1449066981957,1449066982685,520,306,0,0,0,3,4,1,7,0002-00-0001-46.png,0001-00-0000-27.png
00000009,689,0,1449066983618,1449066984450,1018,301,0,0,0,2,3,1,5,0003-00-0000-32.png,0002-00-0000-19.png
00000009,690,1,1449066987517,1449066987533,913,386,0,0,0,1,0,1,1,0004-00-0000-18.png,0005-00-0000-02.png
00000009,691,1,1449066988997,1449066989890,1005,279,0,0,0,4,3,1,7,0001-00-0001-95.png,0002-00-0000-96.png
00000009,692,0,1449066990905,1449066991970,523,296,0,0,0,2,1,1,3,0003-00-0001-43.png,0004-00-0000-24.png
00000009,693,0,1449066995068,1449066996258,918,327,0,0,0,1,2,1,3,0004-00-0000-20.png,0003-00-0000-84.png
00000009,694,1,1449066999400,1449066999416,862,358,0,0,0,3,2,1,5,0002-00-0001-81.png,0003-00-0000-47.png
00000009,695,0,1449067000394,1449067001348,927,330,0,0,0,3,4,1,7,0002-00-0001-44.png,0001-00-0000-81.png
00000009,696,1,1449067004369,1449067004929,522,287,0,0,0,0,1,1,1,0005-00-0001-32.png,0004-00-0000-10.png
00000009,697,1,1449067005816,1449067006784,510,282,0,0,0,0,1,1,1,0005-00-0001-07.png,0004-00-0000-29.png
00000009,698,1,1449067007909,1449067009163,1041,288,0,0,0,3,2,1,5,0002-00-0000-52.png,0003-00-0000-40.png
00000009,699,1,1449067010163,1449067010237,862,448,0,0,0,4,3,1,7,0001-00-0000-01.png,0002-00-0001-80.png
00000009,700,0,1449067011454,1449067012895,1024,279,0,0,0,1,2,1,3,0004-00-0001-15.png,0003-00-0000-78.png
00000009,701,1,1449067015819,1449067016362,943,338,0,0,0,1,0,1,1,0004-00-0000-82.png,0005-00-0001-36.png
00000009,702,1,1449067017278,1449067018594,448,428,0,0,0,2,3,1,5,0003-00-0001-67.png,0002-00-0000-41.png
00000009,703,0,1449067019612,1449067020939,513,279,0,0,0,2,1,1,3,0003-00-0001-40.png,0004-00-0001-41.png
00000009,704,0,1449067024128,1449067024141,902,358,0,0,0,3,4,1,7,0002-00-0001-51.png,0001-00-0001-27.png
00000009,705,1,1449067027393,1449067027473,981,308,0,0,0,4,3,1,7,0001-00-0000-36.png,0002-00-0001-55.png
00000009,706,0,1449067028487,1449067029798,506,278,0,0,0,2,1,1,3,0003-00-0001-81.png,0004-00-0001-74.png
00000009,707,0,1449067032710,1449067033532,1031,306,0,0,0,2,3,1,5,0003-00-0000-38.png,0002-00-0001-93.png
00000009,708,1,1449067036682,1449067037509,962,327,0,0,0,3,2,1,5,0002-00-0001-45.png,0003-00-0001-18.png
00000009,709,1,1449067038536,1449067038584,873,453,0,0,0,1,0,1,1,0004-00-0000-13.png,0005-00-0001-23.png
00000009,710,0,1449067039503,1449067040101,913,296,0,0,0,1,2,1,3,0004-00-0000-22.png,0003-00-0001-00.png
00000009,711,0,1449067043364,1449067043388,895,363,0,0,0,3,4,1,7,0002-00-0001-05.png,0001-00-0000-94.png
00000009,712,1,1449067046272,1449067046819,502,294,0,0,0,0,1,1,1,0005-00-0000-06.png,0004-00-0000-42.png
00000009,713,0,1449067047823,1449067048517,497,246,0,0,0,2,1,1,3,0003-00-0001-30.png,0004-00-0001-31.png
00000009,714,0,1449067051899,1449067052480,920,323,0,0,0,1,2,1,3,0004-00-0000-07.png,0003-00-0000-08.png
00000009,715,0,1449067056233,1449067056855,1039,331,0,0,0,3,4,1,7,0002-00-0000-06.png,0001-00-0000-63.png
00000009,716,0,1449067059980,1449067060860,519,267,0,0,0,3,2,1,5,0002-00-0000-89.png,0003-00-0001-96.png
00000009,717,0,1449067063742,1449067064307,478,289,0,0,0,1,0,1,1,0004-00-0001-95.png,0005-00-0001-21.png
00000009,718,1,1449067067161,1449067067901,487,265,0,0,0,2,3,1,5,0003-00-0001-87.png,0002-00-0000-69.png
00000009,719,0,1449067068961,1449067069926,492,235,0,0,0,4,3,1,7,0001-00-0001-45.png,0002-00-0000-82.png
00000009,720,1,1449067073145,1449067074165,420,444,0,0,0,0,1,1,1,0005-00-0001-34.png,0004-00-0000-00.png
00000009,721,1,1449067075172,1449067076013,929,299,0,0,0,1,0,1,1,0004-00-0001-07.png,0005-00-0000-20.png
00000009,722,1,1449067076860,1449067077998,903,353,0,0,0,3,2,1,5,0002-00-0001-01.png,0003-00-0001-41.png
00000009,723,1,1449067079128,1449067080083,504,267,0,0,0,0,1,1,1,0005-00-0000-10.png,0004-00-0000-54.png
00000009,724,0,1449067081046,1449067082056,964,395,0,0,0,3,4,1,7,0002-00-0001-29.png,0001-00-0001-63.png
00000009,725,0,1449067084960,1449067085692,494,286,0,0,0,4,3,1,7,0001-00-0000-11.png,0002-00-0000-86.png
00000009,726,0,1449067098653,1449067098665,863,334,0,0,0,1,2,1,3,0004-00-0000-93.png,0003-00-0000-92.png
00000009,727,0,1449067101806,1449067101834,862,332,0,0,0,2,3,1,5,0003-00-0000-88.png,0002-00-0001-87.png
00000009,728,1,1449067104979,1449067105003,868,350,0,0,0,2,1,1,3,0003-00-0000-25.png,0004-00-0000-72.png
00000009,729,0,1449067105992,1449067106902,919,361,0,0,0,2,3,1,5,0003-00-0001-05.png,0002-00-0001-71.png
00000009,730,1,1449067110047,1449067110708,1018,303,0,0,0,2,1,1,3,0003-00-0001-54.png,0004-00-0000-15.png
00000009,731,0,1449067111697,1449067112589,1014,305,0,0,0,3,4,1,7,0002-00-0001-99.png,0001-00-0000-11.png
00000009,732,0,1449067115511,1449067116049,504,267,0,0,0,4,3,1,7,0001-00-0000-25.png,0002-00-0001-83.png
00000009,733,1,1449067119199,1449067119764,1056,317,0,0,0,1,0,1,1,0004-00-0000-17.png,0005-00-0000-80.png
00000009,734,1,1449067120700,1449067120834,863,496,0,0,0,3,2,1,5,0002-00-0000-77.png,0003-00-0000-69.png
00000009,735,0,1449067121880,1449067123065,953,381,0,0,0,1,2,1,3,0004-00-0001-59.png,0003-00-0000-69.png
00000009,736,0,1449067126214,1449067126242,888,358,0,0,0,0,1,1,1,0005-00-0000-28.png,0004-00-0001-97.png
00000009,737,1,1449067129074,1449067129142,975,466,0,0,0,4,3,1,7,0001-00-0000-73.png,0002-00-0001-68.png
00000009,738,1,1449067130140,1449067131064,488,276,0,0,0,0,1,1,1,0005-00-0001-61.png,0004-00-0000-32.png
00000009,739,0,1449067132243,1449067133142,946,429,0,0,0,2,3,1,5,0003-00-0000-59.png,0002-00-0001-13.png
00000009,740,0,1449067136053,1449067136625,401,358,0,0,0,3,2,1,5,0002-00-0001-51.png,0003-00-0001-12.png
00000009,741,1,1449067139872,1449067139916,946,354,0,0,0,2,1,1,3,0003-00-0000-57.png,0004-00-0000-05.png
00000009,742,1,1449067140864,1449067140954,862,488,0,0,0,1,0,1,1,0004-00-0000-53.png,0005-00-0001-02.png
00000009,743,0,1449067142145,1449067142229,883,440,0,0,0,3,4,1,7,0002-00-0001-65.png,0001-00-0001-29.png
00000009,744,0,1449067145344,1449067145372,862,398,0,0,0,1,2,1,3,0004-00-0000-23.png,0003-00-0001-47.png
00000009,745,1,1449067148325,1449067148881,508,277,0,0,0,0,1,1,1,0005-00-0001-38.png,0004-00-0001-98.png
00000009,746,0,1449067149951,1449067150941,939,332,0,0,0,2,3,1,5,0003-00-0001-93.png,0002-00-0000-15.png
00000009,747,0,1449067154346,1449067155199,514,267,0,0,0,3,2,1,5,0002-00-0000-95.png,0003-00-0001-63.png
00000009,748,0,1449067158363,1449067158894,511,285,0,0,0,4,3,1,7,0001-00-0001-05.png,0002-00-0001-17.png
00000009,749,0,1449067167946,1449067168623,477,252,0,0,0,2,1,1,3,0003-00-0000-65.png,0004-00-0000-93.png
00000009,750,1,1449067171576,1449067171596,881,426,0,0,0,1,0,1,1,0004-00-0001-26.png,0005-00-0000-65.png
00000009,751,0,1449067172649,1449067174058,938,331,0,0,0,1,2,1,3,0004-00-0001-77.png,0003-00-0001-62.png
00000009,752,0,1449067176957,1449067177019,884,384,0,0,0,3,4,1,7,0002-00-0000-38.png,0001-00-0000-34.png
00000009,753,0,1449067180251,1449067180858,413,358,0,0,0,4,3,1,7,0001-00-0001-35.png,0002-00-0001-41.png
00000009,754,0,1449067184095,1449067184701,1034,288,0,0,0,1,2,1,3,0004-00-0001-50.png,0003-00-0000-19.png
00000009,755,1,1449067187752,1449067187772,1021,415,0,0,0,2,1,1,3,0003-00-0001-32.png,0004-00-0001-08.png
00000009,756,1,1449067188869,1449067190020,511,313,0,0,0,3,4,1,7,0002-00-0001-25.png,0001-00-0001-21.png
00000009,757,0,1449067191034,1449067192226,901,332,0,0,0,2,3,1,5,0003-00-0001-98.png,0002-00-0001-09.png
00000009,758,1,1449067195336,1449067195917,515,283,0,0,0,0,1,1,1,0005-00-0001-49.png,0004-00-0000-91.png
00000009,759,0,1449067196888,1449067197908,516,282,0,0,0,3,2,1,5,0002-00-0000-50.png,0003-00-0001-44.png
00000009,760,1,1449067201100,1449067201243,991,283,0,0,0,1,0,1,1,0004-00-0000-35.png,0005-00-0001-60.png
00000009,761,0,1449067202203,1449067203291,1041,268,0,0,0,1,2,1,3,0004-00-0000-44.png,0003-00-0001-69.png
00000009,762,0,1449067206624,1449067207208,493,292,0,0,0,4,3,1,7,0001-00-0001-54.png,0002-00-0001-66.png
00000009,763,1,1449067210363,1449067211313,464,284,0,0,0,2,3,1,5,0003-00-0001-04.png,0002-00-0000-24.png
00000009,764,1,1449067212358,1449067212414,871,410,0,0,0,3,2,1,5,0002-00-0000-01.png,0003-00-0001-68.png
00000009,765,1,1449067213650,1449067213698,862,410,0,0,0,1,0,1,1,0004-00-0000-28.png,0005-00-0000-67.png
00000009,766,0,1449067214963,1449067215112,858,489,0,0,0,0,1,1,1,0005-00-0001-26.png,0004-00-0001-31.png
00000009,767,0,1449067228597,1449067229400,467,253,0,0,0,2,1,1,3,0003-00-0001-22.png,0004-00-0001-56.png
00000009,768,0,1449067232285,1449067233173,910,359,0,0,0,3,4,1,7,0002-00-0001-79.png,0001-00-0001-69.png
00000009,769,0,1449067236734,1449067237526,475,270,0,0,0,2,1,1,3,0003-00-0000-73.png,0004-00-0001-97.png
00000009,770,1,1449067240683,1449067240703,882,340,0,0,0,3,2,1,5,0002-00-0000-21.png,0003-00-0000-97.png
00000009,771,0,1449067241697,1449067242887,1018,307,0,0,0,1,2,1,3,0004-00-0001-16.png,0003-00-0000-23.png
00000009,772,1,1449067246048,1449067246664,507,255,0,0,0,0,1,1,1,0005-00-0001-80.png,0004-00-0001-19.png
00000009,773,0,1449067247716,1449067248907,1042,332,0,0,0,3,4,1,7,0002-00-0000-43.png,0001-00-0001-34.png
00000009,774,0,1449067251990,1449067252599,520,260,0,0,0,4,3,1,7,0001-00-0001-19.png,0002-00-0001-80.png
00000009,775,1,1449067255639,1449067255699,862,410,0,0,0,1,0,1,1,0004-00-0000-60.png,0005-00-0000-77.png
00000009,776,1,1449067256659,1449067257802,514,239,0,0,0,2,3,1,5,0003-00-0000-57.png,0002-00-0001-46.png
00000009,777,1,1449067258995,1449067259968,414,368,0,0,0,0,1,1,1,0005-00-0000-88.png,0004-00-0000-78.png
00000009,778,1,1449067260945,1449067262402,937,331,0,0,0,3,2,1,5,0002-00-0001-91.png,0003-00-0000-54.png
00000009,779,0,1449067263579,1449067264822,490,250,0,0,0,2,1,1,3,0003-00-0000-97.png,0004-00-0000-76.png
00000009,780,0,1449067267702,1449067268475,1041,292,0,0,0,2,3,1,5,0003-00-0001-81.png,0002-00-0001-84.png
00000009,781,0,1449067271666,1449067272341,1067,293,0,0,0,1,2,1,3,0004-00-0001-76.png,0003-00-0001-04.png
00000009,782,1,1449067279780,1449067280338,1049,298,0,0,0,1,0,1,1,0004-00-0001-78.png,0005-00-0001-58.png
00000009,783,0,1449067281256,1449067282115,460,374,0,0,0,4,3,1,7,0001-00-0001-36.png,0002-00-0001-97.png
00000009,784,0,1449067285192,1449067285675,991,306,0,0,0,3,4,1,7,0002-00-0001-72.png,0001-00-0000-22.png
00000009,785,1,1449067288818,1449067289417,993,340,0,0,0,3,2,1,5,0002-00-0000-42.png,0003-00-0001-18.png
00000009,786,1,1449067290379,1449067291314,1045,284,0,0,0,1,0,1,1,0004-00-0001-53.png,0005-00-0001-68.png
00000009,787,0,1449067292408,1449067293757,1059,271,0,0,0,1,2,1,3,0004-00-0001-42.png,0003-00-0000-80.png
00000009,788,0,1449067296888,1449067296912,886,357,0,0,0,0,1,1,1,0005-00-0000-57.png,0004-00-0000-72.png
00000009,789,1,1449067300156,1449067300682,913,317,0,0,0,2,1,1,3,0003-00-0000-97.png,0004-00-0000-63.png
00000009,790,1,1449067301680,1449067301743,874,479,0,0,0,4,3,1,7,0001-00-0000-12.png,0002-00-0001-65.png
00000009,791,1,1449067302759,1449067304532,473,288,0,0,0,2,3,1,5,0003-00-0000-10.png,0002-00-0000-40.png
00000009,792,0,1449067305632,1449067305640,862,423,0,0,0,3,4,1,7,0002-00-0001-54.png,0001-00-0000-15.png
00000009,793,1,1449067308763,1449067308811,862,368,0,0,0,1,0,1,1,0004-00-0000-37.png,0005-00-0001-37.png
00000009,794,0,1449067309725,1449067310819,514,266,0,0,0,3,2,1,5,0002-00-0001-46.png,0003-00-0001-56.png
00000009,795,0,1449067328926,1449067329447,1054,279,0,0,0,3,4,1,7,0002-00-0001-91.png,0001-00-0001-35.png
00000009,796,1,1449067332662,1449067333466,470,279,0,0,0,2,3,1,5,0003-00-0001-61.png,0002-00-0001-49.png
00000009,797,1,1449067334462,1449067335534,412,356,0,0,0,0,1,1,1,0005-00-0000-55.png,0004-00-0000-72.png
00000009,798,1,1449067336509,1449067337725,1022,265,0,0,0,2,1,1,3,0003-00-0001-78.png,0004-00-0001-68.png
00000009,799,0,1449067338761,1449067339974,1006,253,0,0,0,1,2,1,3,0004-00-0001-73.png,0003-00-0000-62.png
00000009,800,0,1449067343253,1449067343910,478,289,0,0,0,4,3,1,7,0001-00-0000-53.png,0002-00-0000-38.png
00000009,801,1,1449067346983,1449067347579,469,279,0,0,0,0,1,1,1,0005-00-0000-26.png,0004-00-0000-84.png
00000009,802,1,1449067348539,1449067349762,1016,410,0,0,0,3,2,1,5,0002-00-0000-96.png,0003-00-0001-41.png
00000009,803,0,1449067350789,1449067351840,411,336,0,0,0,4,3,1,7,0001-00-0000-61.png,0002-00-0000-83.png
00000009,804,1,1449067371423,1449067371967,939,316,0,0,0,1,0,1,1,0004-00-0001-47.png,0005-00-0001-20.png
00000009,805,0,1449067373060,1449067374255,483,282,0,0,0,2,1,1,3,0003-00-0000-26.png,0004-00-0001-55.png
00000009,806,0,1449067377105,1449067377975,1021,306,0,0,0,3,4,1,7,0002-00-0001-77.png,0001-00-0000-13.png
00000009,807,0,1449067380842,1449067381685,1051,306,0,0,0,1,2,1,3,0004-00-0000-16.png,0003-00-0001-15.png
00000009,808,1,1449067384849,1449067385634,507,270,0,0,0,2,3,1,5,0003-00-0000-67.png,0002-00-0001-22.png
00000009,809,0,1449067386736,1449067387714,950,392,0,0,0,3,4,1,7,0002-00-0000-59.png,0001-00-0000-03.png
00000009,810,1,1449067390790,1449067390842,913,349,0,0,0,3,2,1,5,0002-00-0001-60.png,0003-00-0001-61.png
00000009,811,0,1449067391823,1449067393048,466,252,0,0,0,4,3,1,7,0001-00-0001-32.png,0002-00-0000-05.png
00000009,812,0,1449067395887,1449067396845,1026,299,0,0,0,1,2,1,3,0004-00-0000-23.png,0003-00-0001-35.png
00000009,813,0,1449067399945,1449067399969,881,390,0,0,0,0,1,1,1,0005-00-0000-23.png,0004-00-0001-23.png
00000009,814,1,1449067403104,1449067403824,913,384,0,0,0,2,1,1,3,0003-00-0001-49.png,0004-00-0001-96.png
00000009,815,0,1449067404884,1449067406184,943,329,0,0,0,2,3,1,5,0003-00-0001-84.png,0002-00-0000-95.png
00000009,816,1,1449067409224,1449067409947,1069,412,0,0,0,1,0,1,1,0004-00-0001-68.png,0005-00-0000-50.png
00000009,817,1,1449067410901,1449067412163,501,269,0,0,0,0,1,1,1,0005-00-0001-87.png,0004-00-0000-47.png
00000009,818,0,1449067413180,1449067414231,942,320,0,0,0,1,2,1,3,0004-00-0000-98.png,0003-00-0001-84.png
00000009,819,0,1449067417263,1449067417319,868,410,0,0,0,2,3,1,5,0003-00-0001-95.png,0002-00-0000-68.png
00000009,820,0,1449067420484,1449067420520,884,363,0,0,0,3,4,1,7,0002-00-0000-14.png,0001-00-0000-32.png
00000009,821,1,1449067423689,1449067424225,1075,283,0,0,0,3,2,1,5,0002-00-0000-94.png,0003-00-0000-92.png
00000009,822,1,1449067425252,1449067426151,958,297,0,0,0,1,0,1,1,0004-00-0001-12.png,0005-00-0000-09.png
00000009,823,1,1449067427169,1449067428229,939,301,0,0,0,2,1,1,3,0003-00-0000-67.png,0004-00-0001-35.png
00000009,824,1,1449067429414,1449067429518,912,519,0,0,0,4,3,1,7,0001-00-0001-03.png,0002-00-0001-78.png
00000009,825,1,1449067430609,1449067430629,865,401,0,0,0,3,2,1,5,0002-00-0000-15.png,0003-00-0000-32.png
00000009,826,0,1449067431902,1449067433328,513,280,0,0,0,2,1,1,3,0003-00-0001-18.png,0004-00-0000-35.png
00000009,827,1,1449067436478,1449067436985,489,436,0,0,0,0,1,1,1,0005-00-0000-91.png,0004-00-0000-58.png
00000009,828,0,1449067437983,1449067439275,495,263,0,0,0,4,3,1,7,0001-00-0000-60.png,0002-00-0001-72.png
00000009,829,1,1449067442445,1449067443140,496,272,0,0,0,2,3,1,5,0003-00-0001-04.png,0002-00-0001-21.png
00000009,830,0,1449067444095,1449067445193,1054,318,0,0,0,1,2,1,3,0004-00-0000-01.png,0003-00-0001-81.png
00000009,831,0,1449067448087,1449067448580,1046,287,0,0,0,3,4,1,7,0002-00-0001-49.png,0001-00-0000-93.png
00000009,832,1,1449067451777,1449067451804,900,358,0,0,0,1,0,1,1,0004-00-0001-89.png,0005-00-0000-56.png
00000009,833,0,1449067452816,1449067453907,1065,312,0,0,0,3,4,1,7,0002-00-0001-93.png,0001-00-0001-22.png
00000009,834,1,1449067456990,1449067457650,1056,279,0,0,0,1,0,1,1,0004-00-0001-07.png,0005-00-0001-69.png
00000009,835,0,1449067458634,1449067459755,470,415,0,0,0,2,1,1,3,0003-00-0000-56.png,0004-00-0000-72.png
00000009,836,0,1449067462896,1449067463434,939,316,0,0,0,2,3,1,5,0003-00-0000-18.png,0002-00-0000-91.png
00000009,837,0,1449067466278,1449067466835,1019,279,0,0,0,1,2,1,3,0004-00-0000-73.png,0003-00-0001-00.png
00000009,838,1,1449067481687,1449067482397,1007,300,0,0,0,3,2,1,5,0002-00-0000-55.png,0003-00-0001-67.png
00000009,839,0,1449067483594,1449067484533,483,267,0,0,0,4,3,1,7,0001-00-0000-24.png,0002-00-0000-23.png
00000009,840,1,1449067487701,1449067488212,501,260,0,0,0,0,1,1,1,0005-00-0001-88.png,0004-00-0000-12.png
00000009,841,0,1449067489207,1449067490290,904,327,0,0,0,1,2,1,3,0004-00-0000-70.png,0003-00-0000-73.png
00000009,842,1,1449067493475,1449067494045,1015,307,0,0,0,2,1,1,3,0003-00-0000-43.png,0004-00-0001-30.png
00000009,843,0,1449067495055,1449067496055,1060,291,0,0,0,3,4,1,7,0002-00-0000-20.png,0001-00-0000-42.png
00000009,844,1,1449067498926,1449067499762,1015,307,0,0,0,3,2,1,5,0002-00-0000-63.png,0003-00-0001-05.png
00000009,845,0,1449067500718,1449067500754,858,478,0,0,0,2,3,1,5,0003-00-0001-42.png,0002-00-0001-71.png
00000009,846,1,1449067504277,1449067504906,453,410,0,0,0,0,1,1,1,0005-00-0000-05.png,0004-00-0001-77.png
00000009,847,1,1449067505935,1449067506711,935,344,0,0,0,1,0,1,1,0004-00-0001-68.png,0005-00-0001-12.png
00000009,848,0,1449067507654,1449067508613,466,248,0,0,0,4,3,1,7,0001-00-0001-49.png,0002-00-0000-06.png
00000009,849,0,1449067512028,1449067512695,954,481,0,0,0,3,4,1,7,0002-00-0001-92.png,0001-00-0001-88.png
00000009,850,1,1449067515772,1449067516667,478,287,0,0,0,2,3,1,5,0003-00-0000-54.png,0002-00-0001-48.png
00000009,851,1,1449067517679,1449067518712,911,305,0,0,0,3,2,1,5,0002-00-0000-53.png,0003-00-0000-73.png
00000009,852,0,1449067519888,1449067521019,511,251,0,0,0,4,3,1,7,0001-00-0000-83.png,0002-00-0000-46.png
00000009,853,0,1449067524231,1449067525171,502,273,0,0,0,2,1,1,3,0003-00-0000-95.png,0004-00-0000-86.png
00000009,854,0,1449067528245,1449067528840,952,294,0,0,0,1,2,1,3,0004-00-0001-92.png,0003-00-0000-16.png
00000009,855,1,1449067531969,1449067532623,489,253,0,0,0,0,1,1,1,0005-00-0000-34.png,0004-00-0001-58.png
00000009,856,1,1449067533601,1449067534373,941,302,0,0,0,1,0,1,1,0004-00-0001-70.png,0005-00-0000-98.png
00000009,857,1,1449067536224,1449067537337,443,410,0,0,0,0,1,1,1,0005-00-0000-25.png,0004-00-0001-54.png
00000009,858,0,1449067538289,1449067539481,1033,289,0,0,0,2,3,1,5,0003-00-0001-03.png,0002-00-0000-13.png
00000009,859,0,1449067574958,1449067575667,458,281,0,0,0,1,0,1,1,0004-00-0001-00.png,0005-00-0000-30.png
00000009,860,0,1449067578544,1449067579507,454,276,0,0,0,4,3,1,7,0001-00-0001-24.png,0002-00-0001-12.png
00000009,861,0,1449067582390,1449067583045,1037,299,0,0,0,3,4,1,7,0002-00-0000-64.png,0001-00-0001-87.png
00000009,862,1,1449067586137,1449067586153,863,354,0,0,0,2,1,1,3,0003-00-0001-83.png,0004-00-0000-99.png
00000009,863,0,1449067587214,1449067588354,491,263,0,0,0,3,2,1,5,0002-00-0001-42.png,0003-00-0000-77.png
00000009,864,0,1449067591480,1449067592128,1015,294,0,0,0,1,2,1,3,0004-00-0000-41.png,0003-00-0001-69.png
00000009,865,1,1449067594997,1449067595483,955,298,0,0,0,1,0,1,1,0004-00-0001-57.png,0005-00-0001-24.png
00000009,866,0,1449067596554,1449067596598,882,478,0,0,0,2,3,1,5,0003-00-0001-42.png,0002-00-0001-50.png
00000009,867,0,1449067599741,1449067600327,1048,295,0,0,0,1,2,1,3,0004-00-0000-90.png,0003-00-0001-29.png
00000009,868,1,1449067603428,1449067604030,1045,302,0,0,0,2,1,1,3,0003-00-0000-84.png,0004-00-0001-25.png
00000009,869,1,1449067605029,1449067606414,925,308,0,0,0,3,2,1,5,0002-00-0000-92.png,0003-00-0000-91.png
00000009,870,1,1449067607512,1449067608469,466,358,0,0,0,0,1,1,1,0005-00-0000-52.png,0004-00-0000-34.png
00000009,871,0,1449067609577,1449067609593,496,494,0,0,0,4,3,1,7,0001-00-0000-27.png,0002-00-0001-35.png
00000009,872,0,1449067612670,1449067613383,947,336,0,0,0,3,4,1,7,0002-00-0000-57.png,0001-00-0000-96.png
00000009,873,0,1449067625814,1449067626351,924,351,0,0,0,3,4,1,7,0002-00-0001-04.png,0001-00-0001-85.png
00000009,874,0,1449067629768,1449067630294,1008,319,0,0,0,1,2,1,3,0004-00-0000-53.png,0003-00-0001-14.png
00000009,875,0,1449067633558,1449067634407,1040,314,0,0,0,2,3,1,5,0003-00-0001-93.png,0002-00-0000-29.png
00000009,876,1,1449067637573,1449067638630,970,279,0,0,0,3,2,1,5,0002-00-0001-52.png,0003-00-0000-78.png
00000009,877,0,1449067639729,1449067641438,485,270,0,0,0,2,1,1,3,0003-00-0000-56.png,0004-00-0000-95.png
00000009,878,1,1449067644561,1449067645235,964,452,0,0,0,1,0,1,1,0004-00-0001-70.png,0005-00-0000-36.png
00000009,879,0,1449067646208,1449067647151,490,240,0,0,0,4,3,1,7,0001-00-0001-26.png,0002-00-0000-88.png
00000009,880,0,1449067650253,1449067650281,882,406,0,0,0,0,1,1,1,0005-00-0000-87.png,0004-00-0000-84.png
00000009,881,1,1449067653165,1449067653649,949,331,0,0,0,1,0,1,1,0004-00-0000-05.png,0005-00-0001-96.png
00000009,882,0,1449067654664,1449067655754,416,348,0,0,0,4,3,1,7,0001-00-0001-12.png,0002-00-0000-13.png
00000009,883,1,1449067658882,1449067659689,494,286,0,0,0,0,1,1,1,0005-00-0001-97.png,0004-00-0001-24.png
00000009,884,0,1449067660647,1449067661848,1038,277,0,0,0,3,4,1,7,0002-00-0000-38.png,0001-00-0000-81.png
00000009,885,0,1449067664929,1449067665253,1056,324,0,0,0,2,3,1,5,0003-00-0000-32.png,0002-00-0000-43.png
00000009,886,1,1449067668097,1449067668905,907,417,0,0,0,3,2,1,5,0002-00-0000-95.png,0003-00-0000-20.png
00000009,887,0,1449067669900,1449067671000,490,267,0,0,0,2,1,1,3,0003-00-0000-56.png,0004-00-0001-63.png
00000009,888,0,1449067674236,1449067675194,890,286,0,0,0,1,2,1,3,0004-00-0000-09.png,0003-00-0001-85.png
00000009,889,0,1449067678176,1449067678196,911,412,0,0,0,1,2,1,3,0004-00-0000-92.png,0003-00-0000-49.png
00000009,890,1,1449067681218,1449067681754,434,339,0,0,0,0,1,1,1,0005-00-0000-24.png,0004-00-0000-57.png
00000009,891,0,1449067682837,1449067683692,480,242,0,0,0,4,3,1,7,0001-00-0001-79.png,0002-00-0000-93.png
00000009,892,1,1449067686571,1449067687234,1020,304,0,0,0,3,2,1,5,0002-00-0000-88.png,0003-00-0000-88.png
00000009,893,1,1449067688273,1449067689296,1034,272,0,0,0,1,0,1,1,0004-00-0000-84.png,0005-00-0000-59.png
00000009,894,1,1449067690331,1449067691533,1002,303,0,0,0,2,1,1,3,0003-00-0000-68.png,0004-00-0000-93.png
00000009,895,0,1449067692644,1449067692685,859,435,0,0,0,2,3,1,5,0003-00-0000-17.png,0002-00-0000-15.png
00000009,896,0,1449067695893,1449067696597,1006,325,0,0,0,3,4,1,7,0002-00-0001-58.png,0001-00-0000-50.png
00000009,897,1,1449067717891,1449067718427,490,291,0,0,0,1,2,1,3,0004-00-0001-90.png,0003-00-0001-49.png
00000009,898,1,1449067719478,1449067720533,471,292,0,0,0,0,1,1,1,0005-00-0000-90.png,0004-00-0000-68.png
00000009,899,0,1449067721586,1449067722388,1030,287,0,0,0,3,4,1,7,0002-00-0000-57.png,0001-00-0000-46.png
00000009,900,1,1449067725591,1449067726190,929,363,0,0,0,3,2,1,5,0002-00-0001-91.png,0003-00-0001-20.png
00000009,901,1,1449067727210,1449067728126,1032,287,0,0,0,2,1,1,3,0003-00-0001-23.png,0004-00-0001-54.png
00000009,902,1,1449067729298,1449067730607,973,400,0,0,0,1,0,1,1,0004-00-0000-87.png,0005-00-0000-85.png
00000009,903,1,1449067731584,1449067732690,483,289,0,0,0,2,3,1,5,0003-00-0001-28.png,0002-00-0000-05.png
00000009,904,0,1449067733759,1449067734662,498,262,0,0,0,4,3,1,7,0001-00-0001-35.png,0002-00-0000-23.png
00000009,905,1,1449067759756,1449067760258,937,382,0,0,0,1,0,1,1,0004-00-0001-08.png,0005-00-0001-89.png
00000009,906,0,1449067761273,1449067761337,871,464,0,0,0,3,4,1,7,0002-00-0000-99.png,0001-00-0000-92.png
00000009,907,1,1449067764508,1449067764524,865,350,0,0,0,3,2,1,5,0002-00-0000-58.png,0003-00-0000-38.png
00000009,908,1,1449067765524,1449067766495,500,267,0,0,0,2,3,1,5,0003-00-0001-06.png,0002-00-0000-06.png
00000009,909,1,1449067767489,1449067768291,389,354,0,0,0,0,1,1,1,0005-00-0000-00.png,0004-00-0001-60.png
00000009,910,0,1449067769219,1449067769950,505,246,0,0,0,4,3,1,7,0001-00-0000-18.png,0002-00-0001-53.png
00000009,911,1,1449067772935,1449067773533,934,391,0,0,0,2,1,1,3,0003-00-0001-34.png,0004-00-0000-66.png
00000009,912,1,1449067774436,1449067775418,506,272,0,0,0,1,2,1,3,0004-00-0000-78.png,0003-00-0001-84.png
00000009,913,0,1449067776431,1449067777205,1058,285,0,0,0,3,4,1,7,0002-00-0000-80.png,0001-00-0000-43.png
00000009,914,1,1449067787674,1449067788145,481,267,0,0,0,0,1,1,1,0005-00-0001-01.png,0004-00-0001-58.png
00000009,915,1,1449067789174,1449067790187,1004,280,0,0,0,3,2,1,5,0002-00-0000-81.png,0003-00-0000-69.png
00000009,916,0,1449067791198,1449067791922,494,279,0,0,0,4,3,1,7,0001-00-0000-29.png,0002-00-0000-80.png
00000009,917,1,1449067795959,1449067796490,1024,326,0,0,0,1,0,1,1,0004-00-0001-49.png,0005-00-0000-42.png
00000009,918,1,1449067797362,1449067798440,1044,307,0,0,0,2,1,1,3,0003-00-0000-07.png,0004-00-0000-50.png
00000009,919,0,1449067799516,1449067800341,929,280,0,0,0,1,2,1,3,0004-00-0000-86.png,0003-00-0001-64.png
00000009,920,0,1449067803973,1449067804496,934,342,0,0,0,2,3,1,5,0003-00-0000-47.png,0002-00-0001-57.png
00000009,921,1,1449067807727,1449067808274,1064,253,0,0,0,1,0,1,1,0004-00-0001-20.png,0005-00-0000-54.png
00000009,922,1,1449067809227,1449067810201,401,343,0,0,0,3,4,1,7,0002-00-0001-78.png,0001-00-0000-11.png
00000009,923,0,1449067811381,1449067812337,1048,319,0,0,0,1,2,1,3,0004-00-0001-27.png,0003-00-0001-96.png
00000009,924,1,1449067815954,1449067816896,943,381,0,0,0,3,2,1,5,0002-00-0000-65.png,0003-00-0000-23.png
00000009,925,1,1449067817893,1449067819020,496,288,0,0,0,2,3,1,5,0003-00-0001-72.png,0002-00-0001-82.png
00000009,926,0,1449067820059,1449067821130,478,399,0,0,0,2,1,1,3,0003-00-0001-76.png,0004-00-0000-40.png
00000009,927,0,1449067824015,1449067824031,891,353,0,0,0,0,1,1,1,0005-00-0001-10.png,0004-00-0000-82.png
00000009,928,0,1449067827095,1449067827800,503,292,0,0,0,4,3,1,7,0001-00-0001-82.png,0002-00-0000-30.png
00000009,929,1,1449067830710,1449067831184,907,357,0,0,0,2,1,1,3,0003-00-0000-94.png,0004-00-0001-17.png
00000009,930,0,1449067832193,1449067833075,938,332,0,0,0,2,3,1,5,0003-00-0000-13.png,0002-00-0000-73.png
00000009,931,1,1449067888076,1449067891080,411,298,0,0,0,0,1,1,1,0005-00-0000-42.png,0004-00-0000-35.png
00000009,932,1,1449067892101,1449067892165,888,446,0,0,0,4,3,1,7,0001-00-0000-15.png,0002-00-0001-74.png
00000009,933,0,1449067893063,1449067893869,917,355,0,0,0,1,2,1,3,0004-00-0000-14.png,0003-00-0001-57.png
00000009,934,0,1449067897289,1449067897812,994,307,0,0,0,3,4,1,7,0002-00-0001-35.png,0001-00-0001-68.png
00000009,935,1,1449067903699,1449067904191,1016,296,0,0,0,1,0,1,1,0004-00-0001-83.png,0005-00-0001-76.png
00000009,936,1,1449067905467,1449067906209,1022,271,0,0,0,3,2,1,5,0002-00-0001-08.png,0003-00-0000-73.png
00000009,937,1,1449067907148,1449067907900,470,277,0,0,0,3,4,1,7,0002-00-0000-60.png,0001-00-0000-64.png
00000009,938,0,1449067908805,1449067909568,423,347,0,0,0,2,1,1,3,0003-00-0000-11.png,0004-00-0000-18.png
00000009,939,1,1449067912502,1449067913000,1063,297,0,0,0,1,0,1,1,0004-00-0000-19.png,0005-00-0000-80.png
00000009,940,1,1449067914313,1449067915236,513,281,0,0,0,2,3,1,5,0003-00-0001-11.png,0002-00-0000-70.png
00000009,941,0,1449067916111,1449067916765,487,283,0,0,0,4,3,1,7,0001-00-0000-62.png,0002-00-0001-82.png
00000009,942,1,1449067919886,1449067919934,869,347,0,0,0,3,2,1,5,0002-00-0001-14.png,0003-00-0001-65.png
00000009,943,0,1449067920841,1449067921435,935,360,0,0,0,1,2,1,3,0004-00-0001-68.png,0003-00-0000-79.png
00000009,944,1,1449067924438,1449067925021,478,279,0,0,0,0,1,1,1,0005-00-0000-76.png,0004-00-0000-93.png
00000009,945,1,1449067925928,1449067926894,491,264,0,0,0,2,3,1,5,0003-00-0001-74.png,0002-00-0000-52.png
00000009,946,1,1449067927745,1449067928372,908,307,0,0,0,1,0,1,1,0004-00-0001-05.png,0005-00-0001-12.png
00000009,947,0,1449067929248,1449067929354,868,454,0,0,0,1,2,1,3,0004-00-0000-02.png,0003-00-0000-14.png
00000009,948,0,1449067932349,1449067933021,487,264,0,0,0,4,3,1,7,0001-00-0000-95.png,0002-00-0000-78.png
00000009,949,0,1449067947317,1449067947820,482,281,0,0,0,3,2,1,5,0002-00-0000-67.png,0003-00-0000-01.png
